#time,accel_x,accel_y,accel_z
838.851184,592.164754,-518.144159,-9882.631924
838.851504,518.144159,0.000000,-9806.022374
838.851824,666.185348,-148.041188,-9882.631924
838.852144,222.061783,444.123565,-10189.070123
838.852464,296.082377,962.267725,-9959.241474
838.852784,370.102971,592.164754,-10342.289223
838.853105,666.185348,296.082377,-10112.460574
838.853425,740.205942,-222.061783,-10189.070123
838.853745,444.123565,0.000000,-9806.022374
838.854065,592.164754,370.102971,-10035.851024
838.854385,296.082377,888.247130,-10035.851024
838.854705,444.123565,888.247130,-10189.070123
838.855026,740.205942,444.123565,-10035.851024
838.855346,962.267725,-222.061783,-9959.241474
838.855666,740.205942,-444.123565,-10342.289223
838.855986,-148.041188,-370.102971,-9959.241474
838.856306,-222.061783,0.000000,-9806.022374
838.856626,444.123565,296.082377,-10418.898773
838.856947,222.061783,888.247130,-10418.898773
838.857267,0.000000,592.164754,-9806.022374
838.857587,888.247130,0.000000,-10189.070123
838.857907,962.267725,148.041188,-10112.460574
838.858227,1332.370696,-222.061783,-10265.679673
838.858547,296.082377,296.082377,-10112.460574
838.858868,0.000000,148.041188,-9806.022374
838.859188,74.020594,444.123565,-10189.070123
838.859508,296.082377,222.061783,-10035.851024
838.859828,-222.061783,-296.082377,-10189.070123
838.860148,-888.247130,-592.164754,-9806.022374
838.860468,-666.185348,-592.164754,-10342.289223
838.860789,74.020594,-592.164754,-10112.460574
838.861109,0.000000,-148.041188,-9959.241474
838.861429,-444.123565,-222.061783,-10265.679673
838.861749,-222.061783,-296.082377,-10418.898773
838.862069,0.000000,-592.164754,-9959.241474
838.862390,-518.144159,-888.247130,-10035.851024
838.862710,-592.164754,-1332.370696,-9729.412825
838.863030,-592.164754,-1332.370696,-9959.241474
838.863350,-1036.288319,-1110.308913,-9806.022374
838.863670,-1258.350101,-1036.288319,-9882.631924
838.863990,-2146.597232,-1110.308913,-9882.631924
838.864311,-2368.659014,-1036.288319,-10035.851024
838.864631,-2294.638420,-666.185348,-9806.022374
838.864951,-962.267725,-518.144159,-10112.460574
838.865271,-1480.411884,-1184.329507,-9959.241474
838.865591,-1702.473667,-1184.329507,-10189.070123
838.865911,-888.247130,-1480.411884,-9806.022374
838.866232,-444.123565,-1110.308913,-9882.631924
838.866552,-962.267725,-1776.494261,-9959.241474
838.866872,-2368.659014,-3034.844362,-10035.851024
838.867192,-2664.741391,-3923.091493,-9422.974625
838.867512,-2442.679609,-3923.091493,-9729.412825
838.867832,-2146.597232,-3627.009116,-9576.193725
838.868153,-2294.638420,-3404.947333,-9806.022374
838.868473,-2368.659014,-3182.885551,-9729.412825
838.868793,-1702.473667,-2368.659014,-9576.193725
838.869113,518.144159,-2146.597232,-10035.851024
838.869433,888.247130,-1924.535449,-10189.070123
838.869753,-296.082377,-2146.597232,-10342.289223
838.870074,-1258.350101,-2146.597232,-10342.289223
838.870394,-2738.761985,-2812.782580,-10265.679673
838.870714,-3182.885551,-3404.947333,-10112.460574
838.871034,-4737.318029,-4293.194464,-9729.412825
838.871354,-5255.462188,-4959.379811,-9806.022374
838.871675,-3404.947333,-5403.503377,-9499.584175
838.871995,-1184.329507,-4589.276840,-9806.022374
838.872315,518.144159,-3775.050304,-10189.070123
838.872635,814.226536,-1924.535449,-10418.898773
838.872955,1184.329507,296.082377,-10725.336972
838.873275,2220.617826,1406.391290,-10648.727422
838.873596,2294.638420,1036.288319,-10878.556072
838.873916,1184.329507,-296.082377,-10801.946522
838.874236,-888.247130,-2368.659014,-10648.727422
838.874556,-2664.741391,-3552.988522,-10265.679673
838.874876,-4737.318029,-3923.091493,-9959.241474
838.875196,-5995.668130,-4145.153275,-9422.974625
838.875517,-5107.421000,-5033.400406,-9576.193725
838.875837,-2516.700203,-5107.421000,-9346.365076
838.876157,-666.185348,-4663.297435,-9959.241474
838.876477,1258.350101,-2590.720797,-10342.289223
838.876797,2368.659014,148.041188,-10189.070123
838.877117,3849.070898,2442.679609,-10572.117872
838.877438,5107.421000,3256.906145,-11338.213370
838.877758,2146.597232,2664.741391,-11031.775171
838.878078,-2294.638420,370.102971,-10572.117872
838.878398,-5625.565159,-3108.864956,-9652.803275
838.878718,-6217.729913,-5995.668130,-9729.412825
838.879038,-4441.235652,-7698.141797,-9422.974625
838.879359,-3923.091493,-7550.100608,-9346.365076
838.879679,-3923.091493,-5921.647536,-9039.926876
838.879999,-2368.659014,-1776.494261,-9882.631924
838.880319,740.205942,2812.782580,-10648.727422
838.880639,2220.617826,5625.565159,-10955.165621
838.880959,2590.720797,5107.421000,-10955.165621
838.881280,2812.782580,1850.514855,-10648.727422
838.881600,2146.597232,-1258.350101,-10572.117872
838.881920,296.082377,-2072.576638,-10495.508323
838.882240,-2886.803174,-2220.617826,-10189.070123
838.882560,-5033.400406,-1258.350101,-10189.070123
838.882881,-6513.812290,-2072.576638,-10035.851024
838.883201,-8216.285956,-2886.803174,-9729.412825
838.883521,-7920.203579,-4589.276840,-9269.755526
838.883841,-5033.400406,-5107.421000,-9193.145976
838.884161,-518.144159,-3775.050304,-9346.365076
838.884481,3108.864956,-1406.391290,-9882.631924
838.884802,3849.070898,1406.391290,-10418.898773
838.885122,1924.535449,3404.947333,-10112.460574
838.885442,1998.556043,4071.132681,-10495.508323
838.885762,2368.659014,2294.638420,-10495.508323
838.886082,2294.638420,-148.041188,-10265.679673
838.886402,-1628.453072,-2516.700203,-10265.679673
838.886723,-5107.421000,-4293.194464,-10112.460574
838.887043,-7402.059420,-4441.235652,-9269.755526
838.887363,-8660.409521,-4441.235652,-9269.755526
838.887683,-6291.750507,-4811.338623,-8886.707777
838.888003,-2590.720797,-4737.318029,-9269.755526
838.888323,1998.556043,-4959.379811,-9729.412825
838.888644,3256.906145,-2220.617826,-10418.898773
838.888964,3478.967927,740.205942,-10189.070123
838.889284,3478.967927,3478.967927,-10648.727422
838.889604,4441.235652,4515.256246,-11261.603821
838.889924,4071.132681,2812.782580,-11108.384721
838.890244,-296.082377,740.205942,-10955.165621
838.890565,-5403.503377,-2368.659014,-10801.946522
838.890885,-7550.100608,-5403.503377,-9959.241474
838.891205,-7031.956449,-7476.080014,-9729.412825
838.891525,-5921.647536,-8364.327145,-9116.536426
838.891845,-5403.503377,-7031.956449,-10648.727422
838.892165,-4219.173869,-5255.462188,-9422.974625
838.892486,-888.247130,-2146.597232,-9959.241474
838.892806,3552.988522,222.061783,-10572.117872
838.893126,5477.523971,2220.617826,-10801.946522
838.893446,4959.379811,2960.823768,-11797.870669
838.893766,2146.597232,1554.432478,-11184.994271
838.894087,-1924.535449,0.000000,-10418.898773
838.894407,-3775.050304,-2664.741391,-10418.898773
838.894727,-4515.256246,-5625.565159,-10035.851024
838.895047,-6587.832884,-6365.771101,-9422.974625
838.895367,-8438.347739,-7550.100608,-9116.536426
838.895687,-7624.121203,-7328.038826,-8886.707777
838.896008,-3552.988522,-4959.379811,-9346.365076
838.896328,-740.205942,-2664.741391,-10035.851024
838.896648,1554.432478,-1110.308913,-10342.289223
838.896968,1776.494261,592.164754,-9882.631924
838.897288,3108.864956,296.082377,-9882.631924
838.897608,5477.523971,148.041188,-11184.994271
838.897929,4737.318029,1036.288319,-11031.775171
838.898249,1998.556043,-814.226536,-10342.289223
838.898569,-1998.556043,-2368.659014,-10189.070123
838.898889,-3627.009116,-2516.700203,-9806.022374
838.899209,-5255.462188,-2960.823768,-10189.070123
838.899529,-6439.791695,-3997.112087,-9806.022374
838.899850,-5921.647536,-4589.276840,-9116.536426
838.900170,-3478.967927,-4367.215058,-9652.803275
838.900490,0.000000,-2220.617826,-10495.508323
838.900810,2368.659014,0.000000,-10418.898773
838.901130,5107.421000,1258.350101,-11184.994271
838.901450,6883.915261,2738.761985,-11031.775171
838.901771,4145.153275,3627.009116,-11338.213370
838.902091,666.185348,4885.359217,-10495.508323
838.902411,0.000000,3034.844362,-10725.336972
838.902731,888.247130,0.000000,-10495.508323
838.903051,74.020594,-4145.153275,-10265.679673
838.903372,-3330.926739,-6365.771101,-9269.755526
838.903692,-4293.194464,-5551.544565,-9422.974625
838.904012,-2960.823768,-2220.617826,-10035.851024
838.904332,-1554.432478,1850.514855,-9806.022374
838.904652,-148.041188,2590.720797,-9499.584175
838.904972,1258.350101,2294.638420,-9806.022374
838.905293,2220.617826,-666.185348,-9806.022374
838.905613,4737.318029,-222.061783,-10112.460574
838.905933,5699.585753,2516.700203,-9729.412825
838.906253,4441.235652,2960.823768,-10878.556072
838.906573,2220.617826,2072.576638,-10265.679673
838.906893,-2886.803174,74.020594,-9806.022374
838.907214,-5551.544565,-888.247130,-8963.317327
838.907534,-4589.276840,-814.226536,-10112.460574
838.907854,-2812.782580,-2146.597232,-9806.022374
838.908174,-1258.350101,-2516.700203,-9652.803275
838.908494,666.185348,-1998.556043,-9499.584175
838.908814,4145.153275,592.164754,-9499.584175
838.909135,5033.400406,1998.556043,-10801.946522
838.909455,4441.235652,3330.926739,-10495.508323
838.909775,1776.494261,5255.462188,-10572.117872
838.910095,444.123565,4219.173869,-11031.775171
838.910415,296.082377,3034.844362,-10648.727422
838.910735,370.102971,1480.411884,-10725.336972
838.911055,-1184.329507,222.061783,-10265.679673
838.911376,-2886.803174,74.020594,-10342.289223
838.911696,-3923.091493,-296.082377,-9806.022374
838.912016,-2590.720797,-2072.576638,-9422.974625
838.912336,-74.020594,-2960.823768,-9422.974625
838.912656,1702.473667,-3034.844362,-9806.022374
838.912976,3701.029710,-1184.329507,-9806.022374
838.913296,4959.379811,2664.741391,-10189.070123
838.913617,2590.720797,6291.750507,-10878.556072
838.913937,2368.659014,7476.080014,-10878.556072
838.914257,3330.926739,5107.421000,-10878.556072
838.914577,3627.009116,1480.411884,-10342.289223
838.914897,370.102971,-3330.926739,-10112.460574
838.915217,-2516.700203,-4293.194464,-9806.022374
838.915537,-4663.297435,-5181.441594,-8886.707777
838.915858,-2368.659014,-2812.782580,-9652.803275
838.916178,-2516.700203,-666.185348,-9806.022374
838.916498,-3552.988522,-592.164754,-9193.145976
838.916818,-814.226536,-888.247130,-9729.412825
838.917138,3478.967927,-1554.432478,-9959.241474
838.917458,5329.482782,-74.020594,-10189.070123
838.917778,4663.297435,1480.411884,-10342.289223
838.918099,2442.679609,888.247130,-9882.631924
838.918419,888.247130,1184.329507,-10189.070123
838.918739,-740.205942,2368.659014,-10112.460574
838.919059,-2072.576638,1184.329507,-10342.289223
838.919379,-1332.370696,-1628.453072,-9806.022374
838.919699,-1480.411884,-4071.132681,-10035.851024
838.920019,-1850.514855,-6513.812290,-9269.755526
838.920340,-1998.556043,-5033.400406,-9806.022374
838.920660,-2294.638420,-2738.761985,-9576.193725
838.920980,-1110.308913,1110.308913,-10418.898773
838.921300,592.164754,3701.029710,-10189.070123
838.921620,1776.494261,3775.050304,-10878.556072
838.921940,2812.782580,2590.720797,-11108.384721
838.922260,2368.659014,1110.308913,-11414.822920
838.922581,2368.659014,148.041188,-10878.556072
838.922901,1850.514855,-888.247130,-10955.165621
838.923221,-222.061783,-962.267725,-10648.727422
838.923541,-3256.906145,-1258.350101,-10265.679673
838.923861,-3478.967927,-1332.370696,-10265.679673
838.924181,-2886.803174,-1480.411884,-10189.070123
838.924501,-1184.329507,-3478.967927,-10189.070123
838.924822,518.144159,-3330.926739,-10112.460574
838.925142,2220.617826,74.020594,-10342.289223
838.925462,3034.844362,2516.700203,-10418.898773
838.925782,2738.761985,4441.235652,-10725.336972
838.926102,4071.132681,4515.256246,-9959.241474
838.926422,2812.782580,2960.823768,-10418.898773
838.926743,2368.659014,962.267725,-10265.679673
838.927063,666.185348,-1702.473667,-9806.022374
838.927383,-222.061783,-1924.535449,-8656.879127
838.927703,-1406.391290,-1702.473667,-9346.365076
838.928023,-1776.494261,-1702.473667,-8656.879127
838.928343,-1110.308913,-1776.494261,-9269.755526
838.928663,962.267725,-2590.720797,-9269.755526
838.928984,2294.638420,-2664.741391,-9422.974625
838.929304,4367.215058,-296.082377,-9576.193725
838.929624,5107.421000,1702.473667,-9959.241474
838.929944,4219.173869,3478.967927,-10572.117872
838.930264,1480.411884,3627.009116,-10265.679673
838.930584,518.144159,3330.926739,-10878.556072
838.930904,740.205942,1258.350101,-9959.241474
838.931225,962.267725,-1406.391290,-10648.727422
838.931545,74.020594,-2960.823768,-10265.679673
838.931865,-1924.535449,-2590.720797,-10495.508323
838.932185,-1924.535449,-444.123565,-10572.117872
838.932505,-2368.659014,888.247130,-10418.898773
838.932825,-2664.741391,1332.370696,-10342.289223
838.933145,-2516.700203,1850.514855,-9499.584175
838.933466,-148.041188,2516.700203,-10418.898773
838.933786,3034.844362,1998.556043,-11184.994271
838.934106,5033.400406,222.061783,-11031.775171
838.934426,3627.009116,370.102971,-9729.412825
838.934746,1480.411884,1554.432478,-10418.898773
838.935066,0.000000,2368.659014,-10495.508323
838.935386,-1110.308913,1480.411884,-10265.679673
838.935707,-1184.329507,1036.288319,-9729.412825
838.936027,-1480.411884,-1036.288319,-9729.412825
838.936347,-1628.453072,-1406.391290,-9806.022374
838.936667,0.000000,-1628.453072,-9193.145976
838.936987,1628.453072,-1258.350101,-9882.631924
838.937307,814.226536,740.205942,-9806.022374
838.937627,-148.041188,1036.288319,-9346.365076
838.937948,592.164754,2812.782580,-9422.974625
838.938268,1554.432478,2812.782580,-9806.022374
838.938588,962.267725,1184.329507,-9959.241474
838.938908,518.144159,0.000000,-9882.631924
838.939228,666.185348,-1332.370696,-9806.022374
838.939548,-370.102971,-222.061783,-9959.241474
838.939868,-1702.473667,148.041188,-9882.631924
838.940189,-2368.659014,-444.123565,-9959.241474
838.940509,-2072.576638,-740.205942,-9729.412825
838.940829,-666.185348,-1184.329507,-10418.898773
838.941149,888.247130,-1554.432478,-9806.022374
838.941469,1554.432478,-1184.329507,-10189.070123
838.941789,2072.576638,814.226536,-10801.946522
838.942109,222.061783,2442.679609,-10801.946522
838.942430,296.082377,3182.885551,-10572.117872
838.942750,888.247130,2368.659014,-10418.898773
838.943070,814.226536,592.164754,-10572.117872
838.943390,-814.226536,-1776.494261,-10495.508323
838.943710,-1702.473667,-2664.741391,-10035.851024
838.944030,-1554.432478,-1628.453072,-9959.241474
838.944350,-2442.679609,-1628.453072,-10342.289223
838.944671,-2738.761985,-814.226536,-10189.070123
838.944991,-1702.473667,370.102971,-9806.022374
838.945311,888.247130,1406.391290,-10112.460574
838.945631,3849.070898,1702.473667,-10801.946522
838.945951,4515.256246,2664.741391,-11031.775171
838.946271,3404.947333,1406.391290,-10342.289223
838.946591,2368.659014,740.205942,-10265.679673
838.946912,1406.391290,0.000000,-9959.241474
838.947232,444.123565,666.185348,-10878.556072
838.947552,74.020594,1480.411884,-9959.241474
838.947872,592.164754,444.123565,-10189.070123
838.948192,296.082377,-2442.679609,-9652.803275
838.948512,148.041188,-2886.803174,-9269.755526
838.948832,-888.247130,-962.267725,-9882.631924
838.949153,0.000000,518.144159,-10035.851024
838.949473,1332.370696,1998.556043,-9959.241474
838.949793,2368.659014,1480.411884,-9959.241474
838.950113,2664.741391,1110.308913,-9806.022374
838.950433,3552.988522,1628.453072,-10342.289223
838.950753,4737.318029,666.185348,-10495.508323
838.951073,6217.729913,1036.288319,-10418.898773
838.951394,3552.988522,1850.514855,-10955.165621
838.951714,296.082377,1036.288319,-10112.460574
838.952034,-1480.411884,370.102971,-9806.022374
838.952354,-1554.432478,-370.102971,-10189.070123
838.952674,-1258.350101,-1258.350101,-10342.289223
838.952994,814.226536,-444.123565,-9806.022374
838.953314,1850.514855,370.102971,-10265.679673
838.953635,1406.391290,2072.576638,-10418.898773
838.953955,2294.638420,3552.988522,-10878.556072
838.954275,1924.535449,3923.091493,-10572.117872
838.954595,1184.329507,1998.556043,-9959.241474
838.954915,962.267725,814.226536,-10495.508323
838.955235,666.185348,-1480.411884,-9959.241474
838.955555,1258.350101,-1184.329507,-9652.803275
838.955876,444.123565,518.144159,-9729.412825
838.956196,-296.082377,1702.473667,-10265.679673
838.956516,-2590.720797,2146.597232,-10265.679673
838.956836,-3034.844362,740.205942,-9499.584175
838.957156,-1554.432478,296.082377,-9499.584175
838.957476,-518.144159,-1258.350101,-9806.022374
838.957796,1332.370696,-1924.535449,-9269.755526
838.958117,1776.494261,-1036.288319,-9576.193725
838.958437,444.123565,666.185348,-9806.022374
838.958757,0.000000,1110.308913,-10112.460574
838.959077,-444.123565,1628.453072,-9806.022374
838.959397,592.164754,1998.556043,-9882.631924
838.959717,-148.041188,1332.370696,-10189.070123
838.960037,-444.123565,-592.164754,-9882.631924
838.960358,-1110.308913,-1628.453072,-9882.631924
838.960678,-1332.370696,-1554.432478,-10189.070123
838.960998,-444.123565,-444.123565,-10189.070123
838.961318,-592.164754,1184.329507,-10112.460574
838.961638,1406.391290,1406.391290,-9959.241474
838.961958,2590.720797,592.164754,-10418.898773
838.962278,2220.617826,0.000000,-10572.117872
838.962599,1258.350101,-962.267725,-10342.289223
838.962919,296.082377,-444.123565,-9729.412825
838.963239,-148.041188,592.164754,-10495.508323
838.963559,-814.226536,1110.308913,-10342.289223
838.963879,-1110.308913,1480.411884,-10189.070123
838.964199,-740.205942,888.247130,-10112.460574
838.964520,-814.226536,-1406.391290,-9729.412825
838.964840,-222.061783,-2664.741391,-10035.851024
838.965160,1332.370696,-2442.679609,-9806.022374
838.965480,1406.391290,222.061783,-10112.460574
838.965800,1480.411884,888.247130,-10495.508323
838.966120,1480.411884,1850.514855,-10035.851024
838.966440,1406.391290,518.144159,-10342.289223
838.966761,1480.411884,518.144159,-10112.460574
838.967081,666.185348,-592.164754,-9806.022374
838.967401,2368.659014,222.061783,-10189.070123
838.967721,888.247130,-1332.370696,-9806.022374
838.968041,-1924.535449,-1850.514855,-9806.022374
838.968361,-2442.679609,-518.144159,-9269.755526
838.968681,-2072.576638,-296.082377,-9193.145976
838.969002,-592.164754,0.000000,-9652.803275
838.969322,1036.288319,-370.102971,-9729.412825
838.969642,1924.535449,-962.267725,-9652.803275
838.969962,1924.535449,-888.247130,-10112.460574
838.970282,1184.329507,-148.041188,-9806.022374
838.970602,370.102971,1480.411884,-10418.898773
838.970922,888.247130,3627.009116,-10265.679673
838.971243,1258.350101,2886.803174,-10725.336972
838.971563,1998.556043,666.185348,-10342.289223
838.971883,2220.617826,-592.164754,-10495.508323
838.972203,1258.350101,-1480.411884,-10035.851024
838.972523,1776.494261,-518.144159,-10955.165621
838.972843,-1110.308913,0.000000,-10342.289223
838.973163,-1110.308913,1702.473667,-10725.336972
838.973484,-740.205942,2294.638420,-10189.070123
838.973804,-592.164754,2738.761985,-10572.117872
838.974124,0.000000,2368.659014,-10878.556072
838.974444,962.267725,1480.411884,-10955.165621
838.974764,2738.761985,1184.329507,-10878.556072
838.975084,1776.494261,1628.453072,-10725.336972
838.975404,1776.494261,2442.679609,-10648.727422
838.975725,1332.370696,2442.679609,-11031.775171
838.976045,592.164754,2590.720797,-10648.727422
838.976365,-370.102971,2072.576638,-10265.679673
838.976685,-1258.350101,0.000000,-9422.974625
838.977005,0.000000,-1924.535449,-9116.536426
838.977325,296.082377,-1184.329507,-10265.679673
838.977645,-370.102971,-888.247130,-9576.193725
838.977966,74.020594,74.020594,-9499.584175
838.978286,222.061783,-370.102971,-9422.974625
838.978606,1628.453072,296.082377,-9652.803275
838.978926,0.000000,1258.350101,-9499.584175
838.979246,148.041188,1850.514855,-9959.241474
838.979566,2294.638420,2294.638420,-9806.022374
838.979886,888.247130,444.123565,-9576.193725
838.980207,0.000000,-1850.514855,-9269.755526
838.980527,962.267725,-3034.844362,-9039.926876
838.980847,1628.453072,-2738.761985,-9729.412825
838.981167,370.102971,-1332.370696,-9806.022374
838.981487,-1036.288319,592.164754,-10112.460574
838.981807,-222.061783,2960.823768,-10418.898773
838.982127,0.000000,4589.276840,-10878.556072
838.982448,0.000000,2886.803174,-10495.508323
838.982768,962.267725,-148.041188,-10112.460574
838.983088,1924.535449,-1184.329507,-10572.117872
838.983408,1110.308913,-1110.308913,-10342.289223
838.983728,1406.391290,-518.144159,-10342.289223
838.984048,2072.576638,1258.350101,-10572.117872
838.984368,296.082377,2590.720797,-11338.213370
838.984689,-1998.556043,3552.988522,-11184.994271
838.985009,-2442.679609,2368.659014,-10265.679673
838.985329,-296.082377,1110.308913,-10342.289223
838.985649,1924.535449,-592.164754,-10648.727422
838.985969,2146.597232,-2294.638420,-10265.679673
838.986289,2738.761985,-2146.597232,-9882.631924
838.986609,1850.514855,-962.267725,-10112.460574
838.986930,444.123565,1258.350101,-10112.460574
838.987250,148.041188,3849.070898,-10112.460574
838.987570,0.000000,2738.761985,-10112.460574
838.987890,592.164754,-222.061783,-10265.679673
838.988210,592.164754,-1110.308913,-9959.241474
838.988530,-296.082377,-3478.967927,-9806.022374
838.988850,0.000000,-2220.617826,-9729.412825
838.989171,-518.144159,-592.164754,-9346.365076
838.989491,-666.185348,148.041188,-10189.070123
838.989811,-1332.370696,962.267725,-9346.365076
838.990131,444.123565,888.247130,-10265.679673
838.990451,666.185348,222.061783,-10265.679673
838.990771,1628.453072,740.205942,-9959.241474
838.991091,2072.576638,444.123565,-9806.022374
838.991412,1480.411884,740.205942,-10801.946522
838.991732,0.000000,148.041188,-10648.727422
838.992052,-222.061783,740.205942,-9882.631924
838.992372,-296.082377,444.123565,-9959.241474
838.992692,-666.185348,592.164754,-10801.946522
838.993012,-1702.473667,518.144159,-10035.851024
838.993332,-962.267725,-444.123565,-10189.070123
838.993653,370.102971,-592.164754,-9806.022374
838.993973,1110.308913,814.226536,-10342.289223
838.994293,1628.453072,1258.350101,-10112.460574
838.994613,2738.761985,2368.659014,-10725.336972
838.994933,1628.453072,1554.432478,-10112.460574
838.995253,1036.288319,-592.164754,-10572.117872
838.995573,666.185348,-1036.288319,-9652.803275
838.995894,370.102971,222.061783,-9806.022374
838.996214,888.247130,1258.350101,-9729.412825
838.996534,148.041188,1258.350101,-9959.241474
838.996854,222.061783,-296.082377,-9652.803275
838.997174,1110.308913,-1776.494261,-9806.022374
838.997494,666.185348,-1184.329507,-9806.022374
838.997814,1332.370696,814.226536,-9576.193725
838.998135,962.267725,1628.453072,-9806.022374
838.998455,1776.494261,2368.659014,-10189.070123
838.998775,666.185348,1776.494261,-9499.584175
838.999095,518.144159,666.185348,-9959.241474
838.999415,2516.700203,-148.041188,-9959.241474
838.999735,1850.514855,-814.226536,-9959.241474
839.000055,2220.617826,0.000000,-10648.727422
839.000376,1554.432478,74.020594,-9806.022374
839.000696,0.000000,222.061783,-10572.117872
839.001016,-2516.700203,1332.370696,-10189.070123
839.001336,-3923.091493,444.123565,-9652.803275
839.001656,-888.247130,296.082377,-10265.679673
839.001976,1554.432478,148.041188,-10112.460574
839.002297,2368.659014,-148.041188,-11184.994271
839.002617,1258.350101,74.020594,-10265.679673
839.002937,74.020594,-296.082377,-9346.365076
839.003257,-666.185348,1036.288319,-10342.289223
839.003577,-962.267725,1628.453072,-10495.508323
839.003897,-370.102971,962.267725,-10342.289223
839.004217,148.041188,-518.144159,-10495.508323
839.004538,740.205942,-666.185348,-10495.508323
839.004858,518.144159,-444.123565,-10035.851024
839.005178,666.185348,296.082377,-9882.631924
839.005498,962.267725,0.000000,-9959.241474
839.005818,2146.597232,962.267725,-10572.117872
839.006138,592.164754,592.164754,-9652.803275
839.006458,2072.576638,740.205942,-10189.070123
839.006779,2664.741391,0.000000,-10265.679673
839.007099,1702.473667,0.000000,-10342.289223
839.007419,888.247130,444.123565,-9652.803275
839.007739,74.020594,1036.288319,-10189.070123
839.008059,370.102971,370.102971,-10189.070123
839.008379,0.000000,-222.061783,-9806.022374
839.008699,0.000000,-1184.329507,-9729.412825
839.009019,1184.329507,-888.247130,-9806.022374
839.009339,1110.308913,222.061783,-10265.679673
839.009659,-296.082377,518.144159,-10418.898773
839.009979,-962.267725,370.102971,-9806.022374
839.010299,-962.267725,444.123565,-9959.241474
839.010620,296.082377,1480.411884,-10265.679673
839.010940,1480.411884,1776.494261,-10035.851024
839.011260,1850.514855,1998.556043,-10878.556072
839.011580,1850.514855,2146.597232,-10955.165621
839.011900,296.082377,222.061783,-10418.898773
839.012220,-222.061783,-1110.308913,-10035.851024
839.012540,888.247130,-1406.391290,-9882.631924
839.012860,-2442.679609,-1406.391290,-10035.851024
839.013180,-3256.906145,-1110.308913,-9422.974625
839.013500,-1850.514855,-444.123565,-10035.851024
839.013820,74.020594,0.000000,-10495.508323
839.014140,1628.453072,-1554.432478,-9882.631924
839.014460,592.164754,-296.082377,-10035.851024
839.014780,0.000000,148.041188,-9959.241474
839.015100,-962.267725,1554.432478,-9882.631924
839.015420,0.000000,814.226536,-10112.460574
839.015740,148.041188,148.041188,-9729.412825
839.016061,2368.659014,-592.164754,-10035.851024
839.016381,1110.308913,518.144159,-10112.460574
839.016701,370.102971,370.102971,-10648.727422
839.017021,222.061783,1554.432478,-9882.631924
839.017341,-592.164754,3256.906145,-10418.898773
839.017661,-740.205942,4219.173869,-10418.898773
839.017981,-1850.514855,3256.906145,-10189.070123
839.018301,0.000000,1480.411884,-9882.631924
839.018621,1998.556043,-444.123565,-9806.022374
839.018941,2738.761985,-1480.411884,-10035.851024
839.019261,2960.823768,-1924.535449,-9346.365076
839.019581,3256.906145,-888.247130,-9806.022374
839.019901,2072.576638,666.185348,-9806.022374
839.020221,1702.473667,1776.494261,-10725.336972
839.020541,2072.576638,1258.350101,-10035.851024
839.020861,2368.659014,518.144159,-10495.508323
839.021181,666.185348,74.020594,-10418.898773
839.021502,370.102971,-1406.391290,-11951.089769
839.021822,1850.514855,-2072.576638,-10342.289223
839.022142,962.267725,-444.123565,-10035.851024
839.022462,444.123565,1184.329507,-10725.336972
839.022782,444.123565,2294.638420,-10035.851024
839.023102,1850.514855,2072.576638,-10342.289223
839.023422,666.185348,740.205942,-10495.508323
839.023742,222.061783,-1110.308913,-9959.241474
839.024062,444.123565,-1036.288319,-9652.803275
839.024382,222.061783,1406.391290,-10418.898773
839.024702,74.020594,2294.638420,-10572.117872
839.025022,-1110.308913,2886.803174,-10189.070123
839.025342,0.000000,296.082377,-10112.460574
839.025662,814.226536,-592.164754,-10189.070123
839.025982,0.000000,-1480.411884,-9959.241474
839.026302,-814.226536,-1258.350101,-9652.803275
839.026622,-592.164754,74.020594,-9806.022374
839.026942,0.000000,888.247130,-9729.412825
839.027263,-296.082377,1406.391290,-9882.631924
839.027583,148.041188,592.164754,-9499.584175
839.027903,148.041188,-1258.350101,-9959.241474
839.028223,222.061783,-2368.659014,-9729.412825
839.028543,518.144159,-1924.535449,-9806.022374
839.028863,0.000000,-1332.370696,-10112.460574
839.029183,-222.061783,74.020594,-10112.460574
839.029503,-1258.350101,1332.370696,-10035.851024
839.029823,-592.164754,962.267725,-10265.679673
839.030143,370.102971,444.123565,-10265.679673
839.030463,962.267725,-296.082377,-10418.898773
839.030783,1110.308913,-1184.329507,-10572.117872
839.031103,814.226536,-1480.411884,-10189.070123
839.031423,888.247130,-518.144159,-10648.727422
839.031743,-1480.411884,444.123565,-10418.898773
839.032063,-962.267725,1554.432478,-10572.117872
839.032383,962.267725,1258.350101,-10265.679673
839.032704,2368.659014,814.226536,-10725.336972
839.033024,1776.494261,222.061783,-10725.336972
839.033344,148.041188,-1332.370696,-9806.022374
839.033664,666.185348,-962.267725,-9959.241474
839.033984,-222.061783,148.041188,-10265.679673
839.034304,-518.144159,814.226536,-10495.508323
839.034624,-962.267725,666.185348,-9652.803275
839.034944,222.061783,-222.061783,-9806.022374
839.035264,1110.308913,-1406.391290,-9959.241474
839.035584,1702.473667,-888.247130,-10112.460574
839.035904,2368.659014,-296.082377,-9882.631924
839.036224,1702.473667,0.000000,-10112.460574
839.036544,518.144159,1628.453072,-10418.898773
839.036864,-740.205942,888.247130,-9882.631924
839.037184,-518.144159,0.000000,-9806.022374
839.037504,296.082377,-888.247130,-10112.460574
839.037824,-148.041188,-1480.411884,-10112.460574
839.038144,0.000000,-370.102971,-10265.679673
839.038465,-518.144159,1036.288319,-9959.241474
839.038785,-444.123565,1776.494261,-10342.289223
839.039105,-370.102971,1628.453072,-10112.460574
839.039425,-444.123565,1110.308913,-9882.631924
839.039745,74.020594,148.041188,-10495.508323
839.040065,1480.411884,-962.267725,-10265.679673
839.040385,1924.535449,-370.102971,-9806.022374
839.040705,1554.432478,0.000000,-9882.631924
839.041025,814.226536,370.102971,-9882.631924
839.041345,666.185348,296.082377,-10035.851024
839.041665,148.041188,1850.514855,-10112.460574
839.041985,1998.556043,2146.597232,-10648.727422
839.042305,2590.720797,1924.535449,-10955.165621
839.042625,1628.453072,1702.473667,-10265.679673
839.042945,1998.556043,1850.514855,-9882.631924
839.043265,1332.370696,2516.700203,-10418.898773
839.043585,148.041188,2220.617826,-10648.727422
839.043906,740.205942,962.267725,-9806.022374
839.044226,1702.473667,-222.061783,-8580.269578
839.044546,1554.432478,-888.247130,-9806.022374
839.044866,1036.288319,-1184.329507,-9959.241474
839.045186,1480.411884,-222.061783,-10265.679673
839.045506,370.102971,888.247130,-10265.679673
839.045826,-370.102971,2886.803174,-9729.412825
839.046146,-148.041188,2368.659014,-9729.412825
839.046466,1924.535449,1332.370696,-9882.631924
839.046786,3034.844362,-222.061783,-9882.631924
839.047106,2738.761985,-1258.350101,-10955.165621
839.047426,1480.411884,-2368.659014,-9193.145976
839.047746,1184.329507,-1110.308913,-10035.851024
839.048066,-1110.308913,518.144159,-9499.584175
839.048386,-1036.288319,1998.556043,-9959.241474
839.048706,-1998.556043,1480.411884,-9499.584175
839.049026,-370.102971,222.061783,-9806.022374
839.049346,0.000000,-888.247130,-9959.241474
839.049667,444.123565,-1776.494261,-9806.022374
839.049987,370.102971,-888.247130,-9806.022374
839.050307,222.061783,0.000000,-10112.460574
839.050627,-296.082377,740.205942,-10112.460574
839.050947,-962.267725,814.226536,-9882.631924
839.051267,0.000000,-74.020594,-10265.679673
839.051587,1110.308913,-296.082377,-10648.727422
839.051907,1036.288319,0.000000,-10572.117872
839.052227,592.164754,666.185348,-10342.289223
839.052547,0.000000,1184.329507,-10495.508323
839.052867,0.000000,962.267725,-10572.117872
839.053187,-814.226536,222.061783,-10572.117872
839.053507,0.000000,-666.185348,-10112.460574
839.053827,1110.308913,-1036.288319,-10572.117872
839.054147,740.205942,-592.164754,-10495.508323
839.054467,370.102971,-296.082377,-10342.289223
839.054787,666.185348,148.041188,-10189.070123
839.055108,-296.082377,740.205942,-10342.289223
839.055428,-888.247130,740.205942,-10265.679673
839.055748,518.144159,592.164754,-9806.022374
839.056068,1628.453072,-444.123565,-10035.851024
839.056388,1628.453072,-1702.473667,-10418.898773
839.056708,1406.391290,-2590.720797,-9576.193725
839.057028,444.123565,-2368.659014,-9576.193725
839.057348,-592.164754,-592.164754,-9499.584175
839.057668,222.061783,1036.288319,-9959.241474
839.057988,444.123565,962.267725,-10495.508323
839.058308,962.267725,592.164754,-9959.241474
839.058628,1554.432478,0.000000,-11184.994271
839.058948,814.226536,222.061783,-10495.508323
839.059268,0.000000,1036.288319,-10342.289223
839.059588,-740.205942,2220.617826,-10572.117872
839.059908,-370.102971,2072.576638,-9882.631924
839.060228,-1332.370696,1258.350101,-9882.631924
839.060548,-888.247130,-814.226536,-9959.241474
839.060869,-148.041188,-1480.411884,-9806.022374
839.061189,74.020594,-1702.473667,-10418.898773
839.061509,814.226536,-1480.411884,-10265.679673
839.061829,1036.288319,-222.061783,-10189.070123
839.062149,148.041188,1332.370696,-10342.289223
839.062469,-296.082377,2294.638420,-10342.289223
839.062789,740.205942,2146.597232,-9806.022374
839.063109,2294.638420,1776.494261,-10878.556072
839.063429,2516.700203,0.000000,-10418.898773
839.063749,1850.514855,-2146.597232,-9806.022374
839.064069,1184.329507,-2516.700203,-9806.022374
839.064389,-1480.411884,-222.061783,-10035.851024
839.064709,-1998.556043,1998.556043,-10112.460574
839.065029,-1776.494261,3330.926739,-10035.851024
839.065349,592.164754,3034.844362,-10112.460574
839.065669,2368.659014,1850.514855,-10035.851024
839.065989,2072.576638,0.000000,-10189.070123
839.066310,1776.494261,-1258.350101,-9193.145976
839.066630,1998.556043,-740.205942,-9959.241474
839.066950,2072.576638,74.020594,-9806.022374
839.067270,2146.597232,1184.329507,-9959.241474
839.067590,1628.453072,2516.700203,-9269.755526
839.067910,1332.370696,2664.741391,-9806.022374
839.068230,1110.308913,1628.453072,-10648.727422
839.068550,1258.350101,0.000000,-10648.727422
839.068870,666.185348,-1702.473667,-9959.241474
839.069190,962.267725,-1036.288319,-10112.460574
839.069510,148.041188,-148.041188,-10189.070123
839.069830,-444.123565,1776.494261,-9193.145976
839.070150,148.041188,2516.700203,-10189.070123
839.070470,962.267725,2516.700203,-10648.727422
839.070790,962.267725,1258.350101,-10572.117872
839.071110,1554.432478,0.000000,-10189.070123
839.071430,1406.391290,-1406.391290,-9959.241474
839.071751,0.000000,-444.123565,-10035.851024
839.072071,-1332.370696,-592.164754,-9882.631924
839.072391,296.082377,-962.267725,-9806.022374
839.072711,740.205942,-370.102971,-9806.022374
839.073031,-444.123565,-1258.350101,-10265.679673
839.073351,-814.226536,370.102971,-9806.022374
839.073671,-814.226536,1776.494261,-10418.898773
839.073991,592.164754,2738.761985,-10418.898773
839.074311,888.247130,1924.535449,-10418.898773
839.074631,444.123565,-592.164754,-9959.241474
839.074951,444.123565,-2220.617826,-9806.022374
839.075271,0.000000,-3182.885551,-9959.241474
839.075591,222.061783,-1628.453072,-9806.022374
839.075911,1628.453072,518.144159,-9806.022374
839.076231,1036.288319,1924.535449,-9882.631924
839.076551,-370.102971,1332.370696,-9882.631924
839.076871,-1480.411884,0.000000,-9729.412825
839.077191,-370.102971,-1332.370696,-9806.022374
839.077512,1406.391290,-1998.556043,-10189.070123
839.077832,1406.391290,-1776.494261,-10495.508323
839.078152,2294.638420,-814.226536,-10112.460574
839.078472,1628.453072,814.226536,-10342.289223
839.078792,-148.041188,2886.803174,-10878.556072
839.079112,-518.144159,3182.885551,-10342.289223
839.079432,74.020594,1702.473667,-10572.117872
839.079752,1258.350101,-740.205942,-10265.679673
839.080072,1998.556043,-2664.741391,-10418.898773
839.080392,962.267725,-3404.947333,-9806.022374
839.080712,296.082377,-2664.741391,-10112.460574
839.081032,0.000000,0.000000,-10035.851024
839.081352,0.000000,2072.576638,-9806.022374
839.081672,296.082377,2664.741391,-10265.679673
839.081992,1406.391290,1776.494261,-10112.460574
839.082312,1332.370696,-740.205942,-10648.727422
839.082632,370.102971,-2146.597232,-10265.679673
839.082953,-222.061783,-2886.803174,-9499.584175
839.083273,-148.041188,-2146.597232,-9882.631924
839.083593,0.000000,-518.144159,-10189.070123
839.083913,-592.164754,962.267725,-10189.070123
839.084233,-666.185348,1850.514855,-9806.022374
839.084553,0.000000,1628.453072,-10342.289223
839.084873,-592.164754,1480.411884,-10418.898773
839.085193,0.000000,1184.329507,-9806.022374
839.085513,222.061783,814.226536,-10112.460574
839.085833,-592.164754,222.061783,-9959.241474
839.086153,-518.144159,-518.144159,-9806.022374
839.086473,-370.102971,-518.144159,-9729.412825
839.086793,1036.288319,-296.082377,-9652.803275
839.087113,666.185348,740.205942,-10112.460574
839.087433,1184.329507,1184.329507,-9882.631924
839.087753,814.226536,1776.494261,-9959.241474
839.088073,444.123565,962.267725,-10342.289223
839.088393,518.144159,592.164754,-9882.631924
839.088714,-370.102971,-1110.308913,-9806.022374
839.089034,1258.350101,-1184.329507,-10035.851024
839.089354,2886.803174,74.020594,-9959.241474
839.089674,2664.741391,1776.494261,-10572.117872
839.089994,2738.761985,2590.720797,-10265.679673
839.090314,1480.411884,2960.823768,-10495.508323
839.090634,0.000000,2146.597232,-10418.898773
839.090954,74.020594,1110.308913,-9652.803275
839.091274,740.205942,0.000000,-9806.022374
839.091594,2294.638420,-962.267725,-10112.460574
839.091914,1924.535449,-222.061783,-10572.117872
839.092234,888.247130,740.205942,-10495.508323
839.092554,2516.700203,2294.638420,-9959.241474
839.092874,1850.514855,3404.947333,-10801.946522
839.093194,2146.597232,3108.864956,-10801.946522
839.093514,814.226536,2368.659014,-10265.679673
839.093834,1554.432478,1554.432478,-10648.727422
839.094155,370.102971,666.185348,-10418.898773
839.094475,518.144159,0.000000,-10189.070123
839.094795,740.205942,0.000000,-10112.460574
839.095115,-1184.329507,518.144159,-9806.022374
839.095435,-1924.535449,1036.288319,-10035.851024
839.095755,-2738.761985,814.226536,-9576.193725
839.096075,-888.247130,296.082377,-9882.631924
839.096395,0.000000,-592.164754,-10112.460574
839.096715,444.123565,-1258.350101,-9576.193725
839.097035,740.205942,-1406.391290,-9269.755526
839.097355,1702.473667,-1332.370696,-9576.193725
839.097675,1036.288319,-444.123565,-9729.412825
839.097995,74.020594,0.000000,-9499.584175
839.098315,888.247130,222.061783,-9652.803275
839.098635,962.267725,-222.061783,-9959.241474
839.098955,1036.288319,-1110.308913,-10189.070123
839.099275,-296.082377,-1110.308913,-9499.584175
839.099595,-666.185348,-222.061783,-10035.851024
839.099916,-296.082377,1110.308913,-9039.926876
839.100236,-1036.288319,592.164754,-10035.851024
839.100556,-518.144159,74.020594,-10035.851024
839.100876,1036.288319,-888.247130,-10189.070123
839.101196,888.247130,-1184.329507,-9269.755526
839.101516,592.164754,-592.164754,-10112.460574
839.101836,0.000000,888.247130,-10418.898773
839.102156,814.226536,2812.782580,-10878.556072
839.102476,592.164754,3108.864956,-10878.556072
839.102796,740.205942,2072.576638,-11338.213370
839.103116,666.185348,-518.144159,-10265.679673
839.103436,148.041188,-2220.617826,-10189.070123
839.103756,296.082377,-3108.864956,-9959.241474
839.104076,1554.432478,-1924.535449,-10725.336972
839.104396,1702.473667,-518.144159,-10418.898773
839.104716,-592.164754,666.185348,-10495.508323
839.105036,-1850.514855,518.144159,-10035.851024
839.105357,-1480.411884,222.061783,-9422.974625
839.105677,666.185348,0.000000,-10265.679673
839.105997,296.082377,-148.041188,-10265.679673
839.106317,0.000000,-1332.370696,-10112.460574
839.106637,1184.329507,-1924.535449,-10189.070123
839.106957,962.267725,-2146.597232,-10035.851024
839.107277,-1110.308913,-444.123565,-10035.851024
839.107597,-1036.288319,814.226536,-9806.022374
839.107917,-148.041188,2664.741391,-9882.631924
839.108237,814.226536,2368.659014,-10572.117872
839.108557,1258.350101,518.144159,-10112.460574
839.108877,518.144159,-1628.453072,-9882.631924
839.109197,-444.123565,-2072.576638,-9269.755526
839.109517,-370.102971,-1776.494261,-9422.974625
839.109837,0.000000,-222.061783,-9422.974625
839.110157,814.226536,296.082377,-9729.412825
839.110477,1628.453072,1406.391290,-9959.241474
839.110797,1184.329507,888.247130,-9806.022374
839.111118,1332.370696,1110.308913,-9806.022374
839.111438,1036.288319,1406.391290,-9959.241474
839.111758,592.164754,1110.308913,-10035.851024
839.112078,370.102971,1110.308913,-10189.070123
839.112398,-518.144159,0.000000,-9576.193725
839.112718,1776.494261,0.000000,-9959.241474
839.113038,1850.514855,148.041188,-10648.727422
839.113358,1258.350101,1406.391290,-10725.336972
839.113678,296.082377,3256.906145,-10648.727422
839.113998,-222.061783,4219.173869,-9652.803275
839.114318,222.061783,3997.112087,-10265.679673
839.114638,518.144159,2072.576638,-10265.679673
839.114958,2886.803174,-444.123565,-10725.336972
839.115278,3330.926739,-1998.556043,-10495.508323
839.115598,3404.947333,-592.164754,-11184.994271
839.115918,1480.411884,1036.288319,-10725.336972
839.116238,0.000000,3182.885551,-10725.336972
839.116558,-1036.288319,4515.256246,-10418.898773
839.116878,0.000000,3775.050304,-11797.870669
839.117198,1184.329507,2294.638420,-10265.679673
839.117518,1480.411884,0.000000,-10418.898773
839.117838,1702.473667,-1776.494261,-10189.070123
839.118158,2146.597232,-2368.659014,-8886.707777
839.118478,1628.453072,-1332.370696,-9652.803275
839.118798,370.102971,740.205942,-8810.098227
839.119118,-222.061783,1924.535449,-9422.974625
839.119439,0.000000,2590.720797,-9422.974625
839.119759,1184.329507,1184.329507,-9269.755526
839.120079,1406.391290,-592.164754,-9806.022374
839.120399,962.267725,-2146.597232,-9116.536426
839.120719,1480.411884,-1480.411884,-9193.145976
839.121039,1924.535449,370.102971,-9729.412825
839.121359,592.164754,1702.473667,-9652.803275
839.121679,-444.123565,2072.576638,-9652.803275
839.121999,1406.391290,148.041188,-9806.022374
839.122319,2590.720797,-1480.411884,-10035.851024
839.122639,2072.576638,-1998.556043,-9269.755526
839.122959,222.061783,-1110.308913,-10112.460574
839.123279,-592.164754,962.267725,-10725.336972
839.123599,-1332.370696,2590.720797,-10418.898773
839.123919,-2368.659014,2072.576638,-10495.508323
839.124239,-2146.597232,740.205942,-10342.289223
839.124559,0.000000,-1258.350101,-10878.556072
839.124879,370.102971,-2516.700203,-11031.775171
839.125199,-370.102971,-1998.556043,-10495.508323
839.125519,-1184.329507,0.000000,-9882.631924
839.125839,-1702.473667,2072.576638,-10418.898773
839.126159,-1406.391290,2220.617826,-11108.384721
839.126479,-148.041188,1776.494261,-10572.117872
839.126799,222.061783,444.123565,-11338.213370
839.127119,148.041188,-2146.597232,-10342.289223
839.127440,666.185348,-2664.741391,-9806.022374
839.127760,518.144159,-1554.432478,-10418.898773
839.128080,-592.164754,0.000000,-9729.412825
839.128400,-2368.659014,962.267725,-9882.631924
839.128720,-2294.638420,1628.453072,-9882.631924
839.129040,74.020594,0.000000,-9806.022374
839.129360,1702.473667,-888.247130,-9806.022374
839.129680,2442.679609,-2368.659014,-9729.412825
839.130000,814.226536,-1554.432478,-9116.536426
839.130320,370.102971,-1036.288319,-9499.584175
839.130640,-592.164754,-518.144159,-9269.755526
839.130960,-1110.308913,-444.123565,-9346.365076
839.131280,0.000000,-518.144159,-9346.365076
839.131600,1036.288319,-962.267725,-9729.412825
839.131920,2812.782580,0.000000,-10495.508323
839.132240,2812.782580,296.082377,-9806.022374
839.132560,2590.720797,1258.350101,-10418.898773
839.132880,296.082377,1110.308913,-10955.165621
839.133200,-444.123565,0.000000,-10495.508323
839.133520,-962.267725,0.000000,-9959.241474
839.133840,-518.144159,-888.247130,-10112.460574
839.134160,592.164754,0.000000,-10572.117872
839.134480,2072.576638,370.102971,-11031.775171
839.134800,1702.473667,2072.576638,-10572.117872
839.135120,370.102971,3478.967927,-10955.165621
839.135440,370.102971,4071.132681,-10572.117872
839.135761,296.082377,3404.947333,-10725.336972
839.136081,2072.576638,814.226536,-10265.679673
839.136401,2886.803174,-1184.329507,-10189.070123
839.136721,1628.453072,-2590.720797,-10035.851024
839.137041,1628.453072,-1110.308913,-9729.412825
839.137361,962.267725,1776.494261,-10189.070123
839.137681,518.144159,4515.256246,-10418.898773
839.138001,-592.164754,5181.441594,-10189.070123
839.138321,-222.061783,3701.029710,-11108.384721
839.138641,666.185348,666.185348,-10189.070123
839.138961,592.164754,-1480.411884,-9806.022374
839.139281,222.061783,-2368.659014,-9269.755526
839.139601,444.123565,-1480.411884,-9499.584175
839.139921,148.041188,666.185348,-9959.241474
839.140241,-592.164754,1850.514855,-9806.022374
839.140561,74.020594,1850.514855,-9652.803275
839.140881,518.144159,1036.288319,-9576.193725
839.141201,1332.370696,370.102971,-9729.412825
839.141521,814.226536,-1406.391290,-9499.584175
839.141841,592.164754,-1258.350101,-9269.755526
839.142161,296.082377,-296.082377,-9882.631924
839.142481,-222.061783,2220.617826,-9882.631924
839.142801,-1036.288319,2294.638420,-9806.022374
839.143121,0.000000,1776.494261,-10112.460574
839.143441,2368.659014,1110.308913,-10572.117872
839.143762,2664.741391,-74.020594,-10648.727422
839.144082,2294.638420,-666.185348,-10572.117872
839.144402,1036.288319,-592.164754,-10189.070123
839.144722,-740.205942,1036.288319,-10189.070123
839.145042,-1850.514855,888.247130,-10265.679673
839.145362,-814.226536,1184.329507,-9882.631924
839.145682,1406.391290,1184.329507,-10495.508323
839.146002,2368.659014,1258.350101,-10955.165621
839.146322,2294.638420,1332.370696,-11031.775171
839.146642,1850.514855,1184.329507,-10495.508323
839.146962,0.000000,962.267725,-10418.898773
839.147282,-592.164754,296.082377,-10572.117872
839.147602,-1332.370696,-296.082377,-10112.460574
839.147922,-370.102971,-740.205942,-9806.022374
839.148242,962.267725,-444.123565,-11568.042020
839.148562,1406.391290,0.000000,-11031.775171
839.148882,2072.576638,518.144159,-10342.289223
839.149202,1258.350101,1184.329507,-10572.117872
839.149522,740.205942,1258.350101,-9806.022374
839.149842,-148.041188,666.185348,-9806.022374
839.150162,74.020594,-888.247130,-9499.584175
839.150482,1406.391290,-2072.576638,-9499.584175
839.150802,962.267725,-3182.885551,-9806.022374
839.151122,2146.597232,-2960.823768,-8963.317327
839.151442,1332.370696,-1480.411884,-9806.022374
839.151762,148.041188,1406.391290,-10035.851024
839.152083,-1110.308913,2072.576638,-9576.193725
839.152403,-1110.308913,1258.350101,-9806.022374
839.152723,0.000000,-888.247130,-9806.022374
839.153043,814.226536,-3330.926739,-9959.241474
839.153363,1184.329507,-4441.235652,-9806.022374
839.153683,1110.308913,-3701.029710,-10112.460574
839.154003,74.020594,0.000000,-10418.898773
839.154323,-2072.576638,3034.844362,-10648.727422
839.154643,-2368.659014,4293.194464,-10648.727422
839.154963,-1776.494261,3478.967927,-10725.336972
839.155283,962.267725,740.205942,-10955.165621
839.155603,592.164754,-592.164754,-10801.946522
839.155923,592.164754,-1776.494261,-10112.460574
839.156243,148.041188,-1702.473667,-11031.775171
839.156563,-1184.329507,-222.061783,-10112.460574
839.156883,-1480.411884,148.041188,-10725.336972
839.157203,-592.164754,1406.391290,-10035.851024
839.157523,1480.411884,2072.576638,-10495.508323
839.157843,2220.617826,2072.576638,-11031.775171
839.158163,1998.556043,1332.370696,-9576.193725
839.158483,740.205942,0.000000,-10035.851024
839.158803,-740.205942,-962.267725,-9959.241474
839.159123,-1628.453072,-1110.308913,-9269.755526
839.159443,-1110.308913,-444.123565,-9193.145976
839.159763,1036.288319,222.061783,-8733.488677
839.160084,1924.535449,-148.041188,-9882.631924
839.160404,1924.535449,-814.226536,-9729.412825
839.160724,1628.453072,-444.123565,-9422.974625
839.161044,1110.308913,592.164754,-9116.536426
839.161364,-518.144159,2072.576638,-9729.412825
839.161684,-444.123565,2590.720797,-9576.193725
839.162004,1554.432478,2368.659014,-9959.241474
839.162324,2368.659014,740.205942,-10112.460574
839.162644,2664.741391,-444.123565,-9959.241474
839.162964,2664.741391,-1184.329507,-10265.679673
839.163284,1998.556043,592.164754,-10189.070123
839.163604,592.164754,2072.576638,-10265.679673
839.163924,-370.102971,2442.679609,-10572.117872
839.164244,592.164754,1480.411884,-9959.241474
839.164564,2368.659014,0.000000,-10342.289223
839.164884,2368.659014,-666.185348,-10418.898773
839.165204,1998.556043,-518.144159,-10265.679673
839.165524,1924.535449,592.164754,-10495.508323
839.165844,1184.329507,1554.432478,-10495.508323
839.166164,148.041188,2146.597232,-10342.289223
839.166484,-814.226536,1998.556043,-10265.679673
839.166804,0.000000,1258.350101,-10495.508323
839.167124,1480.411884,222.061783,-10955.165621
839.167444,962.267725,-962.267725,-10725.336972
839.167764,0.000000,-370.102971,-9729.412825
839.168084,-962.267725,1110.308913,-10725.336972
839.168405,-1184.329507,1924.535449,-9806.022374
839.168725,-888.247130,2072.576638,-10955.165621
839.169045,-222.061783,1702.473667,-9806.022374
839.169365,1480.411884,74.020594,-9652.803275
839.169685,2738.761985,-814.226536,-10342.289223
839.170005,3256.906145,-888.247130,-9652.803275
839.170325,2146.597232,-740.205942,-9959.241474
839.170645,0.000000,-296.082377,-9806.022374
839.170965,-1406.391290,1110.308913,-9499.584175
839.171285,-2442.679609,592.164754,-9193.145976
839.171605,-1998.556043,0.000000,-9269.755526
839.171925,-1258.350101,-370.102971,-9882.631924
839.172245,-222.061783,-1702.473667,-9806.022374
839.172565,222.061783,-1702.473667,-9729.412825
839.172885,-148.041188,-1628.453072,-9652.803275
839.173205,-1036.288319,0.000000,-9806.022374
839.173525,0.000000,1036.288319,-9882.631924
839.173845,1036.288319,2072.576638,-9882.631924
839.174165,2516.700203,370.102971,-10572.117872
839.174485,2146.597232,-1480.411884,-10648.727422
839.174805,1036.288319,-2146.597232,-10189.070123
839.175125,-222.061783,-296.082377,-10495.508323
839.175445,-1406.391290,2368.659014,-10418.898773
839.175765,-1184.329507,3627.009116,-10725.336972
839.176085,-740.205942,2886.803174,-10878.556072
839.176405,1110.308913,518.144159,-10418.898773
839.176726,1480.411884,-1924.535449,-10495.508323
839.177046,1406.391290,-3108.864956,-10418.898773
839.177366,740.205942,-2368.659014,-10035.851024
839.177686,-814.226536,-222.061783,-10495.508323
839.178006,-1332.370696,2368.659014,-10265.679673
839.178326,-888.247130,2812.782580,-10189.070123
839.178646,592.164754,2590.720797,-10955.165621
839.178966,666.185348,962.267725,-10648.727422
839.179286,962.267725,-962.267725,-10418.898773
839.179606,1184.329507,-1850.514855,-9959.241474
839.179926,740.205942,-814.226536,-9959.241474
839.180246,1406.391290,888.247130,-10189.070123
839.180566,222.061783,1998.556043,-10342.289223
839.180886,1258.350101,2146.597232,-9652.803275
839.181206,518.144159,1332.370696,-10112.460574
839.181526,962.267725,-74.020594,-9652.803275
839.181846,740.205942,-962.267725,-9422.974625
839.182166,1628.453072,-740.205942,-9806.022374
839.182486,1480.411884,518.144159,-9499.584175
839.182806,1628.453072,592.164754,-10112.460574
839.183126,1258.350101,666.185348,-9652.803275
839.183446,962.267725,740.205942,-9346.365076
839.183766,1036.288319,74.020594,-9729.412825
839.184086,1258.350101,-592.164754,-9576.193725
839.184406,2442.679609,-1036.288319,-9729.412825
839.184727,1554.432478,-222.061783,-9729.412825
839.185047,444.123565,0.000000,-10112.460574
839.185367,666.185348,-518.144159,-9882.631924
839.185687,888.247130,222.061783,-10189.070123
839.186007,518.144159,74.020594,-10342.289223
839.186327,444.123565,370.102971,-9652.803275
839.186647,-222.061783,296.082377,-10265.679673
839.186967,-148.041188,1258.350101,-10418.898773
839.187287,-518.144159,1406.391290,-10955.165621
839.187607,-1184.329507,592.164754,-10265.679673
839.187927,-444.123565,444.123565,-10342.289223
839.188247,1628.453072,0.000000,-11031.775171
839.188567,1702.473667,-740.205942,-10878.556072
839.188887,740.205942,-1036.288319,-10342.289223
839.189207,-1184.329507,0.000000,-10725.336972
839.189527,-1850.514855,888.247130,-9959.241474
839.189847,-1998.556043,1406.391290,-10265.679673
839.190167,-962.267725,1184.329507,-10112.460574
839.190487,370.102971,296.082377,-10495.508323
839.190807,1184.329507,-814.226536,-10495.508323
839.191127,74.020594,-1850.514855,-9422.974625
839.191447,-518.144159,-1702.473667,-9806.022374
839.191767,-666.185348,-592.164754,-9882.631924
839.192087,0.000000,0.000000,-10035.851024
839.192407,888.247130,296.082377,-11031.775171
839.192727,1036.288319,814.226536,-9652.803275
839.193048,1998.556043,666.185348,-10342.289223
839.193368,3108.864956,0.000000,-10189.070123
839.193688,2960.823768,-518.144159,-9346.365076
839.194008,1554.432478,-1258.350101,-10035.851024
839.194328,74.020594,-592.164754,-9576.193725
839.194648,-888.247130,74.020594,-9806.022374
839.194968,-370.102971,814.226536,-9576.193725
839.195288,1258.350101,740.205942,-9499.584175
839.195608,1924.535449,370.102971,-10572.117872
839.195928,1850.514855,-962.267725,-10035.851024
839.196248,1776.494261,-740.205942,-9959.241474
839.196568,296.082377,518.144159,-10035.851024
839.196888,74.020594,2146.597232,-10342.289223
839.197208,962.267725,2072.576638,-10189.070123
839.197528,2738.761985,962.267725,-10572.117872
839.197848,2812.782580,222.061783,-10495.508323
839.198168,2368.659014,74.020594,-10418.898773
839.198488,1406.391290,370.102971,-10418.898773
839.198808,74.020594,2146.597232,-10342.289223
839.199128,296.082377,2442.679609,-10648.727422
839.199448,0.000000,1480.411884,-10035.851024
839.199768,-370.102971,148.041188,-10189.070123
839.200088,-518.144159,-666.185348,-10418.898773
839.200408,-296.082377,-1184.329507,-10189.070123
839.200728,222.061783,-592.164754,-10342.289223
839.201049,148.041188,74.020594,-10112.460574
839.201369,-888.247130,962.267725,-10418.898773
839.201689,-2220.617826,740.205942,-9959.241474
839.202009,-2146.597232,666.185348,-9959.241474
839.202329,-1184.329507,592.164754,-11108.384721
839.202649,-888.247130,296.082377,-10418.898773
839.202969,-1036.288319,74.020594,-9806.022374
839.203289,74.020594,222.061783,-9959.241474
839.203609,222.061783,1258.350101,-9882.631924
839.203929,-444.123565,1332.370696,-10495.508323
839.204249,-222.061783,666.185348,-9729.412825
839.204569,518.144159,-222.061783,-10112.460574
839.204889,1184.329507,-888.247130,-9882.631924
839.205209,1924.535449,-1480.411884,-9422.974625
839.205529,1628.453072,-888.247130,-9652.803275
839.205849,74.020594,814.226536,-9806.022374
839.206169,-2072.576638,2590.720797,-9806.022374
839.206489,-1702.473667,2368.659014,-9499.584175
839.206809,740.205942,1184.329507,-9729.412825
839.207129,3182.885551,-518.144159,-10265.679673
839.207449,3552.988522,-1924.535449,-9806.022374
839.207769,2664.741391,-1924.535449,-9729.412825
839.208089,2072.576638,148.041188,-10112.460574
839.208409,1110.308913,1776.494261,-10112.460574
839.208729,592.164754,3182.885551,-10572.117872
839.209049,1924.535449,3108.864956,-10035.851024
839.209370,3034.844362,2072.576638,-10572.117872
839.209690,3108.864956,0.000000,-10418.898773
839.209955,1702.473667,-1628.453072,-10189.070123
839.210275,518.144159,-1776.494261,-9806.022374
839.210595,-592.164754,-592.164754,-10112.460574
839.210915,-444.123565,666.185348,-10112.460574
839.211235,296.082377,1406.391290,-10112.460574
839.211555,1776.494261,2294.638420,-10955.165621
839.211875,2516.700203,1554.432478,-10572.117872
839.212196,2294.638420,444.123565,-11031.775171
839.212516,1702.473667,-518.144159,-10189.070123
839.212836,444.123565,-962.267725,-10189.070123
839.213156,148.041188,-962.267725,-9959.241474
839.213476,-222.061783,-888.247130,-10112.460574
839.213796,74.020594,-814.226536,-9882.631924
839.214116,0.000000,-296.082377,-9882.631924
839.214436,-296.082377,74.020594,-10035.851024
839.214756,-148.041188,444.123565,-9882.631924
839.215076,222.061783,888.247130,-8886.707777
839.215396,-592.164754,888.247130,-9882.631924
839.215717,-888.247130,-222.061783,-10112.460574
839.216037,-666.185348,-1480.411884,-9652.803275
839.216357,444.123565,-2072.576638,-9959.241474
839.216677,0.000000,-1480.411884,-9729.412825
839.216997,74.020594,-370.102971,-9882.631924
839.217317,370.102971,888.247130,-9882.631924
839.217637,1184.329507,2368.659014,-10572.117872
839.217957,1110.308913,2146.597232,-11797.870669
839.218277,666.185348,296.082377,-9729.412825
839.218597,1258.350101,-1480.411884,-9882.631924
839.218917,1184.329507,-2590.720797,-10035.851024
839.219238,1110.308913,-2886.803174,-9729.412825
839.219558,740.205942,-1480.411884,-10265.679673
839.219878,-592.164754,222.061783,-9959.241474
839.220198,-1554.432478,2294.638420,-10725.336972
839.220518,-592.164754,3182.885551,-10878.556072
839.220838,-222.061783,2664.741391,-10112.460574
839.221158,148.041188,1480.411884,-10725.336972
839.221478,-740.205942,296.082377,-10189.070123
839.221798,370.102971,-888.247130,-10112.460574
839.222118,888.247130,-148.041188,-10189.070123
839.222438,518.144159,592.164754,-10418.898773
839.222759,0.000000,1850.514855,-10189.070123
839.223079,-740.205942,2146.597232,-10189.070123
839.223399,370.102971,2590.720797,-10265.679673
839.223719,888.247130,2368.659014,-10342.289223
839.224039,370.102971,1850.514855,-10495.508323
839.224359,-296.082377,1110.308913,-9806.022374
839.224679,-1406.391290,814.226536,-10112.460574
839.224999,-1406.391290,222.061783,-9652.803275
839.225319,-1110.308913,0.000000,-9039.926876
839.225639,148.041188,296.082377,-9729.412825
839.225959,444.123565,444.123565,-9729.412825
839.226280,1776.494261,1110.308913,-10112.460574
839.226600,2590.720797,1480.411884,-10035.851024
839.226920,2516.700203,1850.514855,-10112.460574
839.227240,0.000000,1924.535449,-9959.241474
839.227560,-1702.473667,740.205942,-9422.974625
839.227880,-592.164754,-592.164754,-9729.412825
839.228200,1480.411884,-444.123565,-9499.584175
839.228520,2812.782580,0.000000,-10112.460574
839.228840,4071.132681,1628.453072,-9882.631924
839.229160,4071.132681,3034.844362,-10495.508323
839.229480,3256.906145,4071.132681,-10572.117872
839.229801,2738.761985,2886.803174,-10265.679673
839.230121,1924.535449,962.267725,-9882.631924
839.230441,1184.329507,-1184.329507,-9959.241474
839.230761,1480.411884,-1850.514855,-9729.412825
839.231081,1998.556043,-1480.411884,-9882.631924
839.231401,1850.514855,-370.102971,-10112.460574
839.231721,1406.391290,1554.432478,-10801.946522
839.232041,0.000000,2516.700203,-10801.946522
839.232361,518.144159,1850.514855,-9959.241474
839.232681,1110.308913,370.102971,-9959.241474
839.233001,444.123565,-1480.411884,-10342.289223
839.233322,148.041188,-3701.029710,-9882.631924
839.233642,666.185348,-2960.823768,-9806.022374
839.233962,2368.659014,-2368.659014,-9959.241474
839.234282,1184.329507,-518.144159,-10265.679673
839.234602,-1332.370696,0.000000,-10648.727422
839.234922,-2294.638420,-222.061783,-10189.070123
839.235242,-592.164754,592.164754,-9806.022374
839.235562,296.082377,-666.185348,-10801.946522
839.235882,222.061783,-1258.350101,-10035.851024
839.236202,-1036.288319,-2442.679609,-10801.946522
839.236522,-1110.308913,-2368.659014,-9729.412825
839.236843,-2664.741391,-1924.535449,-9959.241474
839.237163,-2072.576638,-1258.350101,-9652.803275
839.237483,-1110.308913,-370.102971,-10342.289223
839.237803,-296.082377,-1036.288319,-10342.289223
839.238123,-222.061783,-1110.308913,-10112.460574
839.238443,0.000000,-1554.432478,-10265.679673
839.238763,-1332.370696,-370.102971,-10418.898773
839.239083,-2516.700203,0.000000,-10342.289223
839.239403,-3034.844362,0.000000,-9959.241474
839.239723,-666.185348,-1184.329507,-10035.851024
839.240043,2516.700203,-1850.514855,-10265.679673
839.240364,2516.700203,-2442.679609,-10342.289223
839.240684,1036.288319,-1628.453072,-10265.679673
839.241004,888.247130,-592.164754,-10189.070123
839.241324,518.144159,1332.370696,-10035.851024
839.241644,148.041188,1776.494261,-10648.727422
839.241964,0.000000,148.041188,-9729.412825
839.242284,888.247130,-1036.288319,-10189.070123
839.242604,1628.453072,-1998.556043,-9882.631924
839.242924,1702.473667,-888.247130,-10035.851024
839.243244,740.205942,296.082377,-9806.022374
839.243564,1332.370696,1554.432478,-9959.241474
839.243885,740.205942,1554.432478,-9882.631924
839.244205,1110.308913,814.226536,-10035.851024
839.244525,1628.453072,-296.082377,-10342.289223
839.244845,1480.411884,0.000000,-10648.727422
839.245165,1332.370696,1554.432478,-10572.117872
839.245485,1110.308913,3108.864956,-10035.851024
839.245805,888.247130,4219.173869,-10801.946522
839.246125,370.102971,3256.906145,-10265.679673
839.246445,0.000000,1258.350101,-10035.851024
839.246765,518.144159,-592.164754,-10265.679673
839.247085,1776.494261,-1406.391290,-9882.631924
839.247406,962.267725,-1332.370696,-9882.631924
839.247726,444.123565,-888.247130,-9499.584175
839.248046,-370.102971,222.061783,-9576.193725
839.248366,0.000000,2294.638420,-10112.460574
839.248686,-1554.432478,3034.844362,-9959.241474
839.249006,-1184.329507,3034.844362,-9806.022374
839.249326,1628.453072,1480.411884,-10112.460574
839.249646,2590.720797,518.144159,-10112.460574
839.249966,2368.659014,-740.205942,-10265.679673
839.250286,74.020594,0.000000,-9652.803275
839.250606,-592.164754,1554.432478,-10112.460574
839.250927,0.000000,3552.988522,-10878.556072
839.251247,148.041188,4219.173869,-10342.289223
839.251567,1258.350101,3997.112087,-10495.508323
839.251887,1480.411884,2368.659014,-10342.289223
839.252207,1332.370696,1110.308913,-10189.070123
839.252527,1258.350101,592.164754,-9882.631924
839.252847,-518.144159,1776.494261,-10112.460574
839.253167,-1406.391290,1702.473667,-10189.070123
839.253487,-1110.308913,2220.617826,-9806.022374
839.253807,814.226536,1184.329507,-10035.851024
839.254127,1480.411884,962.267725,-9959.241474
839.254448,888.247130,740.205942,-10035.851024
839.254768,1036.288319,518.144159,-9729.412825
839.255088,2146.597232,518.144159,-9729.412825
839.255408,1332.370696,518.144159,-10035.851024
839.255728,-222.061783,0.000000,-9806.022374
839.256048,-1036.288319,-1184.329507,-9499.584175
839.256368,1554.432478,-962.267725,-9193.145976
839.256688,1184.329507,296.082377,-10265.679673
839.257008,1258.350101,518.144159,-9652.803275
839.257328,370.102971,592.164754,-10112.460574
839.257648,148.041188,444.123565,-10189.070123
839.257969,-888.247130,-666.185348,-9959.241474
839.258289,-1480.411884,-1036.288319,-9882.631924
839.258609,-370.102971,-1258.350101,-9652.803275
839.258929,74.020594,-1184.329507,-10189.070123
839.259249,370.102971,-1480.411884,-9882.631924
839.259569,296.082377,-1554.432478,-9806.022374
839.259889,0.000000,-962.267725,-10418.898773
839.260209,740.205942,296.082377,-10648.727422
839.260529,74.020594,1258.350101,-10648.727422
839.260849,1184.329507,888.247130,-9806.022374
839.261169,1998.556043,-666.185348,-10265.679673
839.261490,2072.576638,-2368.659014,-10265.679673
839.261810,1110.308913,-3256.906145,-10035.851024
839.262130,1110.308913,-2368.659014,-9882.631924
839.262450,1628.453072,-444.123565,-10189.070123
839.262770,888.247130,962.267725,-10495.508323
839.263090,0.000000,518.144159,-10572.117872
839.263410,-222.061783,-592.164754,-10189.070123
839.263730,444.123565,-1776.494261,-10189.070123
839.264050,370.102971,-1998.556043,-10418.898773
839.264370,1110.308913,-1554.432478,-9882.631924
839.264690,1406.391290,-592.164754,-10572.117872
839.265011,370.102971,296.082377,-10265.679673
839.265331,1406.391290,0.000000,-10112.460574
839.265651,1332.370696,-222.061783,-10265.679673
839.265971,1480.411884,-518.144159,-10418.898773
839.266291,1110.308913,-592.164754,-10572.117872
839.266611,1998.556043,-962.267725,-9729.412825
839.266931,1776.494261,-1258.350101,-9806.022374
839.267251,666.185348,-814.226536,-9959.241474
839.267571,-1480.411884,-148.041188,-10035.851024
839.267891,-1480.411884,814.226536,-10112.460574
839.268211,-740.205942,1184.329507,-10112.460574
839.268532,-962.267725,814.226536,-9882.631924
839.268852,-666.185348,-444.123565,-9959.241474
839.269172,444.123565,-1258.350101,-9346.365076
839.269492,148.041188,518.144159,-9806.022374
839.269812,-1184.329507,1332.370696,-10112.460574
839.270132,-962.267725,1998.556043,-10035.851024
839.270452,444.123565,814.226536,-9806.022374
839.270772,296.082377,444.123565,-9499.584175
839.271092,0.000000,444.123565,-10189.070123
839.271412,-222.061783,222.061783,-10035.851024
839.271732,370.102971,1036.288319,-10265.679673
839.272053,296.082377,2146.597232,-10112.460574
839.272373,-518.144159,2146.597232,-10112.460574
839.272693,-1110.308913,1850.514855,-9882.631924
839.273013,-370.102971,148.041188,-10189.070123
839.273333,148.041188,-296.082377,-10572.117872
839.273653,814.226536,74.020594,-10265.679673
839.273973,370.102971,1924.535449,-10648.727422
839.274293,-296.082377,3330.926739,-10265.679673
839.274613,-962.267725,4145.153275,-10189.070123
839.274933,-1110.308913,3404.947333,-9806.022374
839.275253,1332.370696,2146.597232,-10265.679673
839.275574,2886.803174,888.247130,-10572.117872
839.275894,2812.782580,518.144159,-10265.679673
839.276214,2886.803174,1702.473667,-10418.898773
839.276534,2146.597232,3552.988522,-10648.727422
839.276854,0.000000,3034.844362,-9806.022374
839.277174,-1480.411884,2738.761985,-9806.022374
839.277494,518.144159,2442.679609,-9576.193725
839.277814,2516.700203,2368.659014,-11108.384721
839.278134,2590.720797,1332.370696,-10418.898773
839.278454,2516.700203,74.020594,-9806.022374
839.278774,2368.659014,0.000000,-9806.022374
839.279095,1776.494261,0.000000,-9499.584175
839.279415,740.205942,370.102971,-9499.584175
839.279735,370.102971,74.020594,-9499.584175
839.280055,962.267725,444.123565,-9576.193725
839.280375,1702.473667,0.000000,-9729.412825
839.280695,2664.741391,-1406.391290,-9193.145976
839.281015,2368.659014,-1036.288319,-10035.851024
839.281335,1480.411884,-888.247130,-10112.460574
839.281655,-370.102971,-222.061783,-9882.631924
839.281975,-518.144159,296.082377,-10112.460574
839.282295,592.164754,888.247130,-10342.289223
839.282616,-222.061783,518.144159,-10342.289223
839.282936,-444.123565,370.102971,-10572.117872
839.283256,296.082377,222.061783,-10495.508323
839.283576,888.247130,-222.061783,-10955.165621
839.283896,-888.247130,-814.226536,-10189.070123
839.284216,-1998.556043,-1850.514855,-9882.631924
839.284536,-814.226536,-1998.556043,-10189.070123
839.284856,296.082377,-1702.473667,-10648.727422
839.285176,-518.144159,-962.267725,-10418.898773
839.285496,-1184.329507,-518.144159,-10418.898773
839.285816,-1036.288319,-222.061783,-10342.289223
839.286137,-962.267725,0.000000,-10495.508323
839.286457,-370.102971,-1036.288319,-10342.289223
839.286777,222.061783,-2368.659014,-10112.460574
839.287097,1628.453072,-2442.679609,-10572.117872
839.287417,1480.411884,-2442.679609,-10648.727422
839.287737,222.061783,-1406.391290,-10112.460574
839.288057,0.000000,-148.041188,-10189.070123
839.288377,296.082377,1036.288319,-10342.289223
839.288697,-740.205942,1480.411884,-10112.460574
839.289017,-1036.288319,0.000000,-10035.851024
839.289337,1776.494261,-2220.617826,-10265.679673
839.289658,1924.535449,-2516.700203,-9882.631924
839.289978,2664.741391,-3108.864956,-10189.070123
839.290298,2146.597232,-2368.659014,-9652.803275
839.290618,222.061783,148.041188,-9882.631924
839.290938,-962.267725,1184.329507,-9882.631924
839.291258,-592.164754,2220.617826,-9882.631924
839.291578,740.205942,1998.556043,-10035.851024
839.291898,1258.350101,518.144159,-10495.508323
839.292218,1480.411884,-962.267725,-10265.679673
839.292538,444.123565,-1628.453072,-10112.460574
839.292858,518.144159,-1332.370696,-9959.241474
839.293179,148.041188,222.061783,-10265.679673
839.293499,-1258.350101,1184.329507,-9882.631924
839.293819,-666.185348,1184.329507,-9729.412825
839.294139,148.041188,666.185348,-10035.851024
839.294459,1480.411884,-444.123565,-9959.241474
839.294779,1258.350101,-740.205942,-10265.679673
839.295099,1406.391290,74.020594,-10035.851024
839.295419,888.247130,814.226536,-10418.898773
839.295739,148.041188,1406.391290,-10495.508323
839.296059,-444.123565,1480.411884,-9806.022374
839.296379,-1258.350101,1850.514855,-10265.679673
839.296700,-814.226536,2294.638420,-10648.727422
839.297020,148.041188,1998.556043,-10572.117872
839.297340,1110.308913,1702.473667,-10189.070123
839.297660,444.123565,1258.350101,-10265.679673
839.297980,-740.205942,814.226536,-9882.631924
839.298300,-296.082377,296.082377,-10189.070123
839.298620,592.164754,1258.350101,-9729.412825
839.298940,1554.432478,3330.926739,-10265.679673
839.299260,1036.288319,3997.112087,-9729.412825
839.299580,1406.391290,3256.906145,-9806.022374
839.299900,2072.576638,2294.638420,-9882.631924
839.300221,1258.350101,1628.453072,-9959.241474
839.300541,-370.102971,1406.391290,-9499.584175
839.300861,370.102971,740.205942,-9729.412825
839.301181,2220.617826,518.144159,-9576.193725
839.301501,2812.782580,888.247130,-9729.412825
839.301821,2664.741391,1036.288319,-9652.803275
839.302141,1554.432478,1924.535449,-9806.022374
839.302461,1184.329507,2220.617826,-10112.460574
839.302781,518.144159,2812.782580,-9806.022374
839.303101,222.061783,1924.535449,-9729.412825
839.303421,962.267725,1036.288319,-9729.412825
839.303742,1480.411884,-518.144159,-10035.851024
839.304062,1776.494261,-518.144159,-10112.460574
839.304382,518.144159,-296.082377,-10112.460574
839.304702,1184.329507,1036.288319,-10265.679673
839.305022,444.123565,2886.803174,-10265.679673
839.305342,-1850.514855,2368.659014,-9959.241474
839.305662,-1110.308913,1184.329507,-9806.022374
839.305982,1998.556043,-296.082377,-10495.508323
839.306302,1998.556043,-2072.576638,-10265.679673
839.306622,-74.020594,-1998.556043,-10189.070123
839.306942,-370.102971,-370.102971,-9959.241474
839.307263,222.061783,1184.329507,-10265.679673
839.307583,444.123565,2220.617826,-10342.289223
839.307903,74.020594,1776.494261,-10725.336972
839.308223,1406.391290,592.164754,-10189.070123
839.308543,1776.494261,-444.123565,-10495.508323
839.308863,1184.329507,-1258.350101,-10342.289223
839.309183,-518.144159,-1850.514855,-9346.365076
839.309503,-1258.350101,-1628.453072,-9882.631924
839.309823,-1258.350101,-1628.453072,-9959.241474
839.310144,-814.226536,-740.205942,-9806.022374
839.310464,-370.102971,370.102971,-10342.289223
839.310784,444.123565,814.226536,-10572.117872
839.311104,1258.350101,0.000000,-10801.946522
839.311424,1850.514855,-888.247130,-10342.289223
839.311744,1924.535449,-1184.329507,-10112.460574
839.312064,740.205942,-1332.370696,-11568.042020
839.312384,-592.164754,-814.226536,-10265.679673
839.312705,-296.082377,-1110.308913,-9959.241474
839.313025,1480.411884,-814.226536,-10112.460574
839.313345,1110.308913,-592.164754,-10265.679673
839.313665,74.020594,-962.267725,-10112.460574
839.313985,-370.102971,-666.185348,-10342.289223
839.314305,0.000000,0.000000,-10265.679673
839.314625,-444.123565,74.020594,-10648.727422
839.314945,-296.082377,-1332.370696,-9806.022374
839.315266,518.144159,-1776.494261,-10189.070123
839.315586,1258.350101,-2146.597232,-10035.851024
839.315906,444.123565,-1776.494261,-10112.460574
839.316226,-370.102971,222.061783,-9576.193725
839.316546,0.000000,444.123565,-10112.460574
839.316866,-222.061783,370.102971,-10189.070123
839.317186,74.020594,0.000000,-10112.460574
839.317507,0.000000,-888.247130,-9959.241474
839.317827,-296.082377,-222.061783,-10189.070123
839.318147,-666.185348,740.205942,-10265.679673
839.318467,-1036.288319,814.226536,-10189.070123
839.318787,-592.164754,740.205942,-10189.070123
839.319107,0.000000,888.247130,-9959.241474
839.319427,-1850.514855,-592.164754,-10035.851024
839.319747,-1184.329507,-1184.329507,-9882.631924
839.320068,1258.350101,-296.082377,-10189.070123
839.320388,666.185348,0.000000,-10418.898773
839.320708,296.082377,1332.370696,-9806.022374
839.321028,-518.144159,1628.453072,-9652.803275
839.321348,-518.144159,1332.370696,-10112.460574
839.321668,666.185348,1332.370696,-10342.289223
839.321988,814.226536,370.102971,-9959.241474
839.322308,2294.638420,592.164754,-9729.412825
839.322629,3775.050304,740.205942,-10035.851024
839.322949,2812.782580,962.267725,-10265.679673
839.323269,1776.494261,296.082377,-9959.241474
839.323589,1554.432478,888.247130,-9882.631924
839.323909,148.041188,1258.350101,-10035.851024
839.324229,-1110.308913,1554.432478,-9576.193725
839.324549,370.102971,1406.391290,-9729.412825
839.324870,2368.659014,1554.432478,-9652.803275
839.325190,2516.700203,1184.329507,-10189.070123
839.325510,2146.597232,1480.411884,-9959.241474
839.325830,1480.411884,962.267725,-10112.460574
839.326150,814.226536,1776.494261,-9806.022374
839.326470,296.082377,2072.576638,-9806.022374
839.326790,962.267725,1110.308913,-10418.898773
839.327110,1406.391290,518.144159,-10035.851024
839.327431,1628.453072,-444.123565,-10572.117872
839.327751,666.185348,148.041188,-11644.651570
839.328071,222.061783,1110.308913,-9806.022374
839.328391,592.164754,2590.720797,-10495.508323
839.328711,148.041188,2664.741391,-10495.508323
839.329031,148.041188,888.247130,-10265.679673
839.329351,1258.350101,-444.123565,-10572.117872
839.329672,444.123565,-1332.370696,-10035.851024
839.329992,-814.226536,-888.247130,-9729.412825
839.330312,-962.267725,814.226536,-9652.803275
839.330632,0.000000,1184.329507,-10265.679673
839.330952,-740.205942,1702.473667,-10342.289223
839.331272,-592.164754,222.061783,-9422.974625
839.331592,-370.102971,-1184.329507,-9576.193725
839.331912,1702.473667,-1998.556043,-9499.584175
839.332233,1184.329507,-2368.659014,-9806.022374
839.332553,0.000000,-814.226536,-9806.022374
839.332873,-222.061783,740.205942,-9959.241474
839.333193,74.020594,1184.329507,-10572.117872
839.333513,296.082377,1184.329507,-10495.508323
839.333833,1258.350101,-296.082377,-10112.460574
839.334153,2812.782580,-740.205942,-10189.070123
839.334473,2960.823768,-814.226536,-10878.556072
839.334794,1406.391290,0.000000,-10418.898773
839.335114,0.000000,222.061783,-10342.289223
839.335434,-370.102971,1036.288319,-10418.898773
839.335754,-666.185348,1184.329507,-10265.679673
839.336074,-666.185348,962.267725,-10189.070123
839.336394,518.144159,148.041188,-10342.289223
839.336714,1924.535449,0.000000,-10189.070123
839.337035,2220.617826,-962.267725,-10495.508323
839.337355,2294.638420,-962.267725,-9806.022374
839.337675,2146.597232,-518.144159,-10112.460574
839.337995,-592.164754,1258.350101,-10265.679673
839.338315,-1480.411884,1924.535449,-10495.508323
839.338635,-222.061783,1628.453072,-10265.679673
839.338955,1776.494261,296.082377,-10035.851024
839.339275,2294.638420,-962.267725,-10265.679673
839.339596,888.247130,-1036.288319,-9806.022374
839.339916,518.144159,-222.061783,-10035.851024
839.340236,-740.205942,666.185348,-10035.851024
839.340556,-296.082377,444.123565,-8810.098227
839.340876,-962.267725,-740.205942,-9652.803275
839.341196,-296.082377,-2294.638420,-9729.412825
839.341516,-592.164754,-2072.576638,-9652.803275
839.341836,-370.102971,-888.247130,-9806.022374
839.342157,222.061783,592.164754,-9576.193725
839.342477,518.144159,2072.576638,-10265.679673
839.342797,74.020594,1332.370696,-10189.070123
839.343117,-370.102971,-592.164754,-10342.289223
839.343437,296.082377,-740.205942,-9499.584175
839.343757,148.041188,-2146.597232,-10035.851024
839.344077,-222.061783,-962.267725,-9806.022374
839.344398,-222.061783,814.226536,-10035.851024
839.344718,592.164754,3108.864956,-11108.384721
839.345038,74.020594,3182.885551,-10955.165621
839.345358,-1184.329507,1184.329507,-10495.508323
839.345678,-740.205942,-444.123565,-10035.851024
839.345998,370.102971,-1480.411884,-10265.679673
839.346318,148.041188,0.000000,-10035.851024
839.346638,888.247130,0.000000,-10189.070123
839.346959,1258.350101,1110.308913,-10725.336972
839.347279,1110.308913,2220.617826,-10265.679673
839.347599,1036.288319,1998.556043,-10035.851024
839.347919,888.247130,2368.659014,-10265.679673
839.348239,1480.411884,1258.350101,-10418.898773
839.348559,1924.535449,370.102971,-10189.070123
839.348879,1998.556043,-888.247130,-10189.070123
839.349199,1480.411884,-444.123565,-10265.679673
839.349520,1036.288319,1258.350101,-10725.336972
839.349840,-592.164754,2590.720797,-10112.460574
839.350160,-1702.473667,2960.823768,-9882.631924
839.350480,-592.164754,2220.617826,-10035.851024
839.350800,2442.679609,-370.102971,-10189.070123
839.351120,3256.906145,-2664.741391,-10112.460574
839.351440,1998.556043,-2368.659014,-9806.022374
839.351761,1554.432478,-592.164754,-10112.460574
839.352081,1110.308913,1776.494261,-9882.631924
839.352401,0.000000,2516.700203,-9806.022374
839.352721,-1184.329507,2146.597232,-9269.755526
839.353041,592.164754,296.082377,-9959.241474
839.353361,2442.679609,-740.205942,-10495.508323
839.353681,2590.720797,-1258.350101,-10035.851024
839.354001,592.164754,-1480.411884,-9729.412825
839.354322,-592.164754,-518.144159,-9806.022374
839.354642,-1628.453072,-370.102971,-9806.022374
839.354962,-2146.597232,222.061783,-10112.460574
839.355282,-1110.308913,444.123565,-9729.412825
839.355602,518.144159,370.102971,-10495.508323
839.355922,2220.617826,74.020594,-10495.508323
839.356242,2368.659014,-888.247130,-9806.022374
839.356562,1036.288319,222.061783,-10495.508323
839.356883,74.020594,1998.556043,-10189.070123
839.357203,-1110.308913,2368.659014,-10342.289223
839.357523,-740.205942,148.041188,-10189.070123
839.357843,592.164754,-2072.576638,-9959.241474
839.358163,518.144159,-2368.659014,-10189.070123
839.358483,518.144159,-1850.514855,-10112.460574
839.358803,222.061783,444.123565,-10265.679673
839.359124,-296.082377,2368.659014,-10418.898773
839.359444,0.000000,3552.988522,-10342.289223
839.359764,444.123565,2368.659014,-10495.508323
839.360084,1628.453072,-74.020594,-10035.851024
839.360404,1702.473667,-2664.741391,-10189.070123
839.360724,1924.535449,-3404.947333,-9882.631924
839.361044,2220.617826,-2146.597232,-9806.022374
839.361364,2294.638420,444.123565,-9882.631924
839.361685,0.000000,2738.761985,-10418.898773
839.362005,-1332.370696,2516.700203,-10189.070123
839.362325,-1406.391290,518.144159,-10342.289223
839.362645,-148.041188,-962.267725,-9652.803275
839.362965,74.020594,-2220.617826,-9806.022374
839.363285,518.144159,-2146.597232,-9959.241474
839.363605,518.144159,-1332.370696,-9729.412825
839.363926,-296.082377,148.041188,-10189.070123
839.364246,-888.247130,1924.535449,-10035.851024
839.364566,74.020594,2516.700203,-10112.460574
839.364886,1480.411884,1998.556043,-10725.336972
839.365206,1554.432478,148.041188,-10725.336972
839.365526,0.000000,-1406.391290,-10189.070123
839.365846,-1332.370696,-1406.391290,-10495.508323
839.366166,-1258.350101,-518.144159,-9882.631924
839.366487,-2220.617826,1776.494261,-9959.241474
839.366807,-666.185348,2960.823768,-10342.289223
839.367127,1554.432478,1924.535449,-10955.165621
839.367447,2590.720797,222.061783,-10265.679673
839.367767,1850.514855,-2368.659014,-10265.679673
839.368087,592.164754,-814.226536,-9959.241474
839.368407,-370.102971,444.123565,-10265.679673
839.368727,-518.144159,2220.617826,-10495.508323
839.369048,-1184.329507,2220.617826,-9882.631924
839.369368,-1554.432478,814.226536,-10112.460574
839.369688,1258.350101,-518.144159,-10112.460574
839.370008,1554.432478,-1036.288319,-10418.898773
839.370328,1554.432478,222.061783,-9806.022374
839.370648,1776.494261,2072.576638,-10189.070123
839.370968,1332.370696,1998.556043,-10265.679673
839.371289,518.144159,1258.350101,-9806.022374
839.371609,222.061783,0.000000,-9576.193725
839.371929,1554.432478,-1184.329507,-9116.536426
839.372249,3701.029710,-518.144159,-10189.070123
839.372569,2960.823768,814.226536,-10035.851024
839.372889,2516.700203,2590.720797,-10265.679673
839.373209,1110.308913,3108.864956,-9806.022374
839.373529,-1480.411884,2368.659014,-9806.022374
839.373850,-1776.494261,1036.288319,-9576.193725
839.374170,296.082377,-1332.370696,-9806.022374
839.374490,2960.823768,-1850.514855,-10189.070123
839.374810,4071.132681,-2590.720797,-9806.022374
839.375130,3034.844362,-1036.288319,-10035.851024
839.375450,2442.679609,2294.638420,-10342.289223
839.375770,666.185348,4071.132681,-10342.289223
839.376090,-370.102971,4293.194464,-9652.803275
839.376411,592.164754,3923.091493,-10189.070123
839.376731,1554.432478,1332.370696,-10648.727422
839.377051,444.123565,-1258.350101,-10112.460574
839.377371,666.185348,-2516.700203,-10112.460574
839.377691,592.164754,-1998.556043,-9806.022374
839.378011,-518.144159,518.144159,-10342.289223
839.378331,-1776.494261,2220.617826,-10189.070123
839.378652,-1924.535449,2886.803174,-10035.851024
839.378972,444.123565,2294.638420,-10035.851024
839.379292,1406.391290,0.000000,-10418.898773
839.379612,148.041188,-1702.473667,-10342.289223
839.379932,814.226536,-2812.782580,-9729.412825
839.380252,370.102971,-1406.391290,-10035.851024
839.380572,-518.144159,518.144159,-10648.727422
839.380892,-1036.288319,740.205942,-9806.022374
839.381213,444.123565,814.226536,-10418.898773
839.381533,370.102971,740.205942,-10035.851024
839.381853,-222.061783,-148.041188,-10418.898773
839.382173,0.000000,-296.082377,-9652.803275
839.382493,-444.123565,-592.164754,-10035.851024
839.382813,-1628.453072,-962.267725,-9576.193725
839.383133,-1406.391290,-962.267725,-9806.022374
839.383453,-888.247130,-1110.308913,-9576.193725
839.383774,888.247130,-370.102971,-9959.241474
839.384094,1184.329507,0.000000,-10342.289223
839.384414,518.144159,888.247130,-10112.460574
839.384734,518.144159,1110.308913,-9806.022374
839.385054,370.102971,1036.288319,-10342.289223
839.385374,148.041188,1036.288319,-9806.022374
839.385694,148.041188,-296.082377,-9959.241474
839.386015,1480.411884,-1332.370696,-10112.460574
839.386335,2442.679609,-1924.535449,-10342.289223
839.386655,1554.432478,-740.205942,-10495.508323
839.386975,1184.329507,1036.288319,-10418.898773
839.387295,1924.535449,3330.926739,-10648.727422
839.387615,888.247130,3997.112087,-10572.117872
839.387935,-518.144159,2738.761985,-10265.679673
839.388255,370.102971,0.000000,-10265.679673
839.388576,1924.535449,-3330.926739,-10265.679673
839.388896,2072.576638,-4959.379811,-9729.412825
839.389216,1036.288319,-3627.009116,-9652.803275
839.389536,370.102971,0.000000,-10189.070123
839.389856,-592.164754,3256.906145,-10572.117872
839.390176,-1628.453072,4589.276840,-10725.336972
839.390496,-1924.535449,3627.009116,-10342.289223
839.390817,296.082377,518.144159,-10418.898773
839.391137,888.247130,-2442.679609,-10342.289223
839.391457,1110.308913,-3182.885551,-10035.851024
839.391777,814.226536,-2738.761985,-9652.803275
839.392097,-222.061783,666.185348,-10112.460574
839.392417,-222.061783,3552.988522,-10572.117872
839.392737,-962.267725,3849.070898,-10572.117872
839.393057,222.061783,2664.741391,-10112.460574
839.393378,1480.411884,222.061783,-10572.117872
839.393698,592.164754,-1110.308913,-10342.289223
839.394018,1036.288319,-222.061783,-9806.022374
839.394338,740.205942,666.185348,-10418.898773
839.394658,0.000000,1776.494261,-9652.803275
839.394978,-888.247130,1924.535449,-9729.412825
839.395298,0.000000,1480.411884,-9806.022374
839.395618,1406.391290,518.144159,-9882.631924
839.395939,1480.411884,-518.144159,-10112.460574
839.396259,1332.370696,-1258.350101,-9806.022374
839.396579,148.041188,-74.020594,-9806.022374
839.396899,-148.041188,1776.494261,-10265.679673
839.397219,-592.164754,3182.885551,-10265.679673
839.397539,-222.061783,2960.823768,-9116.536426
839.397859,370.102971,1480.411884,-10189.070123
839.398180,888.247130,-1554.432478,-9806.022374
839.398500,666.185348,-2516.700203,-9806.022374
839.398820,1184.329507,-2072.576638,-9959.241474
839.399140,1332.370696,370.102971,-9729.412825
839.399460,740.205942,2072.576638,-10418.898773
839.399780,-148.041188,3034.844362,-10035.851024
839.400100,592.164754,2812.782580,-10418.898773
839.400420,1776.494261,0.000000,-11338.213370
839.400741,1406.391290,-1924.535449,-10189.070123
839.401061,666.185348,-2516.700203,-9806.022374
839.401381,888.247130,-962.267725,-9806.022374
839.401701,296.082377,1776.494261,-9193.145976
839.402021,0.000000,2812.782580,-10418.898773
839.402341,-148.041188,2294.638420,-9806.022374
839.402661,814.226536,518.144159,-10342.289223
839.402981,1258.350101,-1406.391290,-10265.679673
839.403302,1554.432478,-1850.514855,-9346.365076
839.403622,1406.391290,-1184.329507,-9959.241474
839.403942,1036.288319,-370.102971,-9959.241474
839.404262,222.061783,370.102971,-10035.851024
839.404582,370.102971,1110.308913,-10112.460574
839.404902,444.123565,1924.535449,-10189.070123
839.405222,1184.329507,296.082377,-10495.508323
839.405543,962.267725,-518.144159,-9882.631924
839.405863,962.267725,-592.164754,-9959.241474
839.406183,1332.370696,-814.226536,-10035.851024
839.406503,814.226536,-666.185348,-9882.631924
839.406823,296.082377,-888.247130,-9882.631924
839.407143,0.000000,-370.102971,-9806.022374
839.407463,592.164754,888.247130,-10035.851024
839.407783,370.102971,444.123565,-10189.070123
839.408104,740.205942,-222.061783,-10189.070123
839.408424,1036.288319,370.102971,-10495.508323
839.408744,740.205942,0.000000,-10495.508323
839.409064,1110.308913,222.061783,-10112.460574
839.409384,444.123565,962.267725,-10035.851024
839.409704,592.164754,444.123565,-10418.898773
839.410024,0.000000,0.000000,-10495.508323
839.410344,-592.164754,0.000000,-10955.165621
839.410665,-962.267725,518.144159,-10418.898773
839.410985,-888.247130,592.164754,-10035.851024
839.411305,-1036.288319,444.123565,-10189.070123
839.411625,-2516.700203,370.102971,-9422.974625
839.411945,-1776.494261,-666.185348,-10342.289223
839.412265,518.144159,-740.205942,-10342.289223
839.412585,1184.329507,-1332.370696,-10112.460574
839.412905,2368.659014,0.000000,-9806.022374
839.413225,2146.597232,2294.638420,-9959.241474
839.413545,1258.350101,2738.761985,-10342.289223
839.413866,888.247130,2368.659014,-10035.851024
839.414186,0.000000,666.185348,-9806.022374
839.414506,148.041188,-370.102971,-9576.193725
839.414826,-370.102971,-1850.514855,-9576.193725
839.415146,0.000000,-1480.411884,-9729.412825
839.415466,518.144159,-518.144159,-9652.803275
839.415786,740.205942,222.061783,-9882.631924
839.416106,148.041188,1554.432478,-9882.631924
839.416426,-592.164754,2146.597232,-9806.022374
839.416746,-444.123565,2294.638420,-10035.851024
839.417066,296.082377,1184.329507,-10495.508323
839.417387,1480.411884,-518.144159,-10112.460574
839.417707,1776.494261,-814.226536,-9806.022374
839.418027,666.185348,-1036.288319,-9729.412825
839.418347,888.247130,814.226536,-10418.898773
839.418667,1924.535449,1924.535449,-10265.679673
839.418987,3478.967927,1628.453072,-10801.946522
839.419307,3182.885551,1850.514855,-10342.289223
839.419627,1406.391290,1332.370696,-10955.165621
839.419947,-74.020594,444.123565,-10495.508323
839.420267,666.185348,962.267725,-10112.460574
839.420587,888.247130,2294.638420,-10572.117872
839.420907,-666.185348,1998.556043,-10265.679673
839.421228,518.144159,74.020594,-10035.851024
839.421548,1776.494261,-592.164754,-10265.679673
839.421868,1184.329507,-1850.514855,-9959.241474
839.422188,888.247130,-1110.308913,-9959.241474
839.422508,1406.391290,592.164754,-10418.898773
839.422828,1036.288319,1776.494261,-10189.070123
839.423148,444.123565,3108.864956,-9422.974625
839.423468,74.020594,2146.597232,-10112.460574
839.423788,1480.411884,296.082377,-10418.898773
839.424108,1628.453072,74.020594,-10418.898773
839.424428,1406.391290,-814.226536,-10189.070123
839.424749,1406.391290,-740.205942,-9422.974625
839.425069,222.061783,-592.164754,-9806.022374
839.425389,-888.247130,-148.041188,-9806.022374
839.425709,-2812.782580,666.185348,-9499.584175
839.426029,-2220.617826,1258.350101,-11031.775171
839.426349,-222.061783,1036.288319,-9806.022374
839.426669,-370.102971,-222.061783,-9806.022374
839.426989,296.082377,-1332.370696,-9806.022374
839.427309,370.102971,-2886.803174,-9422.974625
839.427629,296.082377,-2072.576638,-9346.365076
839.427949,-888.247130,-592.164754,-9882.631924
839.428269,-296.082377,962.267725,-9729.412825
839.428590,592.164754,1554.432478,-10495.508323
839.428910,888.247130,-740.205942,-9729.412825
839.429230,1110.308913,-1406.391290,-9959.241474
839.429550,1110.308913,-1850.514855,-9959.241474
839.429870,1258.350101,-148.041188,-10955.165621
839.430190,0.000000,962.267725,-10112.460574
839.430510,-1184.329507,1924.535449,-10265.679673
839.430830,-1924.535449,1554.432478,-10648.727422
839.431150,-222.061783,0.000000,-10342.289223
839.431470,-296.082377,-962.267725,-10189.070123
839.431790,1480.411884,-1628.453072,-10572.117872
839.432110,2368.659014,-518.144159,-10725.336972
839.432431,888.247130,1110.308913,-10648.727422
839.432751,0.000000,1998.556043,-10112.460574
839.433071,370.102971,888.247130,-9959.241474
839.433391,962.267725,370.102971,-10265.679673
839.433711,74.020594,-740.205942,-10342.289223
839.434031,0.000000,-666.185348,-10112.460574
839.434351,666.185348,-888.247130,-9959.241474
839.434671,1554.432478,-518.144159,-10265.679673
839.434991,148.041188,370.102971,-9806.022374
839.435311,-888.247130,148.041188,-9882.631924
839.435631,1480.411884,518.144159,-9806.022374
839.435952,1184.329507,0.000000,-10878.556072
839.436272,74.020594,-814.226536,-9806.022374
839.436592,666.185348,-814.226536,-9422.974625
839.436912,222.061783,-1850.514855,-9499.584175
839.437232,-962.267725,-814.226536,-9576.193725
839.437552,-740.205942,296.082377,-10342.289223
839.437872,962.267725,0.000000,-9882.631924
839.438192,1924.535449,1850.514855,-10955.165621
839.438512,0.000000,592.164754,-10035.851024
839.438832,74.020594,-370.102971,-9806.022374
839.439152,296.082377,148.041188,-10342.289223
839.439472,-296.082377,222.061783,-10418.898773
839.439793,-444.123565,-296.082377,-10035.851024
839.440113,740.205942,592.164754,-10648.727422
839.440433,2442.679609,1184.329507,-10265.679673
839.440753,2146.597232,2590.720797,-10801.946522
839.441073,2368.659014,2590.720797,-10801.946522
839.441393,0.000000,2664.741391,-10955.165621
839.441713,-1924.535449,3923.091493,-10878.556072
839.442033,-1184.329507,3108.864956,-10112.460574
839.442353,888.247130,1554.432478,-10265.679673
839.442673,1924.535449,0.000000,-9806.022374
839.442993,2664.741391,-740.205942,-10189.070123
839.443314,3108.864956,-1998.556043,-9652.803275
839.443634,3256.906145,-222.061783,-9806.022374
839.443954,1258.350101,2368.659014,-10035.851024
839.444274,-1332.370696,3849.070898,-10035.851024
839.444594,-222.061783,3775.050304,-9499.584175
839.444914,1258.350101,740.205942,-9652.803275
839.445234,3330.926739,-1184.329507,-9499.584175
839.445554,2368.659014,-1406.391290,-9882.631924
839.445874,666.185348,-2072.576638,-9652.803275
839.446194,1332.370696,-296.082377,-10112.460574
839.446514,444.123565,2294.638420,-9806.022374
839.446834,-1036.288319,3849.070898,-10189.070123
839.447155,-592.164754,4293.194464,-9959.241474
839.447475,740.205942,2812.782580,-11261.603821
839.447795,592.164754,-1184.329507,-9959.241474
839.448115,518.144159,-3182.885551,-9576.193725
839.448435,1258.350101,-2442.679609,-9959.241474
839.448755,1406.391290,0.000000,-10112.460574
839.449075,444.123565,2664.741391,-10572.117872
839.449395,370.102971,4145.153275,-10342.289223
839.449715,-222.061783,2664.741391,-10265.679673
839.450035,0.000000,370.102971,-10648.727422
839.450355,1184.329507,-1850.514855,-10112.460574
839.450676,888.247130,-1776.494261,-10035.851024
839.450996,1332.370696,-888.247130,-10572.117872
839.451316,74.020594,-370.102971,-10112.460574
839.451636,-1110.308913,148.041188,-9806.022374
839.451956,148.041188,-444.123565,-10035.851024
839.452276,740.205942,74.020594,-10265.679673
839.452596,-222.061783,666.185348,-10112.460574
839.452916,-888.247130,222.061783,-10342.289223
839.453236,518.144159,148.041188,-10112.460574
839.453556,296.082377,-74.020594,-9959.241474
839.453876,-1110.308913,-518.144159,-9806.022374
839.454196,-1332.370696,-740.205942,-9882.631924
839.454517,814.226536,-1184.329507,-10418.898773
839.454837,1258.350101,-1184.329507,-9652.803275
839.455157,1554.432478,-1480.411884,-9959.241474
839.455477,1406.391290,-1332.370696,-9652.803275
839.455797,814.226536,-666.185348,-9576.193725
839.456117,-444.123565,296.082377,-10112.460574
839.456437,148.041188,518.144159,-10112.460574
839.456757,1332.370696,-222.061783,-10035.851024
839.457077,1258.350101,-1332.370696,-10265.679673
839.457397,74.020594,-2294.638420,-8733.488677
839.457717,0.000000,-1628.453072,-9652.803275
839.458037,-1406.391290,148.041188,-10265.679673
839.458358,-1554.432478,666.185348,-10112.460574
839.458678,-1110.308913,1110.308913,-9882.631924
839.458998,592.164754,-592.164754,-10112.460574
839.459318,222.061783,-1406.391290,-10342.289223
839.459638,-370.102971,-2960.823768,-10189.070123
839.459958,-222.061783,-2442.679609,-9806.022374
839.460278,962.267725,0.000000,-10112.460574
839.460598,592.164754,2812.782580,-10418.898773
839.460918,148.041188,3404.947333,-10801.946522
839.461238,370.102971,2664.741391,-10342.289223
839.461558,1332.370696,370.102971,-10418.898773
839.461879,1258.350101,-296.082377,-10112.460574
839.462199,444.123565,-1628.453072,-10035.851024
839.462519,-444.123565,-1184.329507,-9806.022374
839.462839,-592.164754,0.000000,-9882.631924
839.463159,-1776.494261,1110.308913,-9959.241474
839.463479,-370.102971,666.185348,-9422.974625
839.463799,592.164754,1924.535449,-10112.460574
839.464119,518.144159,1628.453072,-9959.241474
839.464439,2072.576638,1036.288319,-10418.898773
839.464759,1850.514855,222.061783,-9806.022374
839.465079,1406.391290,518.144159,-10342.289223
839.465399,666.185348,148.041188,-9806.022374
839.465720,888.247130,1554.432478,-10035.851024
839.466040,1776.494261,1776.494261,-9806.022374
839.466360,1924.535449,1776.494261,-10495.508323
839.466680,2146.597232,296.082377,-9882.631924
839.467000,1184.329507,-148.041188,-10112.460574
839.467320,0.000000,814.226536,-10035.851024
839.467640,444.123565,1850.514855,-10418.898773
839.467960,1628.453072,2368.659014,-9959.241474
839.468280,1924.535449,2590.720797,-10189.070123
839.468600,3256.906145,888.247130,-10648.727422
839.468920,1776.494261,296.082377,-10035.851024
839.469241,1258.350101,-814.226536,-10418.898773
839.469561,1332.370696,592.164754,-10112.460574
839.469881,962.267725,2294.638420,-10725.336972
839.470201,222.061783,3108.864956,-11338.213370
839.470521,-148.041188,1998.556043,-9959.241474
839.470841,-370.102971,1332.370696,-9882.631924
839.471161,444.123565,-740.205942,-10189.070123
839.471481,1332.370696,-1184.329507,-10035.851024
839.471801,1184.329507,-1628.453072,-9729.412825
839.472121,1702.473667,148.041188,-9806.022374
839.472441,0.000000,1258.350101,-9422.974625
839.472761,-1036.288319,1628.453072,-9729.412825
839.473082,-1406.391290,2590.720797,-9806.022374
839.473402,-666.185348,370.102971,-10112.460574
839.473722,962.267725,-148.041188,-9959.241474
839.474042,296.082377,-2516.700203,-9422.974625
839.474362,148.041188,-2368.659014,-9499.584175
839.474682,-1110.308913,-1554.432478,-9729.412825
839.475002,-2590.720797,0.000000,-9729.412825
839.475322,-2072.576638,740.205942,-9346.365076
839.475642,74.020594,0.000000,-10418.898773
839.475962,2294.638420,296.082377,-10035.851024
839.476282,1628.453072,-518.144159,-10112.460574
839.476603,1332.370696,74.020594,-10112.460574
839.476923,1184.329507,148.041188,-10342.289223
839.477243,1406.391290,666.185348,-10572.117872
839.477563,518.144159,296.082377,-10112.460574
839.477883,296.082377,-592.164754,-10418.898773
839.478203,888.247130,0.000000,-10801.946522
839.478523,-444.123565,74.020594,-10725.336972
839.478843,-888.247130,666.185348,-10265.679673
839.479163,148.041188,1110.308913,-10572.117872
839.479483,1184.329507,1628.453072,-10725.336972
839.479803,666.185348,0.000000,-10189.070123
839.480123,1406.391290,-888.247130,-9652.803275
839.480444,1628.453072,-1036.288319,-10265.679673
839.480764,1776.494261,-962.267725,-10418.898773
839.481084,962.267725,-148.041188,-9806.022374
839.481404,370.102971,666.185348,-10112.460574
839.481724,-444.123565,2146.597232,-10418.898773
839.482044,-1406.391290,1332.370696,-9882.631924
839.482364,518.144159,444.123565,-10342.289223
839.482684,1628.453072,-1110.308913,-9652.803275
839.483004,1628.453072,-2590.720797,-9882.631924
839.483324,74.020594,-1628.453072,-9729.412825
839.483644,-666.185348,-740.205942,-9729.412825
839.483964,-148.041188,1258.350101,-9806.022374
839.484285,-666.185348,2220.617826,-10495.508323
839.484605,-1110.308913,1480.411884,-10035.851024
839.484925,-518.144159,296.082377,-10342.289223
839.485245,1036.288319,-1110.308913,-9959.241474
839.485565,1184.329507,-1850.514855,-9959.241474
839.485885,444.123565,-1110.308913,-9806.022374
839.486205,1110.308913,74.020594,-10265.679673
839.486525,444.123565,1850.514855,-10725.336972
839.486845,0.000000,1998.556043,-10572.117872
839.487165,444.123565,1110.308913,-10112.460574
839.487485,2368.659014,592.164754,-10495.508323
839.487806,1480.411884,296.082377,-10878.556072
839.488126,148.041188,814.226536,-10418.898773
839.488446,0.000000,1406.391290,-9959.241474
839.488766,1258.350101,1332.370696,-10342.289223
839.489086,-148.041188,592.164754,-9806.022374
839.489406,-222.061783,666.185348,-10112.460574
839.489726,592.164754,-296.082377,-10189.070123
839.490046,2368.659014,74.020594,-10648.727422
839.490366,0.000000,1184.329507,-9882.631924
839.490686,0.000000,1258.350101,-10265.679673
839.491006,0.000000,1480.411884,-9346.365076
839.491326,666.185348,1406.391290,-10189.070123
839.491647,1258.350101,0.000000,-9193.145976
839.491967,1924.535449,148.041188,-9882.631924
839.492287,1406.391290,-444.123565,-9806.022374
839.492607,1406.391290,-222.061783,-9882.631924
839.492927,592.164754,222.061783,-9652.803275
839.493247,1110.308913,1036.288319,-10035.851024
839.493567,1258.350101,2590.720797,-10035.851024
839.493887,-666.185348,2590.720797,-10265.679673
839.494207,-1036.288319,740.205942,-9499.584175
839.494527,370.102971,-222.061783,-9806.022374
839.494847,666.185348,-1776.494261,-9806.022374
839.495168,888.247130,-2294.638420,-10189.070123
839.495488,370.102971,-1554.432478,-9729.412825
839.495808,148.041188,888.247130,-9882.631924
839.496128,-740.205942,3775.050304,-9806.022374
839.496448,444.123565,5477.523971,-10265.679673
839.496768,2368.659014,3997.112087,-10878.556072
839.497088,2664.741391,370.102971,-10189.070123
839.497408,2072.576638,-2738.761985,-9806.022374
839.497728,296.082377,-4219.173869,-9652.803275
839.498048,148.041188,-3627.009116,-9882.631924
839.498368,0.000000,-1258.350101,-10418.898773
839.498688,-814.226536,1628.453072,-9806.022374
839.499009,-370.102971,2738.761985,-10572.117872
839.499329,-888.247130,2220.617826,-10342.289223
839.499649,-1332.370696,370.102971,-10418.898773
839.499969,-444.123565,-518.144159,-10725.336972
839.500289,1110.308913,-962.267725,-10342.289223
839.500609,2146.597232,-962.267725,-10342.289223
839.500929,1480.411884,-740.205942,-10189.070123
839.501249,1184.329507,-370.102971,-10112.460574
839.501569,-222.061783,1036.288319,-10265.679673
839.501889,-222.061783,888.247130,-10342.289223
839.502209,740.205942,888.247130,-10648.727422
839.502530,1702.473667,592.164754,-10112.460574
839.502850,2442.679609,370.102971,-10725.336972
839.503170,740.205942,-222.061783,-10112.460574
839.503490,-1776.494261,-222.061783,-9806.022374
839.503810,-1628.453072,-1406.391290,-9882.631924
839.504130,592.164754,-1184.329507,-10265.679673
839.504450,1480.411884,-888.247130,-10112.460574
839.504770,1924.535449,0.000000,-10189.070123
839.505090,1258.350101,888.247130,-10265.679673
839.505410,592.164754,1924.535449,-10189.070123
839.505730,-592.164754,1184.329507,-9959.241474
839.506050,-592.164754,-666.185348,-9576.193725
839.506371,518.144159,-1776.494261,-10112.460574
839.506691,-518.144159,-2516.700203,-9959.241474
839.507011,-666.185348,-1776.494261,-9729.412825
839.507331,-518.144159,518.144159,-9729.412825
839.507651,0.000000,2738.761985,-10495.508323
839.507971,-962.267725,3849.070898,-9806.022374
839.508291,-1258.350101,2368.659014,-9806.022374
839.508611,444.123565,1184.329507,-10801.946522
839.508931,962.267725,-1036.288319,-9882.631924
839.509251,370.102971,-1924.535449,-9806.022374
839.509571,148.041188,-2220.617826,-9806.022374
839.509891,-518.144159,666.185348,-10112.460574
839.510212,-1258.350101,3478.967927,-10495.508323
839.510532,-592.164754,3923.091493,-9729.412825
839.510852,962.267725,2812.782580,-10495.508323
839.511172,1628.453072,1110.308913,-10189.070123
839.511492,888.247130,0.000000,-10342.289223
839.511811,814.226536,-888.247130,-9729.412825
839.512131,1702.473667,-296.082377,-9806.022374
839.512451,1258.350101,1036.288319,-10112.460574
839.512771,74.020594,1332.370696,-9576.193725
839.513091,814.226536,1184.329507,-10725.336972
839.513411,1850.514855,1184.329507,-10572.117872
839.513731,2516.700203,814.226536,-10112.460574
839.514051,2812.782580,1628.453072,-10878.556072
839.514371,2072.576638,1480.411884,-9882.631924
839.514691,1998.556043,2294.638420,-10035.851024
839.515011,74.020594,1850.514855,-10265.679673
839.515331,-296.082377,-370.102971,-9729.412825
839.515651,148.041188,-518.144159,-9729.412825
839.515971,1184.329507,-222.061783,-10265.679673
839.516291,2294.638420,74.020594,-9882.631924
839.516611,2516.700203,1332.370696,-10342.289223
839.516931,1406.391290,2072.576638,-10495.508323
839.517251,148.041188,1998.556043,-9959.241474
839.517571,-740.205942,592.164754,-9576.193725
839.517890,1184.329507,-888.247130,-10035.851024
839.518210,2368.659014,-962.267725,-9882.631924
839.518530,2294.638420,-1628.453072,-10342.289223
839.518850,1554.432478,-962.267725,-10189.070123
839.519170,2516.700203,0.000000,-10342.289223
839.519490,1406.391290,2220.617826,-10648.727422
839.519810,-592.164754,2442.679609,-10035.851024
839.520130,-1924.535449,1628.453072,-10112.460574
839.520450,-1332.370696,-518.144159,-10035.851024
839.520770,-444.123565,-3404.947333,-9959.241474
839.521090,-888.247130,-4737.318029,-9806.022374
839.521410,-1110.308913,-4219.173869,-9729.412825
839.521730,0.000000,-1628.453072,-10112.460574
839.522050,-740.205942,1184.329507,-10265.679673
839.522370,-1406.391290,814.226536,-10112.460574
839.522690,-370.102971,148.041188,-10572.117872
839.523010,666.185348,-444.123565,-10648.727422
839.523330,1258.350101,-1702.473667,-10265.679673
839.523650,1554.432478,-1406.391290,-10418.898773
839.523970,1110.308913,-1332.370696,-9806.022374
839.524289,1036.288319,0.000000,-10495.508323
839.524609,-74.020594,-370.102971,-10112.460574
839.524929,740.205942,-1702.473667,-10035.851024
839.525249,888.247130,-1628.453072,-10112.460574
839.525569,-370.102971,-592.164754,-10189.070123
839.525889,-370.102971,666.185348,-9729.412825
839.526209,74.020594,1480.411884,-10418.898773
839.526529,-814.226536,1850.514855,-10342.289223
839.526849,-1110.308913,-222.061783,-9959.241474
839.527169,-1258.350101,-444.123565,-9346.365076
839.527489,888.247130,-1258.350101,-9882.631924
839.527809,1702.473667,-222.061783,-9959.241474
839.528129,0.000000,-592.164754,-10342.289223
839.528449,-666.185348,-148.041188,-9422.974625
839.528769,0.000000,-370.102971,-10265.679673
839.529089,-148.041188,2146.597232,-10112.460574
839.529409,0.000000,2590.720797,-10342.289223
839.529729,888.247130,1036.288319,-10265.679673
839.530049,370.102971,370.102971,-9806.022374
839.530369,148.041188,-1036.288319,-10342.289223
839.530688,666.185348,-2146.597232,-9806.022374
839.531008,740.205942,-962.267725,-10342.289223
839.531328,0.000000,1406.391290,-9806.022374
839.531648,-888.247130,1776.494261,-10112.460574
839.531968,-666.185348,1554.432478,-9959.241474
839.532288,814.226536,1184.329507,-10342.289223
839.532608,814.226536,296.082377,-10418.898773
839.532928,444.123565,-592.164754,-9959.241474
839.533248,740.205942,0.000000,-9806.022374
839.533568,1554.432478,296.082377,-10112.460574
839.533888,1332.370696,1406.391290,-10495.508323
839.534208,74.020594,888.247130,-9652.803275
839.534528,2368.659014,1184.329507,-10189.070123
839.534848,1184.329507,666.185348,-10035.851024
839.535168,740.205942,740.205942,-10189.070123
839.535488,222.061783,1924.535449,-10495.508323
839.535808,1184.329507,2516.700203,-9959.241474
839.536128,1036.288319,2146.597232,-10725.336972
839.536448,888.247130,666.185348,-9806.022374
839.536768,1332.370696,666.185348,-9576.193725
839.537087,888.247130,370.102971,-10418.898773
839.537407,2146.597232,0.000000,-9576.193725
839.537727,592.164754,-518.144159,-9729.412825
839.538047,666.185348,1184.329507,-9729.412825
839.538367,-222.061783,2294.638420,-10189.070123
839.538687,0.000000,2442.679609,-9882.631924
839.539007,2590.720797,2812.782580,-10112.460574
839.539327,3849.070898,2886.803174,-10495.508323
839.539647,2294.638420,888.247130,-10495.508323
839.539967,592.164754,-1258.350101,-9652.803275
839.540287,-962.267725,-296.082377,-10189.070123
839.540607,-222.061783,0.000000,-9806.022374
839.540927,888.247130,1850.514855,-10189.070123
839.541247,444.123565,1554.432478,-10035.851024
839.541567,1110.308913,1776.494261,-10265.679673
839.541887,-222.061783,1258.350101,-10112.460574
839.542207,-1480.411884,740.205942,-10572.117872
839.542527,-740.205942,444.123565,-9806.022374
839.542847,1036.288319,444.123565,-9959.241474
839.543166,666.185348,74.020594,-10265.679673
839.543486,-1184.329507,-296.082377,-9806.022374
839.543806,-370.102971,-296.082377,-9806.022374
839.544126,370.102971,-370.102971,-10189.070123
839.544446,222.061783,592.164754,-10342.289223
839.544766,-444.123565,148.041188,-9806.022374
839.545086,74.020594,74.020594,-10112.460574
839.545406,518.144159,296.082377,-10265.679673
839.545726,-296.082377,-296.082377,-9959.241474
839.546046,-518.144159,-888.247130,-9576.193725
839.546366,222.061783,-1776.494261,-9806.022374
839.546686,1480.411884,-814.226536,-10112.460574
839.547006,592.164754,-296.082377,-9882.631924
839.547326,444.123565,518.144159,-9806.022374
839.547646,222.061783,962.267725,-10189.070123
839.547966,-370.102971,666.185348,-10265.679673
839.548286,-370.102971,-592.164754,-9652.803275
839.548606,666.185348,-1480.411884,-10035.851024
839.548926,1850.514855,-2072.576638,-9806.022374
839.549246,1480.411884,-1850.514855,-10112.460574
839.549565,0.000000,-1554.432478,-9959.241474
839.549885,666.185348,-1332.370696,-10572.117872
839.550205,370.102971,0.000000,-10189.070123
839.550525,74.020594,0.000000,-10112.460574
839.550845,-222.061783,666.185348,-10189.070123
839.551165,814.226536,-444.123565,-10495.508323
839.551485,888.247130,-740.205942,-10955.165621
839.551805,1110.308913,-1258.350101,-10725.336972
839.552125,1554.432478,-1184.329507,-10572.117872
839.552445,222.061783,-222.061783,-10955.165621
839.552765,-888.247130,1036.288319,-10648.727422
839.553085,-1480.411884,2368.659014,-10878.556072
839.553405,666.185348,2220.617826,-11031.775171
839.553725,1406.391290,148.041188,-10878.556072
839.554045,592.164754,-1110.308913,-10648.727422
839.554365,666.185348,-1554.432478,-9499.584175
839.554685,0.000000,296.082377,-10418.898773
839.555005,-1184.329507,1702.473667,-9959.241474
839.555325,-222.061783,2442.679609,-10265.679673
839.555645,888.247130,1628.453072,-9039.926876
839.555964,962.267725,0.000000,-9882.631924
839.556284,-592.164754,-222.061783,-9729.412825
839.556604,-814.226536,740.205942,-9346.365076
839.556924,1036.288319,592.164754,-9806.022374
839.557244,1406.391290,1184.329507,-10265.679673
839.557564,-444.123565,370.102971,-9499.584175
839.557884,0.000000,-888.247130,-9499.584175
839.558204,740.205942,-1110.308913,-9422.974625
839.558524,1480.411884,222.061783,-10035.851024
839.558844,1702.473667,1628.453072,-9652.803275
839.559164,1332.370696,1998.556043,-9959.241474
839.559484,1036.288319,1924.535449,-9959.241474
839.559804,592.164754,1480.411884,-9193.145976
839.560124,148.041188,740.205942,-9193.145976
839.560444,1554.432478,222.061783,-10189.070123
839.560764,1850.514855,444.123565,-10112.460574
839.561084,962.267725,1036.288319,-10495.508323
839.561404,1184.329507,1480.411884,-9882.631924
839.561724,888.247130,2442.679609,-10342.289223
839.562043,0.000000,2812.782580,-10801.946522
839.562363,-814.226536,2516.700203,-10112.460574
839.562683,518.144159,888.247130,-10495.508323
839.563003,1554.432478,-296.082377,-10418.898773
839.563323,2220.617826,-814.226536,-10495.508323
839.563643,1480.411884,444.123565,-10189.070123
839.563963,1628.453072,1850.514855,-10572.117872
839.564283,1258.350101,2960.823768,-9652.803275
839.564603,370.102971,2590.720797,-10725.336972
839.564923,0.000000,1480.411884,-9806.022374
839.565243,814.226536,-148.041188,-10418.898773
839.565563,962.267725,-1850.514855,-10035.851024
839.565883,74.020594,-2294.638420,-9422.974625
839.566203,296.082377,-1702.473667,-9806.022374
839.566523,-148.041188,0.000000,-9882.631924
839.566843,-1480.411884,370.102971,-9576.193725
839.567163,-518.144159,1628.453072,-9499.584175
839.567483,962.267725,444.123565,-9729.412825
839.567803,1924.535449,-148.041188,-9959.241474
839.568123,814.226536,-962.267725,-9882.631924
839.568442,-370.102971,-1480.411884,-10495.508323
839.568762,-444.123565,-1184.329507,-9729.412825
839.569082,0.000000,-962.267725,-10035.851024
839.569402,518.144159,-814.226536,-9959.241474
839.569722,1480.411884,-888.247130,-9959.241474
839.570042,1110.308913,-1036.288319,-9806.022374
839.570362,444.123565,-962.267725,-10112.460574
839.570682,444.123565,-888.247130,-9652.803275
839.571002,222.061783,-1036.288319,-10035.851024
839.571322,-740.205942,-296.082377,-9499.584175
839.571642,-1702.473667,-1036.288319,-10035.851024
839.571962,148.041188,-1258.350101,-10189.070123
839.572282,2590.720797,-1702.473667,-10725.336972
839.572602,3108.864956,-1110.308913,-11031.775171
839.572922,1702.473667,222.061783,-10495.508323
839.573242,1184.329507,740.205942,-10495.508323
839.573562,1702.473667,1628.453072,-10648.727422
839.573882,740.205942,1184.329507,-10725.336972
839.574202,-148.041188,-222.061783,-9806.022374
839.574522,-222.061783,-2664.741391,-10112.460574
839.574841,1110.308913,-3404.947333,-10112.460574
839.575161,1258.350101,-1776.494261,-10265.679673
839.575481,0.000000,518.144159,-10189.070123
839.575801,-2072.576638,2738.761985,-10495.508323
839.576121,-2812.782580,2886.803174,-10342.289223
839.576441,-1554.432478,1850.514855,-10112.460574
839.576761,-222.061783,0.000000,-10035.851024
839.577081,1258.350101,0.000000,-11568.042020
839.577401,74.020594,-592.164754,-10418.898773
839.577721,-222.061783,-222.061783,-9882.631924
839.578041,592.164754,518.144159,-9959.241474
839.578361,1184.329507,1480.411884,-10418.898773
839.578681,0.000000,1628.453072,-10265.679673
839.579001,-1406.391290,1184.329507,-9882.631924
839.579321,148.041188,814.226536,-10112.460574
839.579641,1628.453072,740.205942,-10035.851024
839.579961,1406.391290,222.061783,-9959.241474
839.580281,370.102971,1184.329507,-9806.022374
839.580601,74.020594,1406.391290,-10112.460574
839.580921,148.041188,1036.288319,-9882.631924
839.581240,370.102971,222.061783,-9499.584175
839.581560,518.144159,370.102971,-10112.460574
839.581880,222.061783,1184.329507,-9806.022374
839.582200,518.144159,1258.350101,-10112.460574
839.582520,814.226536,2146.597232,-10265.679673
839.582840,1036.288319,2072.576638,-10418.898773
839.583160,1036.288319,1702.473667,-9806.022374
839.583480,1036.288319,1406.391290,-10342.289223
839.583800,2072.576638,814.226536,-10035.851024
839.584120,2368.659014,1406.391290,-9959.241474
839.584440,2812.782580,1258.350101,-10418.898773
839.584760,2146.597232,1924.535449,-9959.241474
839.585080,1628.453072,2442.679609,-10112.460574
839.585400,814.226536,2368.659014,-9959.241474
839.585720,-370.102971,1924.535449,-10035.851024
839.586040,0.000000,1332.370696,-9882.631924
839.586360,2220.617826,296.082377,-10035.851024
839.586680,2886.803174,0.000000,-10112.460574
839.587000,1924.535449,0.000000,-11797.870669
839.587319,74.020594,444.123565,-10189.070123
839.587639,-1036.288319,1184.329507,-9959.241474
839.587959,-1110.308913,1332.370696,-9806.022374
839.588279,-518.144159,222.061783,-8963.317327
839.588599,1554.432478,-962.267725,-9959.241474
839.588919,2960.823768,-1184.329507,-10189.070123
839.589239,2220.617826,-1184.329507,-10189.070123
839.589559,888.247130,-444.123565,-9959.241474
839.589879,518.144159,-444.123565,-9959.241474
839.590199,-1036.288319,148.041188,-9652.803275
839.590519,-2368.659014,0.000000,-9959.241474
839.590839,-1850.514855,-592.164754,-9576.193725
839.591159,0.000000,-1924.535449,-9806.022374
839.591479,1332.370696,-2368.659014,-10112.460574
839.591799,518.144159,-888.247130,-10495.508323
839.592119,148.041188,518.144159,-10035.851024
839.592439,-444.123565,2590.720797,-10648.727422
839.592759,0.000000,1702.473667,-10342.289223
839.593079,74.020594,296.082377,-9959.241474
839.593399,1406.391290,-1110.308913,-10418.898773
839.593718,1258.350101,-888.247130,-10495.508323
839.594038,1332.370696,-1332.370696,-10418.898773
839.594358,962.267725,-592.164754,-10265.679673
839.594678,740.205942,370.102971,-10878.556072
839.594998,-296.082377,888.247130,-10418.898773
839.595318,-1628.453072,1406.391290,-10189.070123
839.595638,-1184.329507,-148.041188,-10342.289223
839.595958,2664.741391,-592.164754,-10572.117872
839.596278,3034.844362,-2442.679609,-10572.117872
839.596598,2516.700203,-3404.947333,-10035.851024
839.596918,1258.350101,296.082377,-9882.631924
839.597238,-592.164754,518.144159,-10265.679673
839.597558,-1702.473667,1554.432478,-9652.803275
839.597878,-1406.391290,592.164754,-10265.679673
839.598198,666.185348,-1850.514855,-9806.022374
839.598518,1554.432478,-2960.823768,-10265.679673
839.598838,296.082377,-3923.091493,-9576.193725
839.599158,370.102971,-1332.370696,-10112.460574
839.599478,-1702.473667,666.185348,-9959.241474
839.599798,0.000000,2220.617826,-10342.289223
839.600117,-1332.370696,2442.679609,-10265.679673
839.600437,0.000000,1110.308913,-10418.898773
839.600757,740.205942,-1850.514855,-10189.070123
839.601077,814.226536,-3034.844362,-10112.460574
839.601397,740.205942,-1480.411884,-9576.193725
839.601717,444.123565,2664.741391,-10725.336972
839.602037,-962.267725,3182.885551,-10035.851024
839.602357,-2664.741391,2590.720797,-10342.289223
839.602677,-2664.741391,2590.720797,-9959.241474
839.602997,-1480.411884,-148.041188,-10265.679673
839.603317,2146.597232,296.082377,-10342.289223
839.603637,1628.453072,-444.123565,-9806.022374
839.603957,1998.556043,888.247130,-10189.070123
839.604277,592.164754,2960.823768,-9806.022374
839.604597,-740.205942,2590.720797,-10112.460574
839.604917,-1036.288319,962.267725,-9269.755526
839.605237,1628.453072,222.061783,-10112.460574
839.605557,1702.473667,-666.185348,-10035.851024
839.605877,2220.617826,-962.267725,-10035.851024
839.606196,2072.576638,592.164754,-10189.070123
839.606516,0.000000,1554.432478,-9729.412825
839.606836,518.144159,2146.597232,-10035.851024
839.607156,-740.205942,2220.617826,-9806.022374
839.607476,1480.411884,1184.329507,-9882.631924
839.607796,3182.885551,148.041188,-10112.460574
839.608116,2072.576638,-296.082377,-10189.070123
839.608436,1258.350101,444.123565,-9576.193725
839.608756,1184.329507,888.247130,-10572.117872
839.609076,1702.473667,3256.906145,-10342.289223
839.609396,740.205942,4219.173869,-10418.898773
839.609716,1036.288319,4071.132681,-9806.022374
839.610036,1702.473667,1258.350101,-10265.679673
839.610356,2368.659014,-2516.700203,-10265.679673
839.610676,1850.514855,-3330.926739,-9422.974625
839.610996,1480.411884,-2072.576638,-9806.022374
839.611316,1036.288319,1850.514855,-10189.070123
839.611636,222.061783,3552.988522,-11031.775171
839.611956,74.020594,2664.741391,-9882.631924
839.612276,814.226536,1406.391290,-10495.508323
839.612595,1110.308913,-888.247130,-10878.556072
839.612915,370.102971,-1776.494261,-9806.022374
839.613235,-296.082377,-1850.514855,-9806.022374
839.613555,1184.329507,-962.267725,-10495.508323
839.613875,-592.164754,888.247130,-9882.631924
839.614195,-1924.535449,1332.370696,-10495.508323
839.614515,-888.247130,444.123565,-9959.241474
839.614835,-592.164754,-1036.288319,-10265.679673
839.615155,74.020594,-666.185348,-10495.508323
839.615475,222.061783,-1850.514855,-9806.022374
839.615795,592.164754,-814.226536,-9959.241474
839.616115,666.185348,0.000000,-9882.631924
839.616435,444.123565,1480.411884,-10265.679673
839.616755,444.123565,888.247130,-10112.460574
839.617075,2072.576638,-2146.597232,-10418.898773
839.617395,2146.597232,-1850.514855,-9652.803275
839.617715,-74.020594,-1332.370696,-9806.022374
839.618035,444.123565,-1110.308913,-9652.803275
839.618355,888.247130,-370.102971,-9729.412825
839.618675,-814.226536,-148.041188,-10112.460574
839.618995,-1258.350101,0.000000,-9576.193725
839.619315,370.102971,-592.164754,-9882.631924
839.619635,1332.370696,-2072.576638,-10035.851024
839.619955,1036.288319,-2072.576638,-10112.460574
839.620275,-296.082377,-1184.329507,-9806.022374
839.620595,148.041188,-814.226536,-9806.022374
839.620915,592.164754,-222.061783,-9806.022374
839.621235,0.000000,-222.061783,-9959.241474
839.621555,74.020594,-666.185348,-10189.070123
839.621875,1702.473667,-1998.556043,-10112.460574
839.622195,1850.514855,-2516.700203,-10418.898773
839.622515,814.226536,-444.123565,-10189.070123
839.622835,-592.164754,1110.308913,-10648.727422
839.623155,-1924.535449,2294.638420,-10418.898773
839.623475,-1924.535449,2368.659014,-10342.289223
839.623795,-1924.535449,2146.597232,-10265.679673
839.624115,-666.185348,444.123565,-10801.946522
839.624435,-222.061783,-1184.329507,-10648.727422
839.624755,740.205942,-1554.432478,-10878.556072
839.625075,2664.741391,148.041188,-10265.679673
839.625395,2590.720797,3182.885551,-9652.803275
839.625715,1406.391290,4367.215058,-10725.336972
839.626035,-222.061783,4663.297435,-10725.336972
839.626355,666.185348,2220.617826,-10572.117872
839.626675,2368.659014,0.000000,-10418.898773
839.626995,2294.638420,-2146.597232,-9652.803275
839.627315,740.205942,-2072.576638,-10189.070123
839.627635,296.082377,296.082377,-10342.289223
839.627955,-1184.329507,3182.885551,-10035.851024
839.628275,-1554.432478,5551.544565,-9576.193725
839.628595,-592.164754,3627.009116,-9576.193725
839.628915,1776.494261,1110.308913,-10418.898773
839.629235,3256.906145,-1036.288319,-9959.241474
839.629555,2368.659014,-1776.494261,-9806.022374
839.629875,1332.370696,-370.102971,-9346.365076
839.630195,0.000000,1554.432478,-9576.193725
839.630515,148.041188,2368.659014,-9729.412825
839.630835,1554.432478,3108.864956,-9806.022374
839.631155,1406.391290,2294.638420,-9806.022374
839.631475,1184.329507,1480.411884,-10035.851024
839.631795,518.144159,444.123565,-10112.460574
839.632115,1924.535449,814.226536,-10265.679673
839.632435,2220.617826,1036.288319,-9959.241474
839.632755,0.000000,2146.597232,-9806.022374
839.633075,-1036.288319,2590.720797,-9959.241474
839.633395,-740.205942,1332.370696,-10112.460574
839.633715,1258.350101,0.000000,-10189.070123
839.634035,2442.679609,-962.267725,-9882.631924
839.634355,2368.659014,-370.102971,-9882.631924
839.634675,1406.391290,444.123565,-10112.460574
839.634995,-148.041188,962.267725,-9959.241474
839.635315,-2220.617826,1554.432478,-9882.631924
839.635635,-1184.329507,444.123565,-10035.851024
839.635955,-592.164754,-666.185348,-10265.679673
839.636275,148.041188,-1480.411884,-10112.460574
839.636595,296.082377,-1628.453072,-10418.898773
839.636915,518.144159,296.082377,-10572.117872
839.637235,592.164754,1702.473667,-10725.336972
839.637555,-518.144159,1776.494261,-10112.460574
839.637875,-1850.514855,740.205942,-9959.241474
839.638195,-296.082377,-666.185348,-10801.946522
839.638515,1184.329507,-1776.494261,-10189.070123
839.638835,962.267725,-1628.453072,-10342.289223
839.639155,592.164754,-1036.288319,-10265.679673
839.639475,814.226536,74.020594,-10572.117872
839.639795,0.000000,148.041188,-11338.213370
839.640115,-592.164754,518.144159,-10035.851024
839.640435,-666.185348,444.123565,-10265.679673
839.640755,592.164754,-888.247130,-10035.851024
839.641075,2294.638420,-2664.741391,-9806.022374
839.641395,592.164754,-2294.638420,-10035.851024
839.641715,0.000000,-1850.514855,-10035.851024
839.642035,0.000000,-666.185348,-9729.412825
839.642355,370.102971,222.061783,-9959.241474
839.642675,1924.535449,296.082377,-9882.631924
839.642995,2664.741391,74.020594,-10189.070123
839.643315,1924.535449,-962.267725,-10112.460574
839.643635,1110.308913,-2146.597232,-9959.241474
839.643955,1998.556043,-1776.494261,-10112.460574
839.644275,1480.411884,-1110.308913,-10342.289223
839.644595,0.000000,0.000000,-10265.679673
839.644915,-740.205942,888.247130,-9729.412825
839.645235,740.205942,518.144159,-10189.070123
839.645555,2368.659014,222.061783,-10418.898773
839.645875,2220.617826,-962.267725,-10572.117872
839.646195,296.082377,-666.185348,-9882.631924
839.646515,-222.061783,-888.247130,-10495.508323
839.646835,-1110.308913,-814.226536,-9652.803275
839.647155,-1332.370696,-962.267725,-10035.851024
839.647475,-666.185348,-592.164754,-9959.241474
839.647795,740.205942,-222.061783,-10035.851024
839.648115,1628.453072,740.205942,-10572.117872
839.648435,1406.391290,740.205942,-10572.117872
839.648755,666.185348,592.164754,-10342.289223
839.649075,-518.144159,814.226536,-10342.289223
839.649395,-2072.576638,1406.391290,-10112.460574
