#time,accel_x,accel_y,accel_z
898.842591,518.144159,74.020594,-9959.241474
898.842911,296.082377,-222.061783,-10189.070123
898.843231,444.123565,74.020594,-10189.070123
898.843551,518.144159,666.185348,-10265.679673
898.843871,296.082377,592.164754,-10112.460574
898.844191,370.102971,740.205942,-10265.679673
898.844511,148.041188,518.144159,-10418.898773
898.844831,518.144159,148.041188,-10112.460574
898.845151,888.247130,0.000000,-10112.460574
898.845471,888.247130,0.000000,-9882.631924
898.845791,1036.288319,222.061783,-10265.679673
898.846111,518.144159,444.123565,-10342.289223
898.846431,-148.041188,740.205942,-8733.488677
898.846751,-222.061783,370.102971,-9882.631924
898.847071,74.020594,0.000000,-10112.460574
898.847391,296.082377,-148.041188,-10035.851024
898.847711,370.102971,-222.061783,-10035.851024
898.848031,888.247130,148.041188,-10418.898773
898.848351,1184.329507,518.144159,-9882.631924
898.848671,666.185348,888.247130,-10035.851024
898.848991,222.061783,666.185348,-10035.851024
898.849311,296.082377,222.061783,-9346.365076
898.849631,370.102971,-296.082377,-9882.631924
898.849951,370.102971,-222.061783,-9882.631924
898.850271,-148.041188,-518.144159,-10035.851024
898.850591,-518.144159,-296.082377,-10035.851024
898.850910,-444.123565,-296.082377,-10112.460574
898.851230,-444.123565,-148.041188,-9959.241474
898.851550,-370.102971,-148.041188,-10035.851024
898.851870,-444.123565,-370.102971,-10265.679673
898.852190,74.020594,-296.082377,-10035.851024
898.852510,222.061783,-592.164754,-10189.070123
898.852830,-592.164754,-740.205942,-10035.851024
898.853150,-1036.288319,-962.267725,-10112.460574
898.853470,-814.226536,-740.205942,-9422.974625
898.853790,-1036.288319,-592.164754,-10418.898773
898.854110,-1554.432478,-888.247130,-10112.460574
898.854430,-2146.597232,-1554.432478,-10189.070123
898.854750,-1998.556043,-1702.473667,-9806.022374
898.855070,-888.247130,-1702.473667,-10418.898773
898.855390,-1036.288319,-1110.308913,-9959.241474
898.855710,-1332.370696,-1554.432478,-10035.851024
898.856030,-1036.288319,-1628.453072,-9959.241474
898.856350,0.000000,-2294.638420,-9729.412825
898.856670,0.000000,-1776.494261,-9959.241474
898.856990,-1184.329507,-2220.617826,-9882.631924
898.857310,-2738.761985,-2886.803174,-9806.022374
898.857630,-3108.864956,-3330.926739,-9576.193725
898.857950,-2812.782580,-3552.988522,-9576.193725
898.858270,-2516.700203,-3034.844362,-9806.022374
898.858590,-3256.906145,-3404.947333,-9806.022374
898.858910,-3034.844362,-3627.009116,-9882.631924
898.859230,-962.267725,-3627.009116,-9652.803275
898.859550,592.164754,-2886.803174,-10265.679673
898.859870,1184.329507,-1850.514855,-10265.679673
898.860190,74.020594,-1110.308913,-10418.898773
898.860510,-1258.350101,-1110.308913,-10801.946522
898.860830,-2146.597232,-1776.494261,-10418.898773
898.861150,-3404.947333,-2738.761985,-10265.679673
898.861470,-5329.482782,-3404.947333,-9806.022374
898.861790,-5477.523971,-4959.379811,-9882.631924
898.862110,-3701.029710,-5329.482782,-9729.412825
898.862430,-1406.391290,-5181.441594,-9959.241474
898.862750,0.000000,-3627.009116,-10265.679673
898.863070,370.102971,-1702.473667,-10495.508323
898.863390,1332.370696,592.164754,-9576.193725
898.863710,2516.700203,1628.453072,-11031.775171
898.864030,2812.782580,1110.308913,-10725.336972
898.864350,1776.494261,-518.144159,-10801.946522
898.864670,-370.102971,-2368.659014,-10418.898773
898.864990,-2516.700203,-2886.803174,-11491.432470
898.865310,-4663.297435,-3701.029710,-10035.851024
898.865630,-5551.544565,-3923.091493,-9269.755526
898.865950,-5033.400406,-4737.318029,-9422.974625
898.866270,-2220.617826,-5107.421000,-9346.365076
898.866590,0.000000,-4145.153275,-9729.412825
898.866910,1924.535449,-2368.659014,-10342.289223
898.867230,2960.823768,0.000000,-10189.070123
898.867550,3849.070898,2072.576638,-10495.508323
898.867870,4737.318029,3404.947333,-10878.556072
898.868190,2220.617826,2664.741391,-11184.994271
898.868510,-1850.514855,592.164754,-10572.117872
898.868830,-5107.421000,-2442.679609,-9652.803275
898.869150,-6143.709319,-5551.544565,-9499.584175
898.869470,-5107.421000,-6883.915261,-9346.365076
898.869790,-4071.132681,-6957.935855,-9193.145976
898.870110,-3478.967927,-5477.523971,-8963.317327
898.870430,-1628.453072,-2516.700203,-9652.803275
898.870750,666.185348,1036.288319,-10572.117872
898.871070,2146.597232,4071.132681,-10495.508323
898.871390,2220.617826,5033.400406,-10878.556072
898.871710,2368.659014,3552.988522,-10572.117872
898.872030,2220.617826,592.164754,-11338.213370
898.872350,222.061783,-1258.350101,-10495.508323
898.872670,-2146.597232,-2960.823768,-9882.631924
898.872990,-4293.194464,-4293.194464,-9652.803275
898.873310,-5847.626942,-4219.173869,-8350.440928
898.873630,-7698.141797,-4811.338623,-9346.365076
898.873950,-7328.038826,-4959.379811,-9193.145976
898.874270,-4663.297435,-4885.359217,-9193.145976
898.874590,-222.061783,-3256.906145,-9729.412825
898.874910,2516.700203,-518.144159,-9882.631924
898.875230,2886.803174,2368.659014,-10418.898773
898.875550,1110.308913,4145.153275,-10572.117872
898.875870,740.205942,4071.132681,-10418.898773
898.876190,740.205942,2886.803174,-10572.117872
898.876510,0.000000,-1036.288319,-10495.508323
898.876830,-2516.700203,-4071.132681,-10265.679673
898.877150,-5699.585753,-4737.318029,-10112.460574
898.877469,-7846.182985,-3330.926739,-9806.022374
898.877789,-8438.347739,-2220.617826,-9269.755526
898.878109,-6513.812290,-1776.494261,-9422.974625
898.878429,-1776.494261,-3478.967927,-9806.022374
898.878749,1998.556043,-4737.318029,-9806.022374
898.879069,2960.823768,-4219.173869,-10648.727422
898.879389,3404.947333,-2294.638420,-10035.851024
898.879709,4071.132681,1258.350101,-10572.117872
898.880029,4959.379811,3775.050304,-10801.946522
898.880349,3404.947333,3108.864956,-11031.775171
898.880669,-1036.288319,740.205942,-11031.775171
898.880989,-5477.523971,-2442.679609,-10035.851024
898.881309,-7846.182985,-5699.585753,-9882.631924
898.881629,-6957.935855,-7476.080014,-9729.412825
898.881949,-5107.421000,-7920.203579,-9039.926876
898.882269,-3849.070898,-7994.224174,-9269.755526
898.882589,-2072.576638,-6217.729913,-9346.365076
898.882909,0.000000,-4219.173869,-9806.022374
898.883229,3034.844362,0.000000,-10265.679673
898.883549,4959.379811,2664.741391,-10878.556072
898.883869,4959.379811,3404.947333,-11644.651570
898.884189,1554.432478,3108.864956,-10725.336972
898.884509,-2294.638420,0.000000,-10572.117872
898.884829,-3182.885551,-3256.906145,-10265.679673
898.885149,-3478.967927,-5033.400406,-10725.336972
898.885469,-5551.544565,-6217.729913,-9882.631924
898.885789,-6809.894666,-7105.977043,-9499.584175
898.886109,-6143.709319,-5625.565159,-9193.145976
898.886429,-3330.926739,-4589.276840,-10265.679673
898.886749,-962.267725,-2146.597232,-10035.851024
898.887069,-1628.453072,-1406.391290,-10495.508323
898.887389,-518.144159,-1924.535449,-9269.755526
898.887709,1776.494261,-962.267725,-10112.460574
898.888029,2886.803174,-370.102971,-10342.289223
898.888349,1850.514855,0.000000,-10495.508323
898.888669,74.020594,-1110.308913,-10572.117872
898.888989,-1110.308913,-1702.473667,-10112.460574
898.889309,-3404.947333,-2220.617826,-10801.946522
898.889629,-5551.544565,-3256.906145,-10189.070123
898.889949,-6587.832884,-4589.276840,-9422.974625
898.890269,-5847.626942,-5403.503377,-9269.755526
898.890589,-3478.967927,-4737.318029,-8963.317327
898.890909,-1258.350101,-3849.070898,-9806.022374
898.891229,1036.288319,-2368.659014,-9806.022374
898.891549,2812.782580,-814.226536,-10495.508323
898.891869,2664.741391,1406.391290,-10572.117872
898.892189,1184.329507,2886.803174,-10801.946522
898.892509,1110.308913,2886.803174,-10342.289223
898.892829,1998.556043,888.247130,-10572.117872
898.893149,1480.411884,-962.267725,-10189.070123
898.893469,-888.247130,-3108.864956,-9729.412825
898.893789,-3849.070898,-5403.503377,-9806.022374
898.894109,-5551.544565,-5921.647536,-9652.803275
898.894429,-4663.297435,-3182.885551,-9806.022374
898.894749,-4145.153275,-1406.391290,-9959.241474
898.895069,-3330.926739,-1554.432478,-9652.803275
898.895389,-888.247130,-2516.700203,-9422.974625
898.895709,444.123565,-1554.432478,-10265.679673
898.896029,2368.659014,592.164754,-10418.898773
898.896349,2442.679609,3034.844362,-10801.946522
898.896669,1406.391290,3404.947333,-10572.117872
898.896989,592.164754,592.164754,-10495.508323
898.897309,-518.144159,-814.226536,-10265.679673
898.897629,-2220.617826,-2442.679609,-9729.412825
898.897949,-3256.906145,-4367.215058,-9882.631924
898.898269,-4071.132681,-3997.112087,-9882.631924
898.898589,-4885.359217,-2294.638420,-9882.631924
898.898909,-3552.988522,-1480.411884,-9729.412825
898.899229,-2590.720797,-2072.576638,-9499.584175
898.899549,-1036.288319,-1554.432478,-10189.070123
898.899869,518.144159,-962.267725,-10342.289223
898.900189,2368.659014,222.061783,-10955.165621
898.900509,1628.453072,2220.617826,-9959.241474
898.900829,814.226536,3182.885551,-9959.241474
898.901149,-222.061783,3256.906145,-10418.898773
898.901469,222.061783,222.061783,-10418.898773
898.901789,-2368.659014,-3330.926739,-11184.994271
898.902109,-3478.967927,-5477.523971,-10035.851024
898.902428,-5255.462188,-6291.750507,-9039.926876
898.902748,-4959.379811,-3627.009116,-9346.365076
898.903068,-3552.988522,-1554.432478,-9576.193725
898.903388,1554.432478,-592.164754,-9422.974625
898.903708,4737.318029,0.000000,-10112.460574
898.904027,2368.659014,-592.164754,-10725.336972
898.904347,888.247130,0.000000,-10112.460574
898.904667,296.082377,814.226536,-10418.898773
898.904987,2294.638420,74.020594,-9959.241474
898.905307,2072.576638,-518.144159,-10035.851024
898.905626,-1258.350101,-3034.844362,-9959.241474
898.905946,-4293.194464,-4737.318029,-9882.631924
898.906266,-5477.523971,-3182.885551,-9422.974625
898.906586,-6513.812290,-2220.617826,-9576.193725
898.906906,-5995.668130,-1924.535449,-9806.022374
898.907225,-962.267725,-1924.535449,-10035.851024
898.907545,1628.453072,-2738.761985,-9422.974625
898.907865,222.061783,-2220.617826,-10572.117872
898.908185,-2294.638420,-1332.370696,-9729.412825
898.908505,-2368.659014,814.226536,-10112.460574
898.908824,1702.473667,3108.864956,-9959.241474
898.909144,5699.585753,1332.370696,-11031.775171
898.909464,4515.256246,222.061783,-11031.775171
898.909784,962.267725,-1406.391290,-11031.775171
898.910104,-1184.329507,-2368.659014,-10342.289223
898.910423,-740.205942,1406.391290,-11721.261119
898.910743,-3108.864956,1036.288319,-10342.289223
898.911063,-4071.132681,-1924.535449,-9806.022374
898.911383,-1998.556043,-3701.029710,-9806.022374
898.911703,-444.123565,-4293.194464,-9116.536426
898.912023,1184.329507,-2368.659014,-10418.898773
898.912342,1628.453072,518.144159,-10112.460574
898.912662,2590.720797,2960.823768,-10189.070123
898.912982,3034.844362,2516.700203,-10801.946522
898.913302,3182.885551,888.247130,-9193.145976
898.913622,2368.659014,0.000000,-10342.289223
898.913941,1184.329507,-444.123565,-10189.070123
898.914261,-888.247130,-296.082377,-9959.241474
898.914581,-1258.350101,518.144159,-10418.898773
898.914901,-1554.432478,-1332.370696,-9652.803275
898.915221,-666.185348,-3404.947333,-9806.022374
898.915540,444.123565,-3108.864956,-9882.631924
898.915860,962.267725,-2960.823768,-9039.926876
898.916180,3478.967927,148.041188,-9806.022374
898.916500,4589.276840,1110.308913,-9806.022374
898.916820,3182.885551,1406.391290,-9806.022374
898.917139,3404.947333,2146.597232,-10189.070123
898.917459,3182.885551,3182.885551,-10189.070123
898.917779,3478.967927,2368.659014,-9806.022374
898.918099,3552.988522,962.267725,-10648.727422
898.918419,1776.494261,-962.267725,-10189.070123
898.918738,-2368.659014,-1258.350101,-9576.193725
898.919058,-3923.091493,-2146.597232,-9422.974625
898.919378,-2590.720797,-2220.617826,-10189.070123
898.919698,1036.288319,-592.164754,-9346.365076
898.920018,592.164754,1184.329507,-10572.117872
898.920337,-888.247130,1998.556043,-10801.946522
898.920657,962.267725,222.061783,-10265.679673
898.920977,4737.318029,592.164754,-10572.117872
898.921297,5255.462188,2072.576638,-9729.412825
898.921617,2590.720797,5551.544565,-11644.651570
898.921936,592.164754,4885.359217,-10648.727422
898.922256,-1480.411884,1036.288319,-9806.022374
898.922576,-3256.906145,-2368.659014,-9193.145976
898.922896,-2442.679609,-5403.503377,-8656.879127
898.923216,814.226536,-3849.070898,-9039.926876
898.923535,-296.082377,-1332.370696,-10189.070123
898.923855,-222.061783,1628.453072,-9806.022374
898.924175,-1480.411884,1628.453072,-9729.412825
898.924495,518.144159,1702.473667,-9882.631924
898.924815,2368.659014,0.000000,-9576.193725
898.925135,2738.761985,962.267725,-10955.165621
898.925454,296.082377,2738.761985,-10878.556072
898.925774,-518.144159,3478.967927,-10648.727422
898.926094,1036.288319,2664.741391,-9959.241474
898.926414,222.061783,370.102971,-9959.241474
898.926734,-2072.576638,-148.041188,-9959.241474
898.927053,-5255.462188,-1480.411884,-10572.117872
898.927373,-5181.441594,-1110.308913,-10035.851024
898.927693,-3256.906145,-666.185348,-9806.022374
898.928013,-1924.535449,-1850.514855,-9806.022374
898.928333,1702.473667,-1332.370696,-9576.193725
898.928652,3627.009116,-222.061783,-10495.508323
898.928972,3108.864956,1406.391290,-10418.898773
898.929292,2960.823768,1628.453072,-9959.241474
898.929612,2368.659014,3701.029710,-10342.289223
898.929932,2812.782580,3923.091493,-10189.070123
898.930251,2072.576638,1776.494261,-9576.193725
898.930571,-666.185348,-2442.679609,-10112.460574
898.930891,-1406.391290,-4219.173869,-8963.317327
898.931211,-3256.906145,-3330.926739,-9882.631924
898.931531,-3182.885551,-1628.453072,-9346.365076
898.931850,-3478.967927,1258.350101,-9039.926876
898.932170,-592.164754,1628.453072,-9959.241474
898.932490,1036.288319,1184.329507,-9806.022374
898.932810,2590.720797,740.205942,-10035.851024
898.933130,3775.050304,-1110.308913,-10189.070123
898.933449,4959.379811,-666.185348,-9806.022374
898.933769,4367.215058,222.061783,-9806.022374
898.934089,3849.070898,518.144159,-10418.898773
898.934409,1776.494261,2368.659014,-10112.460574
898.934729,444.123565,1702.473667,-10725.336972
898.935048,-518.144159,518.144159,-10418.898773
898.935368,148.041188,-962.267725,-10035.851024
898.935688,-1110.308913,-1554.432478,-10112.460574
898.936008,-1702.473667,-2590.720797,-9729.412825
898.936328,0.000000,-2886.803174,-9729.412825
898.936648,1036.288319,-666.185348,-10725.336972
898.936967,2072.576638,666.185348,-10265.679673
898.937287,2146.597232,2146.597232,-10725.336972
898.937607,1110.308913,2146.597232,-10955.165621
898.937927,-148.041188,2368.659014,-10035.851024
898.938247,-444.123565,518.144159,-10955.165621
898.938566,-148.041188,-2146.597232,-10418.898773
898.938886,74.020594,-3330.926739,-9882.631924
898.939206,-740.205942,-2072.576638,-9882.631924
898.939526,-1776.494261,-1480.411884,-10112.460574
898.939846,-3034.844362,-1332.370696,-9729.412825
898.940165,-1850.514855,-1406.391290,-10035.851024
898.940485,-296.082377,-1998.556043,-9729.412825
898.940805,888.247130,1406.391290,-9806.022374
898.941125,1184.329507,444.123565,-10495.508323
898.941445,1332.370696,1628.453072,-9806.022374
898.941764,1554.432478,888.247130,-11184.994271
898.942084,1554.432478,0.000000,-10265.679673
898.942404,740.205942,-1036.288319,-9806.022374
898.942724,148.041188,-740.205942,-9959.241474
898.943044,-370.102971,1332.370696,-10342.289223
898.943363,-2664.741391,888.247130,-9499.584175
898.943683,-2442.679609,1258.350101,-10189.070123
898.944003,444.123565,-1850.514855,-9422.974625
898.944323,740.205942,-4071.132681,-9652.803275
898.944643,444.123565,-3997.112087,-9959.241474
898.944962,1110.308913,370.102971,-9806.022374
898.945282,1480.411884,3997.112087,-10189.070123
898.945602,1702.473667,4811.338623,-10725.336972
898.945922,2738.761985,3256.906145,-9959.241474
898.946242,2442.679609,-370.102971,-11338.213370
898.946561,1258.350101,-2220.617826,-9806.022374
898.946881,518.144159,-740.205942,-10035.851024
898.947201,-962.267725,0.000000,-10035.851024
898.947521,592.164754,666.185348,-9193.145976
898.947841,1628.453072,2368.659014,-10572.117872
898.948160,-1036.288319,814.226536,-10112.460574
898.948480,148.041188,592.164754,-10189.070123
898.948800,1184.329507,2072.576638,-11031.775171
898.949120,2886.803174,2294.638420,-10495.508323
898.949440,5181.441594,2886.803174,-10418.898773
898.949760,2886.803174,1850.514855,-10648.727422
898.950079,0.000000,-888.247130,-10035.851024
898.950399,-1406.391290,-962.267725,-10342.289223
898.950719,-666.185348,-222.061783,-9806.022374
898.951039,962.267725,2294.638420,-10342.289223
898.951359,2664.741391,2886.803174,-10418.898773
898.951678,370.102971,2072.576638,-9806.022374
898.951998,-444.123565,666.185348,-9346.365076
898.952318,74.020594,-296.082377,-10112.460574
898.952638,2072.576638,-1480.411884,-9346.365076
898.952958,2368.659014,740.205942,-10342.289223
898.953277,370.102971,962.267725,-10035.851024
898.953597,0.000000,518.144159,-9806.022374
898.953917,-222.061783,592.164754,-9806.022374
898.954237,1480.411884,0.000000,-10112.460574
898.954557,4367.215058,74.020594,-9806.022374
898.954876,3404.947333,-296.082377,-10572.117872
898.955196,1258.350101,-740.205942,-10112.460574
898.955516,-592.164754,962.267725,-9499.584175
898.955836,-2368.659014,1702.473667,-10189.070123
898.956156,-1036.288319,370.102971,-10112.460574
898.956475,0.000000,-592.164754,-10189.070123
898.956795,-592.164754,-444.123565,-10495.508323
898.957115,-740.205942,814.226536,-10342.289223
898.957435,-296.082377,1702.473667,-9806.022374
898.957755,74.020594,2146.597232,-10572.117872
898.958074,1036.288319,2738.761985,-10418.898773
898.958394,1332.370696,2738.761985,-11261.603821
898.958714,370.102971,3478.967927,-10725.336972
898.959034,-3108.864956,2368.659014,-10801.946522
898.959354,-3330.926739,962.267725,-10112.460574
898.959673,-740.205942,-592.164754,-10189.070123
898.959993,1776.494261,-2738.761985,-9882.631924
898.960313,2294.638420,-1998.556043,-10035.851024
898.960633,296.082377,-1332.370696,-10189.070123
898.960953,-666.185348,-148.041188,-10265.679673
898.961273,444.123565,962.267725,-9499.584175
898.961592,1110.308913,2886.803174,-10112.460574
898.961912,3330.926739,2738.761985,-10342.289223
898.962232,3108.864956,1110.308913,-10418.898773
898.962552,2738.761985,-370.102971,-9729.412825
898.962872,1776.494261,-1110.308913,-9729.412825
898.963191,2072.576638,-666.185348,-8963.317327
898.963511,3478.967927,1036.288319,-9882.631924
898.963831,1480.411884,740.205942,-10342.289223
898.964151,-814.226536,888.247130,-9499.584175
898.964471,-2294.638420,1332.370696,-8810.098227
898.964790,-1406.391290,1406.391290,-9346.365076
898.965110,962.267725,888.247130,-9806.022374
898.965430,2442.679609,0.000000,-10265.679673
898.965750,2516.700203,-1110.308913,-10112.460574
898.966070,2072.576638,-888.247130,-9193.145976
898.966389,444.123565,-1406.391290,-9959.241474
898.966709,-296.082377,-296.082377,-9729.412825
898.967029,-1924.535449,814.226536,-9882.631924
898.967349,-2072.576638,3182.885551,-10648.727422
898.967669,-518.144159,2368.659014,-10418.898773
898.967988,-148.041188,814.226536,-10801.946522
898.968308,518.144159,-2368.659014,-10189.070123
898.968628,740.205942,-1924.535449,-10265.679673
898.968948,1184.329507,-1184.329507,-10342.289223
898.969268,592.164754,-666.185348,-10572.117872
898.969587,-296.082377,592.164754,-10112.460574
898.969907,-592.164754,962.267725,-10189.070123
898.970227,666.185348,1480.411884,-10342.289223
898.970547,0.000000,1480.411884,-10189.070123
898.970867,-1332.370696,1554.432478,-10495.508323
898.971186,-1998.556043,296.082377,-9882.631924
898.971506,-814.226536,-1110.308913,-9959.241474
898.971826,814.226536,-1332.370696,-11338.213370
898.972146,1554.432478,-1184.329507,-10495.508323
898.972466,370.102971,-74.020594,-9806.022374
898.972785,296.082377,3404.947333,-10112.460574
898.973105,888.247130,5625.565159,-10801.946522
898.973425,1554.432478,5403.503377,-10189.070123
898.973745,1554.432478,2960.823768,-10342.289223
898.974065,814.226536,-1406.391290,-9729.412825
898.974385,1850.514855,-5773.606348,-9193.145976
898.974704,740.205942,-7846.182985,-8963.317327
898.975024,-1036.288319,-4885.359217,-8733.488677
898.975344,-296.082377,-814.226536,-9652.803275
898.975664,814.226536,2294.638420,-10878.556072
898.975984,370.102971,2738.761985,-10265.679673
898.976303,-2368.659014,3182.885551,-10265.679673
898.976623,-2294.638420,1628.453072,-9652.803275
898.976943,-518.144159,-2072.576638,-9806.022374
898.977263,2442.679609,-4515.256246,-9729.412825
898.977583,1998.556043,-3923.091493,-10189.070123
898.977902,370.102971,-2886.803174,-9652.803275
898.978222,222.061783,592.164754,-9882.631924
898.978542,666.185348,3478.967927,-10572.117872
898.978862,444.123565,6143.709319,-10495.508323
898.979182,1036.288319,6439.791695,-10725.336972
898.979501,-148.041188,3701.029710,-10572.117872
898.979821,888.247130,370.102971,-10112.460574
898.980141,740.205942,-3108.864956,-9729.412825
898.980461,-222.061783,-4367.215058,-9652.803275
898.980781,666.185348,-1998.556043,-8503.660028
898.981100,1406.391290,814.226536,-10342.289223
898.981420,3627.009116,4515.256246,-10495.508323
898.981740,1702.473667,4811.338623,-9959.241474
898.982060,1258.350101,4367.215058,-10648.727422
898.982380,1924.535449,3701.029710,-10112.460574
898.982699,3478.967927,444.123565,-10878.556072
898.983019,2812.782580,-2072.576638,-10035.851024
898.983339,1110.308913,-2220.617826,-9269.755526
898.983659,740.205942,-2072.576638,-9576.193725
898.983979,1998.556043,-592.164754,-9652.803275
898.984298,1776.494261,-370.102971,-9806.022374
898.984618,-222.061783,666.185348,-8886.707777
898.984938,-1332.370696,1480.411884,-9882.631924
898.985258,1184.329507,1480.411884,-10418.898773
898.985578,2664.741391,888.247130,-10495.508323
898.985897,3182.885551,74.020594,-9269.755526
898.986217,1924.535449,0.000000,-9806.022374
898.986537,296.082377,-814.226536,-10035.851024
898.986857,-518.144159,666.185348,-10189.070123
898.987177,-74.020594,1998.556043,-10342.289223
898.987497,74.020594,3552.988522,-10265.679673
898.987816,444.123565,1628.453072,-10572.117872
898.988136,296.082377,888.247130,-10725.336972
898.988456,-666.185348,444.123565,-10418.898773
898.988776,-962.267725,666.185348,-10801.946522
898.989096,0.000000,370.102971,-10189.070123
898.989415,222.061783,222.061783,-9806.022374
898.989735,74.020594,-666.185348,-10189.070123
898.990055,-296.082377,-1184.329507,-10265.679673
898.990375,0.000000,0.000000,-9882.631924
898.990695,74.020594,1776.494261,-10418.898773
898.991014,1480.411884,1628.453072,-10265.679673
898.991334,0.000000,1110.308913,-10189.070123
898.991654,-888.247130,-1036.288319,-9806.022374
898.991974,-1850.514855,-2960.823768,-9729.412825
898.992294,-2294.638420,-3478.967927,-9576.193725
898.992613,-1332.370696,-2516.700203,-10035.851024
898.992933,-1258.350101,148.041188,-9116.536426
898.993253,-370.102971,740.205942,-9882.631924
898.993573,0.000000,592.164754,-10418.898773
898.993893,222.061783,-518.144159,-10572.117872
898.994212,518.144159,-962.267725,-10112.460574
898.994532,1480.411884,-444.123565,-9346.365076
898.994852,2146.597232,1554.432478,-10189.070123
898.995172,148.041188,2294.638420,-10801.946522
898.995492,-1332.370696,1554.432478,-10725.336972
898.995811,-888.247130,-222.061783,-9729.412825
898.996131,1258.350101,-1184.329507,-9882.631924
898.996451,2442.679609,-888.247130,-10189.070123
898.996771,1628.453072,518.144159,-10495.508323
898.997091,-222.061783,1554.432478,-10035.851024
898.997410,0.000000,1702.473667,-10495.508323
898.997730,592.164754,1554.432478,-10342.289223
898.998050,74.020594,-370.102971,-9882.631924
898.998370,222.061783,-814.226536,-10418.898773
898.998690,222.061783,74.020594,-11108.384721
898.999010,2146.597232,222.061783,-10725.336972
898.999329,3552.988522,1110.308913,-9652.803275
898.999649,4737.318029,1628.453072,-10725.336972
898.999969,4071.132681,3404.947333,-11338.213370
899.000289,1850.514855,4145.153275,-10572.117872
899.000609,-888.247130,4145.153275,-10725.336972
899.000928,-1110.308913,3478.967927,-9882.631924
899.001248,1332.370696,666.185348,-9576.193725
899.001568,2146.597232,-1924.535449,-9806.022374
899.001888,1998.556043,-4515.256246,-9499.584175
899.002208,740.205942,-3404.947333,-9422.974625
899.002528,1924.535449,-2664.741391,-9729.412825
899.002848,2072.576638,-296.082377,-9729.412825
899.003168,1628.453072,2886.803174,-9882.631924
899.003487,1184.329507,3627.009116,-9806.022374
899.003807,222.061783,4071.132681,-10418.898773
899.004127,-296.082377,518.144159,-9882.631924
899.004447,370.102971,-2220.617826,-10648.727422
899.004767,888.247130,-2664.741391,-9729.412825
899.005087,1702.473667,-2516.700203,-9806.022374
899.005407,1924.535449,-962.267725,-10189.070123
899.005727,814.226536,1406.391290,-9729.412825
899.006047,-666.185348,3478.967927,-10572.117872
899.006367,-518.144159,4219.173869,-10342.289223
899.006687,-962.267725,4737.318029,-10878.556072
899.007006,-1332.370696,888.247130,-9882.631924
899.007326,-148.041188,-592.164754,-9806.022374
899.007646,2072.576638,-3182.885551,-10035.851024
899.007966,1850.514855,-2960.823768,-10418.898773
899.008286,814.226536,-1184.329507,-11338.213370
899.008606,0.000000,2664.741391,-10495.508323
899.008926,-2516.700203,4737.318029,-11031.775171
899.009246,-3330.926739,6587.832884,-11184.994271
899.009566,-2590.720797,5329.482782,-10495.508323
899.009886,-2812.782580,2220.617826,-11184.994271
899.010206,-370.102971,-1036.288319,-9269.755526
899.010525,888.247130,-3849.070898,-10189.070123
899.010845,888.247130,-5181.441594,-9806.022374
899.011165,1258.350101,-2812.782580,-9576.193725
899.011485,-1258.350101,-592.164754,-10035.851024
899.011805,-1480.411884,2220.617826,-9422.974625
899.012125,-2294.638420,2664.741391,-9422.974625
899.012445,740.205942,2590.720797,-10572.117872
899.012765,444.123565,1406.391290,-10112.460574
899.013085,148.041188,-1110.308913,-9729.412825
899.013405,148.041188,-3182.885551,-9116.536426
899.013725,74.020594,-3997.112087,-9116.536426
899.014044,1332.370696,-3404.947333,-8963.317327
899.014364,0.000000,-1036.288319,-9499.584175
899.014684,74.020594,3182.885551,-9269.755526
899.015004,222.061783,5921.647536,-10725.336972
899.015324,0.000000,3849.070898,-9882.631924
899.015644,518.144159,518.144159,-9959.241474
899.015964,3552.988522,-3404.947333,-9346.365076
899.016284,3701.029710,-2960.823768,-9652.803275
899.016604,3182.885551,-2072.576638,-9729.412825
899.016924,1628.453072,1184.329507,-10189.070123
899.017243,222.061783,3108.864956,-9882.631924
899.017563,1480.411884,3849.070898,-10418.898773
899.017883,1924.535449,3034.844362,-10955.165621
899.018203,666.185348,1036.288319,-10265.679673
899.018523,148.041188,-1554.432478,-10418.898773
899.018843,888.247130,-2664.741391,-10112.460574
899.019163,2368.659014,-1998.556043,-10572.117872
899.019483,3256.906145,-370.102971,-11031.775171
899.019803,1998.556043,518.144159,-10878.556072
899.020123,592.164754,740.205942,-10955.165621
899.020443,2220.617826,2442.679609,-10572.117872
899.020762,3108.864956,2664.741391,-10801.946522
899.021082,2220.617826,2590.720797,-11338.213370
899.021402,1406.391290,0.000000,-10725.336972
899.021722,-370.102971,-1998.556043,-10418.898773
899.022042,-518.144159,-3627.009116,-9806.022374
899.022362,-666.185348,-2516.700203,-9422.974625
899.022682,-1110.308913,-296.082377,-9959.241474
899.023002,-1998.556043,1998.556043,-9806.022374
899.023322,-1628.453072,1332.370696,-10035.851024
899.023642,-962.267725,-740.205942,-9652.803275
899.023962,-740.205942,-1850.514855,-8963.317327
899.024281,370.102971,-1998.556043,-9576.193725
899.024601,2368.659014,-888.247130,-9806.022374
899.024921,2738.761985,74.020594,-10265.679673
899.025241,2516.700203,814.226536,-9882.631924
899.025561,-148.041188,2442.679609,-9806.022374
899.025881,-1924.535449,1702.473667,-10648.727422
899.026201,-2368.659014,962.267725,-10112.460574
899.026521,-1554.432478,222.061783,-9882.631924
899.026841,-2072.576638,-962.267725,-9729.412825
899.027161,-2738.761985,-1850.514855,-9806.022374
899.027481,-1406.391290,-2146.597232,-10572.117872
899.027800,-222.061783,-444.123565,-9959.241474
899.028120,-1036.288319,148.041188,-10955.165621
899.028440,444.123565,518.144159,-10572.117872
899.028760,666.185348,1850.514855,-10035.851024
899.029080,-814.226536,1258.350101,-11108.384721
899.029400,148.041188,74.020594,-10878.556072
899.029720,-666.185348,-370.102971,-10035.851024
899.030040,-2664.741391,444.123565,-11874.480219
899.030360,-222.061783,-222.061783,-10495.508323
899.030680,2220.617826,666.185348,-10418.898773
899.030999,2294.638420,666.185348,-11261.603821
899.031319,2368.659014,888.247130,-10035.851024
899.031639,370.102971,888.247130,-11338.213370
899.031959,-962.267725,74.020594,-10189.070123
899.032279,-1480.411884,444.123565,-9652.803275
899.032599,1184.329507,1184.329507,-10418.898773
899.032919,3034.844362,1480.411884,-9806.022374
899.033239,3552.988522,1184.329507,-10265.679673
899.033559,2368.659014,1184.329507,-10495.508323
899.033879,1184.329507,1850.514855,-9806.022374
899.034199,1628.453072,2368.659014,-9806.022374
899.034518,2812.782580,1184.329507,-9806.022374
899.034838,3182.885551,-592.164754,-9193.145976
899.035158,1184.329507,-1110.308913,-9346.365076
899.035478,814.226536,-1554.432478,-9576.193725
899.035798,74.020594,0.000000,-8197.221829
899.036118,1702.473667,1110.308913,-10112.460574
899.036438,3552.988522,2368.659014,-10035.851024
899.036758,2220.617826,2294.638420,-10189.070123
899.037078,1628.453072,1628.453072,-10342.289223
899.037398,-148.041188,1332.370696,-9269.755526
899.037718,-444.123565,-370.102971,-10189.070123
899.038037,1628.453072,-1258.350101,-10112.460574
899.038357,2072.576638,-1480.411884,-10112.460574
899.038677,1702.473667,-444.123565,-10035.851024
899.038997,962.267725,888.247130,-10725.336972
899.039317,962.267725,1406.391290,-10725.336972
899.039637,-148.041188,1776.494261,-11184.994271
899.039957,1036.288319,444.123565,-10112.460574
899.040277,740.205942,-518.144159,-10035.851024
899.040597,-3256.906145,-962.267725,-10495.508323
899.040917,-3478.967927,-148.041188,-9729.412825
899.041237,-1110.308913,1406.391290,-10572.117872
899.041556,888.247130,74.020594,-10801.946522
899.041876,1258.350101,518.144159,-10495.508323
899.042196,-518.144159,-444.123565,-10342.289223
899.042516,-2664.741391,-592.164754,-9959.241474
899.042836,-1258.350101,-666.185348,-10189.070123
899.043156,518.144159,444.123565,-9959.241474
899.043476,592.164754,592.164754,-10189.070123
899.043796,-814.226536,0.000000,-10112.460574
899.044116,-1850.514855,-2220.617826,-10418.898773
899.044436,-1258.350101,-2590.720797,-9269.755526
899.044755,-148.041188,222.061783,-9652.803275
899.045075,518.144159,2368.659014,-9959.241474
899.045395,740.205942,3108.864956,-10342.289223
899.045715,592.164754,1554.432478,-9652.803275
899.046035,-1110.308913,-1776.494261,-9499.584175
899.046355,-888.247130,-3552.988522,-8886.707777
899.046675,-814.226536,-4367.215058,-9959.241474
899.046995,740.205942,-3404.947333,-9269.755526
899.047315,-814.226536,-592.164754,-9729.412825
899.047635,-1554.432478,2146.597232,-10342.289223
899.047955,-1850.514855,2220.617826,-10035.851024
899.048274,-1628.453072,1036.288319,-10189.070123
899.048594,2294.638420,444.123565,-9959.241474
899.048914,4441.235652,-2146.597232,-10342.289223
899.049234,3701.029710,-2368.659014,-10418.898773
899.049554,2368.659014,-2664.741391,-9499.584175
899.049874,1406.391290,-888.247130,-9882.631924
899.050194,1776.494261,2146.597232,-10342.289223
899.050514,1406.391290,3478.967927,-10725.336972
899.050834,518.144159,3182.885551,-10801.946522
899.051154,-962.267725,1554.432478,-10418.898773
899.051474,-1998.556043,-370.102971,-9806.022374
899.051793,518.144159,-1554.432478,-9729.412825
899.052113,2368.659014,-1850.514855,-9959.241474
899.052433,2664.741391,-888.247130,-10112.460574
899.052753,1554.432478,-222.061783,-10112.460574
899.053073,1480.411884,1332.370696,-10265.679673
899.053393,2590.720797,2294.638420,-9806.022374
899.053713,4071.132681,2960.823768,-10801.946522
899.054033,3627.009116,3256.906145,-10418.898773
899.054353,2590.720797,2886.803174,-11108.384721
899.054673,740.205942,592.164754,-10648.727422
899.054992,0.000000,148.041188,-9729.412825
899.055312,592.164754,-2146.597232,-9499.584175
899.055632,1924.535449,-1850.514855,-9806.022374
899.055952,1850.514855,-1332.370696,-9806.022374
899.056272,666.185348,1702.473667,-10648.727422
899.056592,-1110.308913,4071.132681,-10572.117872
899.056912,-1998.556043,3849.070898,-10342.289223
899.057232,-1110.308913,2886.803174,-9959.241474
899.057552,1628.453072,-740.205942,-9806.022374
899.057872,1628.453072,-2442.679609,-9882.631924
899.058192,888.247130,-1850.514855,-9882.631924
899.058511,296.082377,-444.123565,-10495.508323
899.058831,888.247130,592.164754,-9806.022374
899.059151,1850.514855,1332.370696,-10189.070123
899.059471,444.123565,1628.453072,-10265.679673
899.059791,-888.247130,1554.432478,-9959.241474
899.060111,-2072.576638,814.226536,-11108.384721
899.060431,-1258.350101,-222.061783,-9806.022374
899.060751,-370.102971,-1184.329507,-9499.584175
899.061071,-962.267725,-1702.473667,-10035.851024
899.061391,-1184.329507,-740.205942,-10265.679673
899.061711,-2368.659014,222.061783,-10265.679673
899.062030,-2220.617826,740.205942,-9576.193725
899.062350,-148.041188,2146.597232,-10189.070123
899.062670,518.144159,1406.391290,-10112.460574
899.062990,1480.411884,740.205942,-10189.070123
899.063310,-1110.308913,-1036.288319,-10418.898773
899.063630,-1480.411884,-1406.391290,-10189.070123
899.063950,-666.185348,-296.082377,-10265.679673
899.064270,592.164754,0.000000,-9806.022374
899.064590,1554.432478,1924.535449,-10035.851024
899.064910,444.123565,1776.494261,-10725.336972
899.065230,-962.267725,0.000000,-10418.898773
899.065549,-666.185348,-888.247130,-9882.631924
899.065869,-444.123565,-296.082377,-10495.508323
899.066189,-296.082377,888.247130,-9806.022374
899.066509,592.164754,1036.288319,-10418.898773
899.066829,1554.432478,888.247130,-10878.556072
899.067149,1480.411884,0.000000,-9499.584175
899.067469,1924.535449,592.164754,-10495.508323
899.067789,2220.617826,370.102971,-10418.898773
899.068109,3330.926739,518.144159,-10495.508323
899.068429,888.247130,148.041188,-10035.851024
899.068748,-1554.432478,148.041188,-10265.679673
899.069068,-1998.556043,-444.123565,-9652.803275
899.069388,296.082377,-296.082377,-9576.193725
899.069708,1702.473667,-444.123565,-9882.631924
899.070028,3775.050304,518.144159,-10035.851024
899.070348,3552.988522,148.041188,-10112.460574
899.070668,2886.803174,0.000000,-9576.193725
899.070988,3404.947333,0.000000,-9806.022374
899.071308,3478.967927,-222.061783,-9806.022374
899.071628,2220.617826,-148.041188,-9806.022374
899.071948,740.205942,-296.082377,-9959.241474
899.072267,0.000000,0.000000,-10035.851024
899.072587,-592.164754,-444.123565,-9729.412825
899.072907,1628.453072,-1110.308913,-9806.022374
899.073227,1776.494261,-888.247130,-9882.631924
899.073547,2886.803174,74.020594,-10725.336972
899.073867,2072.576638,-296.082377,-10418.898773
899.074187,888.247130,0.000000,-10035.851024
899.074507,-444.123565,740.205942,-10495.508323
899.074827,222.061783,1406.391290,-10878.556072
899.075147,296.082377,1924.535449,-10878.556072
899.075467,740.205942,1924.535449,-11031.775171
899.075786,74.020594,962.267725,-10572.117872
899.076106,-444.123565,74.020594,-11184.994271
899.076426,1184.329507,0.000000,-10801.946522
899.076746,592.164754,0.000000,-10418.898773
899.077066,-518.144159,1628.453072,-10801.946522
899.077386,-1776.494261,518.144159,-10265.679673
899.077706,-1554.432478,1036.288319,-10035.851024
899.078026,-1258.350101,-222.061783,-10112.460574
899.078346,-592.164754,-1998.556043,-9806.022374
899.078666,-666.185348,-1998.556043,-9806.022374
899.078986,-666.185348,-888.247130,-10035.851024
899.079305,-444.123565,962.267725,-9959.241474
899.079625,148.041188,2812.782580,-10342.289223
899.079945,666.185348,2516.700203,-9346.365076
899.080265,814.226536,222.061783,-9652.803275
899.080585,370.102971,-1332.370696,-9806.022374
899.080905,-962.267725,-2516.700203,-9422.974625
899.081225,-2590.720797,-2590.720797,-8197.221829
899.081545,-1184.329507,-1110.308913,-9729.412825
899.081865,-222.061783,1776.494261,-9729.412825
899.082185,-222.061783,2812.782580,-10112.460574
899.082504,-1480.411884,2220.617826,-10955.165621
899.082824,-2516.700203,1406.391290,-9116.536426
899.083144,-814.226536,518.144159,-9959.241474
899.083464,1924.535449,-1332.370696,-9729.412825
899.083784,2886.803174,-1332.370696,-9806.022374
899.084104,2516.700203,814.226536,-10878.556072
899.084424,1554.432478,2368.659014,-11031.775171
899.084744,1628.453072,3256.906145,-10189.070123
899.085064,148.041188,2516.700203,-11031.775171
899.085384,1258.350101,1036.288319,-9576.193725
899.085704,-592.164754,-370.102971,-10112.460574
899.086023,888.247130,-1258.350101,-10265.679673
899.086343,1776.494261,-962.267725,-9652.803275
899.086663,4293.194464,0.000000,-10801.946522
899.086983,4811.338623,1776.494261,-10112.460574
899.087303,3108.864956,2442.679609,-10648.727422
899.087623,2590.720797,3256.906145,-10648.727422
899.087943,1776.494261,2516.700203,-10265.679673
899.088263,666.185348,1776.494261,-10265.679673
899.088583,1110.308913,-444.123565,-9959.241474
899.088903,2442.679609,-1702.473667,-9806.022374
899.089223,2368.659014,-1258.350101,-10342.289223
899.089542,1850.514855,-296.082377,-10189.070123
899.089862,-814.226536,592.164754,-9882.631924
899.090182,-888.247130,1554.432478,-10495.508323
899.090502,-370.102971,1258.350101,-9499.584175
899.090822,1924.535449,1332.370696,-10112.460574
899.091142,1184.329507,296.082377,-10418.898773
899.091462,-1332.370696,-1184.329507,-10572.117872
899.091782,1184.329507,-222.061783,-10035.851024
899.092102,3034.844362,518.144159,-10801.946522
899.092422,1702.473667,592.164754,-9806.022374
899.092742,-370.102971,1850.514855,-9959.241474
899.093061,-1554.432478,1332.370696,-10112.460574
899.093381,-1332.370696,1332.370696,-9499.584175
899.093701,-888.247130,888.247130,-10572.117872
899.094021,222.061783,-222.061783,-9729.412825
899.094341,2368.659014,-1184.329507,-10572.117872
899.094661,1628.453072,-1258.350101,-10801.946522
899.094981,74.020594,-962.267725,-9806.022374
899.095301,-2294.638420,592.164754,-10418.898773
899.095621,-3034.844362,814.226536,-11414.822920
899.095941,-1036.288319,518.144159,-10495.508323
899.096260,-518.144159,-148.041188,-10572.117872
899.096580,-2886.803174,-370.102971,-10265.679673
899.096900,-3404.947333,-666.185348,-10342.289223
899.097220,-3034.844362,0.000000,-10265.679673
899.097540,-444.123565,-962.267725,-9882.631924
899.097860,740.205942,-296.082377,-10189.070123
899.098180,1480.411884,-1406.391290,-9806.022374
899.098500,-296.082377,-1332.370696,-10035.851024
899.098820,-814.226536,-444.123565,-9882.631924
899.099140,-740.205942,74.020594,-9806.022374
899.099460,-1406.391290,592.164754,-9959.241474
899.099779,-370.102971,1036.288319,-9882.631924
899.100099,-222.061783,222.061783,-10342.289223
899.100419,666.185348,0.000000,-10112.460574
899.100739,74.020594,-666.185348,-9806.022374
899.101059,-888.247130,-740.205942,-9959.241474
899.101379,-1036.288319,-1628.453072,-9269.755526
899.101699,-962.267725,-1406.391290,-9806.022374
899.102019,74.020594,-888.247130,-9346.365076
899.102339,2072.576638,148.041188,-9959.241474
899.102659,2590.720797,370.102971,-10265.679673
899.102979,3849.070898,1110.308913,-9652.803275
899.103299,3775.050304,1406.391290,-10495.508323
899.103619,3256.906145,1258.350101,-9806.022374
899.103939,2072.576638,1110.308913,-10418.898773
899.104259,2442.679609,814.226536,-10189.070123
899.104579,3034.844362,1184.329507,-10342.289223
899.104899,2664.741391,592.164754,-10801.946522
899.105219,1702.473667,592.164754,-10801.946522
899.105539,740.205942,1924.535449,-9039.926876
899.105859,370.102971,3478.967927,-11108.384721
899.106179,1554.432478,2812.782580,-10112.460574
899.106499,1480.411884,1480.411884,-10265.679673
899.106819,1850.514855,222.061783,-10495.508323
899.107139,1332.370696,-1110.308913,-9576.193725
899.107459,2368.659014,-222.061783,-10418.898773
899.107779,4515.256246,370.102971,-10112.460574
899.108099,3775.050304,888.247130,-10112.460574
899.108419,1332.370696,1332.370696,-10189.070123
899.108739,-666.185348,1924.535449,-9882.631924
899.109059,-666.185348,962.267725,-9422.974625
899.109379,-370.102971,740.205942,-9652.803275
899.109699,2072.576638,0.000000,-9806.022374
899.110019,1998.556043,-740.205942,-9422.974625
899.110339,2294.638420,-814.226536,-9959.241474
899.110659,740.205942,370.102971,-9882.631924
899.110979,-1998.556043,592.164754,-9652.803275
899.111299,-1850.514855,1702.473667,-9806.022374
899.111619,666.185348,1702.473667,-9652.803275
899.111939,740.205942,1998.556043,-9806.022374
899.112259,-666.185348,148.041188,-9729.412825
899.112579,-2220.617826,-1110.308913,-9346.365076
899.112899,-592.164754,-370.102971,-9882.631924
899.113219,1110.308913,148.041188,-10265.679673
899.113540,1850.514855,1036.288319,-10342.289223
899.113860,-296.082377,1258.350101,-10418.898773
899.114180,-3108.864956,1258.350101,-11338.213370
899.114500,-4441.235652,-222.061783,-10648.727422
899.114820,-3034.844362,-888.247130,-10648.727422
899.115140,-814.226536,222.061783,-10725.336972
899.115460,-370.102971,1332.370696,-10955.165621
899.115780,-592.164754,2812.782580,-11108.384721
899.116100,74.020594,2590.720797,-11721.261119
899.116420,1406.391290,1258.350101,-11184.994271
899.116740,2072.576638,-1036.288319,-10878.556072
899.117060,1184.329507,-1998.556043,-10648.727422
899.117380,-1110.308913,-444.123565,-10801.946522
899.117700,-2220.617826,1184.329507,-9882.631924
899.118020,-2220.617826,2886.803174,-10955.165621
899.118340,-296.082377,2368.659014,-10572.117872
899.118660,-222.061783,666.185348,-9959.241474
899.118980,-740.205942,-592.164754,-9499.584175
899.119300,-222.061783,-1480.411884,-9039.926876
899.119620,2220.617826,-814.226536,-9193.145976
899.119940,1480.411884,-1406.391290,-9422.974625
899.120260,3701.029710,-2664.741391,-8580.269578
899.120580,2960.823768,-2442.679609,-8503.660028
899.120900,1776.494261,-1850.514855,-9039.926876
899.121220,1702.473667,740.205942,-8503.660028
899.121540,2442.679609,2738.761985,-9806.022374
899.121860,2590.720797,2664.741391,-10112.460574
899.122180,1184.329507,-296.082377,-9806.022374
899.122500,-888.247130,-3627.009116,-9499.584175
899.122820,-1924.535449,-4071.132681,-9882.631924
899.123140,-888.247130,-2812.782580,-9576.193725
899.123460,1184.329507,222.061783,-10418.898773
899.123780,2812.782580,2146.597232,-10265.679673
899.124100,4589.276840,2960.823768,-11261.603821
899.124420,4071.132681,1628.453072,-11721.261119
899.124740,4293.194464,888.247130,-10418.898773
899.125060,3108.864956,518.144159,-11414.822920
899.125380,2516.700203,1036.288319,-11031.775171
899.125700,888.247130,1554.432478,-10801.946522
899.126020,148.041188,666.185348,-10955.165621
899.126340,222.061783,-888.247130,-10572.117872
899.126660,370.102971,-1406.391290,-10648.727422
899.126980,-370.102971,518.144159,-10801.946522
899.127300,-814.226536,1184.329507,-10342.289223
899.127620,-962.267725,1776.494261,-10189.070123
899.127940,296.082377,1702.473667,-10801.946522
899.128260,-296.082377,592.164754,-10189.070123
899.128580,-740.205942,-666.185348,-10265.679673
899.128900,370.102971,-222.061783,-9806.022374
899.129220,1924.535449,888.247130,-9882.631924
899.129540,1702.473667,2368.659014,-10572.117872
899.129860,0.000000,2294.638420,-8273.831378
899.130180,-1480.411884,888.247130,-9422.974625
899.130500,-1628.453072,-666.185348,-9806.022374
899.130820,-296.082377,-1554.432478,-8810.098227
899.131140,0.000000,-1554.432478,-9422.974625
899.131460,0.000000,-962.267725,-9959.241474
899.131780,-1776.494261,-740.205942,-9269.755526
899.132100,-2368.659014,-1110.308913,-9422.974625
899.132420,-1184.329507,-444.123565,-9269.755526
899.132740,148.041188,1258.350101,-10648.727422
899.133060,74.020594,3034.844362,-10801.946522
899.133380,0.000000,3034.844362,-10495.508323
899.133700,-1332.370696,1998.556043,-10265.679673
899.134020,-1406.391290,-1036.288319,-10265.679673
899.134340,-1480.411884,-2960.823768,-9346.365076
899.134660,0.000000,-2146.597232,-10265.679673
899.134980,148.041188,0.000000,-10955.165621
899.135300,-962.267725,1628.453072,-10495.508323
899.135620,-666.185348,2368.659014,-11184.994271
899.135940,-148.041188,1628.453072,-10495.508323
899.136260,296.082377,2146.597232,-10955.165621
899.136580,370.102971,2146.597232,-11108.384721
899.136900,0.000000,1998.556043,-10189.070123
899.137220,3923.091493,1998.556043,-10955.165621
899.137540,2516.700203,888.247130,-10112.460574
899.137860,518.144159,-1036.288319,-9959.241474
899.138180,814.226536,-1110.308913,-9806.022374
899.138500,740.205942,888.247130,-9806.022374
899.138820,518.144159,3034.844362,-9806.022374
899.139140,2886.803174,3552.988522,-10418.898773
899.139460,4219.173869,2368.659014,-10189.070123
899.139780,2368.659014,296.082377,-9193.145976
899.140100,518.144159,-1184.329507,-9882.631924
899.140420,518.144159,-518.144159,-8963.317327
899.140740,2886.803174,-148.041188,-9193.145976
899.141060,4737.318029,1702.473667,-9959.241474
899.141380,4219.173869,1998.556043,-9422.974625
899.141700,2664.741391,2072.576638,-10112.460574
899.142020,888.247130,1332.370696,-10112.460574
899.142340,1184.329507,518.144159,-9499.584175
899.142660,296.082377,-370.102971,-10878.556072
899.142980,814.226536,-1628.453072,-9116.536426
899.143300,148.041188,-2664.741391,-9269.755526
899.143620,962.267725,-2072.576638,-10265.679673
899.143940,666.185348,-740.205942,-9806.022374
899.144260,222.061783,592.164754,-10189.070123
899.144580,2368.659014,2960.823768,-10955.165621
899.144900,2294.638420,3627.009116,-10572.117872
899.145220,814.226536,2146.597232,-10878.556072
899.145540,0.000000,-666.185348,-10342.289223
899.145860,-296.082377,-1628.453072,-10189.070123
899.146180,888.247130,-2294.638420,-10572.117872
899.146500,1184.329507,-1554.432478,-10418.898773
899.146820,-1776.494261,1036.288319,-10801.946522
899.147140,-2812.782580,1332.370696,-10418.898773
899.147460,-1332.370696,1110.308913,-10725.336972
899.147780,-296.082377,1036.288319,-10342.289223
899.148100,-1184.329507,-1554.432478,-10572.117872
899.148420,-1332.370696,-2590.720797,-9959.241474
899.148740,-2072.576638,-3182.885551,-10035.851024
899.149060,-962.267725,-2442.679609,-9576.193725
899.149380,-740.205942,-370.102971,-9422.974625
899.149700,370.102971,0.000000,-10112.460574
899.150020,1924.535449,0.000000,-10189.070123
899.150340,1850.514855,370.102971,-10572.117872
899.150660,-1332.370696,296.082377,-9959.241474
899.150980,-2590.720797,-1036.288319,-9652.803275
899.151300,-2368.659014,-2294.638420,-10495.508323
899.151620,-2442.679609,-2590.720797,-9882.631924
899.151940,-3404.947333,-2812.782580,-9576.193725
899.152260,-3478.967927,-1184.329507,-9882.631924
899.152580,-1184.329507,-666.185348,-10878.556072
899.152900,1776.494261,74.020594,-10265.679673
899.153220,2220.617826,1110.308913,-11644.651570
899.153540,1258.350101,2072.576638,-10418.898773
899.153860,-1184.329507,3404.947333,-10112.460574
899.154180,-370.102971,4441.235652,-10878.556072
899.154500,814.226536,4219.173869,-10495.508323
899.154820,3182.885551,1110.308913,-10648.727422
899.155140,3404.947333,-3108.864956,-9959.241474
899.155460,2812.782580,-6143.709319,-8886.707777
899.155780,1480.411884,-3478.967927,-10189.070123
899.156100,-666.185348,-888.247130,-9882.631924
899.156420,444.123565,2590.720797,-9806.022374
899.156740,370.102971,4367.215058,-10342.289223
899.157060,2072.576638,2664.741391,-9806.022374
899.157380,1924.535449,592.164754,-9882.631924
899.157700,2220.617826,-1332.370696,-10189.070123
899.158020,2886.803174,-666.185348,-9576.193725
899.158340,2960.823768,1036.288319,-9652.803275
899.158660,3108.864956,888.247130,-10265.679673
899.158980,1406.391290,0.000000,-9269.755526
899.159300,-148.041188,-814.226536,-10495.508323
899.159620,666.185348,-148.041188,-9806.022374
899.159940,74.020594,370.102971,-9422.974625
899.160260,3108.864956,1702.473667,-10418.898773
899.160580,3627.009116,1258.350101,-9422.974625
899.160900,2294.638420,444.123565,-10418.898773
899.161220,1110.308913,148.041188,-10342.289223
899.161540,74.020594,74.020594,-9729.412825
899.161860,888.247130,666.185348,-10648.727422
899.162180,2886.803174,1036.288319,-9806.022374
899.162500,3108.864956,2146.597232,-10265.679673
899.162820,1924.535449,2294.638420,-10801.946522
899.163140,444.123565,2664.741391,-9652.803275
899.163460,-296.082377,4441.235652,-10955.165621
899.163780,222.061783,3478.967927,-10878.556072
899.164100,592.164754,888.247130,-9729.412825
899.164420,370.102971,-1258.350101,-10572.117872
899.164740,-370.102971,-2960.823768,-9729.412825
899.165060,-962.267725,-1850.514855,-9422.974625
899.165380,-740.205942,1628.453072,-9193.145976
899.165700,1184.329507,3256.906145,-10572.117872
899.166020,1184.329507,3404.947333,-10418.898773
899.166340,-814.226536,2294.638420,-10801.946522
899.166660,-1998.556043,-1258.350101,-9499.584175
899.166980,-1258.350101,-1480.411884,-9882.631924
899.167300,0.000000,-1628.453072,-10648.727422
899.167620,0.000000,-740.205942,-9652.803275
899.167940,-1998.556043,0.000000,-10189.070123
899.168260,-3478.967927,888.247130,-10265.679673
899.168580,-3108.864956,222.061783,-9346.365076
899.168900,-1776.494261,1036.288319,-10725.336972
899.169220,1480.411884,0.000000,-9729.412825
899.169540,3478.967927,-370.102971,-9959.241474
899.169860,296.082377,-1184.329507,-10342.289223
899.170180,-1406.391290,-1258.350101,-9422.974625
899.170501,-1184.329507,-370.102971,-9959.241474
899.170821,2146.597232,1480.411884,-10342.289223
899.171141,1332.370696,2368.659014,-9652.803275
899.171461,666.185348,3182.885551,-11184.994271
899.171781,-1850.514855,1406.391290,-9882.631924
899.172101,-1406.391290,-1184.329507,-9499.584175
899.172421,518.144159,-1554.432478,-10418.898773
899.172741,1406.391290,-2294.638420,-9193.145976
899.173061,-222.061783,-962.267725,-9959.241474
899.173381,888.247130,592.164754,-10418.898773
899.173701,1702.473667,1332.370696,-9882.631924
899.174021,1480.411884,1776.494261,-10495.508323
899.174341,2220.617826,592.164754,-10112.460574
899.174661,3701.029710,222.061783,-9959.241474
899.174981,2516.700203,-740.205942,-10725.336972
899.175301,1998.556043,-888.247130,-9729.412825
899.175621,2442.679609,-888.247130,-9806.022374
899.175941,3478.967927,592.164754,-10725.336972
899.176261,2960.823768,1554.432478,-10112.460574
899.176581,666.185348,1480.411884,-11031.775171
899.176901,-518.144159,1554.432478,-9882.631924
899.177221,148.041188,-1776.494261,-9652.803275
899.177541,1332.370696,-1480.411884,-10035.851024
899.177861,2516.700203,-1480.411884,-10112.460574
899.178181,3034.844362,-518.144159,-10648.727422
899.178501,2368.659014,370.102971,-10495.508323
899.178821,2220.617826,2590.720797,-10035.851024
899.179141,2664.741391,2516.700203,-10265.679673
899.179461,1184.329507,518.144159,-10189.070123
899.179781,-370.102971,-1184.329507,-9499.584175
899.180101,0.000000,-1258.350101,-10035.851024
899.180421,-962.267725,-1702.473667,-10035.851024
899.180741,-592.164754,-740.205942,-9652.803275
899.181061,0.000000,-814.226536,-10801.946522
899.181381,518.144159,-370.102971,-9806.022374
899.181701,-888.247130,-222.061783,-10112.460574
899.182021,-2220.617826,666.185348,-10265.679673
899.182341,-2294.638420,888.247130,-9499.584175
899.182661,-1184.329507,0.000000,-10189.070123
899.182981,148.041188,-1998.556043,-10265.679673
899.183301,962.267725,-2368.659014,-9959.241474
899.183621,444.123565,-1406.391290,-10418.898773
899.183941,-592.164754,1184.329507,-10572.117872
899.184261,-3330.926739,2738.761985,-10189.070123
899.184581,-4367.215058,2960.823768,-11108.384721
899.184901,-4219.173869,444.123565,-9806.022374
899.185221,-4367.215058,-1924.535449,-9729.412825
899.185541,-3108.864956,-2590.720797,-10342.289223
899.185861,-1554.432478,-2960.823768,-9806.022374
899.186181,740.205942,-888.247130,-10878.556072
899.186501,1702.473667,1036.288319,-10495.508323
899.186821,148.041188,2738.761985,-9959.241474
899.187141,-1110.308913,2886.803174,-10342.289223
899.187461,-1184.329507,1702.473667,-10342.289223
899.187781,-148.041188,888.247130,-10189.070123
899.188101,74.020594,-592.164754,-10495.508323
899.188421,74.020594,-1924.535449,-9806.022374
899.188741,0.000000,-740.205942,-9729.412825
899.189061,-814.226536,740.205942,-10418.898773
899.189381,-1406.391290,4071.132681,-10265.679673
899.189701,-148.041188,4219.173869,-10495.508323
899.190021,1776.494261,3775.050304,-10265.679673
899.190341,2294.638420,1332.370696,-9499.584175
899.190661,2738.761985,-444.123565,-9729.412825
899.190981,3775.050304,-3997.112087,-9576.193725
899.191301,4293.194464,-4367.215058,-9039.926876
899.191621,4293.194464,-2516.700203,-10035.851024
899.191941,4737.318029,-592.164754,-9806.022374
899.192261,3775.050304,3256.906145,-10572.117872
899.192581,2072.576638,5329.482782,-10495.508323
899.192901,1332.370696,5107.421000,-9806.022374
899.193221,2442.679609,3404.947333,-10495.508323
899.193541,3034.844362,444.123565,-9882.631924
899.193861,2368.659014,-2516.700203,-9882.631924
899.194181,2368.659014,-3997.112087,-9499.584175
899.194501,3404.947333,-3478.967927,-9576.193725
899.194821,3330.926739,-740.205942,-9806.022374
899.195141,1998.556043,2220.617826,-10189.070123
899.195461,1702.473667,4737.318029,-9576.193725
899.195781,1036.288319,5551.544565,-10801.946522
899.196101,74.020594,3404.947333,-10801.946522
899.196421,1036.288319,592.164754,-9882.631924
899.196741,2442.679609,-1850.514855,-10189.070123
899.197061,2220.617826,-4219.173869,-9806.022374
899.197381,1036.288319,-3108.864956,-9652.803275
899.197701,0.000000,-1110.308913,-10112.460574
899.198021,-1258.350101,2146.597232,-9729.412825
899.198341,-1628.453072,4737.318029,-10955.165621
899.198661,-1110.308913,4071.132681,-10955.165621
899.198981,666.185348,2294.638420,-9806.022374
899.199301,222.061783,0.000000,-10955.165621
899.199621,444.123565,-2516.700203,-11184.994271
899.199941,222.061783,-1406.391290,-9729.412825
899.200261,-592.164754,444.123565,-10112.460574
899.200581,-1258.350101,1036.288319,-9882.631924
899.200901,-2368.659014,592.164754,-8810.098227
899.201221,-3997.112087,-296.082377,-10035.851024
899.201541,-4515.256246,0.000000,-9499.584175
899.201861,-3108.864956,666.185348,-10112.460574
899.202182,-148.041188,0.000000,-10342.289223
899.202502,1850.514855,-2072.576638,-9652.803275
899.202822,-1406.391290,-2590.720797,-9959.241474
899.203142,-2516.700203,-1702.473667,-9959.241474
899.203462,-2590.720797,0.000000,-9652.803275
899.203782,74.020594,3034.844362,-10648.727422
899.204102,1776.494261,3182.885551,-10189.070123
899.204422,888.247130,2368.659014,-10189.070123
899.204742,-1776.494261,-666.185348,-10801.946522
899.205062,-2886.803174,-3701.029710,-9346.365076
899.205382,-1480.411884,-3108.864956,-11414.822920
899.205702,370.102971,-518.144159,-10342.289223
899.206022,222.061783,1554.432478,-10035.851024
899.206342,-222.061783,3108.864956,-10495.508323
899.206662,-518.144159,1480.411884,-9729.412825
899.206983,666.185348,-1554.432478,-10035.851024
899.207303,2368.659014,-2664.741391,-10265.679673
899.207623,3256.906145,-1998.556043,-9346.365076
899.207943,1998.556043,222.061783,-10112.460574
899.208263,3256.906145,518.144159,-10801.946522
899.208583,3627.009116,666.185348,-10189.070123
899.208903,666.185348,666.185348,-10112.460574
899.209223,-1554.432478,148.041188,-10572.117872
899.209543,1628.453072,666.185348,-9346.365076
899.209863,4145.153275,-444.123565,-10801.946522
899.210183,4663.297435,0.000000,-10112.460574
899.210503,3108.864956,-1702.473667,-9729.412825
899.210823,2220.617826,-1554.432478,-10418.898773
899.211143,3108.864956,-888.247130,-9806.022374
899.211463,2886.803174,2072.576638,-10112.460574
899.211783,888.247130,2812.782580,-11031.775171
899.212104,1850.514855,2072.576638,-9422.974625
899.212424,2368.659014,-518.144159,-10112.460574
899.212744,3182.885551,-1924.535449,-10265.679673
899.213064,2072.576638,-1554.432478,-9652.803275
899.213384,222.061783,-1258.350101,-10878.556072
899.213704,0.000000,1258.350101,-9576.193725
899.214024,296.082377,1776.494261,-9806.022374
899.214344,962.267725,370.102971,-10189.070123
899.214664,3034.844362,-814.226536,-9499.584175
899.214984,1998.556043,-1110.308913,-10342.289223
899.215304,666.185348,-1184.329507,-10189.070123
899.215624,-296.082377,0.000000,-9193.145976
899.215944,888.247130,740.205942,-10418.898773
899.216264,888.247130,666.185348,-10189.070123
899.216584,-370.102971,1184.329507,-9039.926876
899.216905,-2960.823768,2072.576638,-10801.946522
899.217225,-1332.370696,2886.803174,-10342.289223
899.217545,-1036.288319,1110.308913,-10342.289223
899.217865,-222.061783,-1258.350101,-9959.241474
899.218185,740.205942,-2220.617826,-9116.536426
899.218505,-1924.535449,-1036.288319,-10112.460574
899.218825,-3849.070898,296.082377,-10189.070123
899.219145,-3923.091493,3552.988522,-9806.022374
899.219465,-2368.659014,5033.400406,-10495.508323
899.219785,296.082377,2294.638420,-9882.631924
899.220105,592.164754,-666.185348,-9806.022374
899.220425,-1110.308913,-1776.494261,-10648.727422
899.220745,-2368.659014,-2368.659014,-9269.755526
899.221065,-2738.761985,0.000000,-9806.022374
899.221385,-666.185348,962.267725,-9959.241474
899.221706,2072.576638,1702.473667,-9422.974625
899.222026,370.102971,740.205942,-10648.727422
899.222346,-1554.432478,0.000000,-10035.851024
899.222666,-2220.617826,-296.082377,-9806.022374
899.222986,-1850.514855,0.000000,-10112.460574
899.223306,-370.102971,666.185348,-9806.022374
899.223626,-1850.514855,1332.370696,-9806.022374
899.223946,-2368.659014,148.041188,-10265.679673
899.224266,-444.123565,0.000000,-9806.022374
899.224586,2442.679609,1480.411884,-10418.898773
899.224906,4737.318029,1258.350101,-10265.679673
899.225226,7624.121203,2146.597232,-10342.289223
899.225546,5403.503377,1924.535449,-10418.898773
899.225866,2294.638420,-592.164754,-10725.336972
899.226186,2146.597232,-814.226536,-8886.707777
899.226506,2368.659014,-1036.288319,-10648.727422
899.226827,2960.823768,-592.164754,-9882.631924
899.227147,1480.411884,1924.535449,-10189.070123
899.227467,1776.494261,3034.844362,-10955.165621
899.227787,3034.844362,1480.411884,-9806.022374
899.228107,2516.700203,444.123565,-10035.851024
899.228427,1406.391290,-1776.494261,-10572.117872
899.228747,296.082377,-1332.370696,-9346.365076
899.229067,-740.205942,-518.144159,-10112.460574
899.229387,-518.144159,222.061783,-9652.803275
899.229707,740.205942,666.185348,-9806.022374
899.230027,1776.494261,-740.205942,-10112.460574
899.230347,4367.215058,-518.144159,-9806.022374
899.230667,3923.091493,370.102971,-10189.070123
899.230987,1776.494261,740.205942,-10572.117872
899.231307,1258.350101,814.226536,-9652.803275
899.231628,740.205942,1184.329507,-10878.556072
899.231948,1332.370696,-740.205942,-10495.508323
899.232268,-222.061783,-2590.720797,-9422.974625
899.232588,-2368.659014,-2072.576638,-10189.070123
899.232908,-2812.782580,-296.082377,-10035.851024
899.233228,-444.123565,962.267725,-10495.508323
899.233548,888.247130,1406.391290,-10648.727422
899.233868,666.185348,814.226536,-9806.022374
899.234188,-370.102971,-888.247130,-10189.070123
899.234508,-1184.329507,-1850.514855,-10495.508323
899.234828,-888.247130,-1332.370696,-9422.974625
899.235148,-296.082377,74.020594,-10189.070123
899.235468,1998.556043,0.000000,-9882.631924
899.235788,2368.659014,-444.123565,-10418.898773
899.236108,-740.205942,296.082377,-10495.508323
899.236428,-1776.494261,1332.370696,-10342.289223
899.236749,-2220.617826,2516.700203,-10112.460574
899.237069,-2368.659014,2442.679609,-10648.727422
899.237389,-1406.391290,1036.288319,-9499.584175
899.237709,-3182.885551,-814.226536,-9576.193725
899.238029,-2368.659014,-2220.617826,-10265.679673
899.238349,-740.205942,-1924.535449,-9346.365076
899.238669,0.000000,592.164754,-10342.289223
899.238989,1036.288319,2664.741391,-10418.898773
899.239309,1184.329507,3108.864956,-10342.289223
899.239629,-1628.453072,2220.617826,-10648.727422
899.239949,-2442.679609,370.102971,-9806.022374
899.240269,-370.102971,-444.123565,-9882.631924
899.240589,740.205942,370.102971,-10495.508323
899.240909,2664.741391,740.205942,-10035.851024
899.241229,1924.535449,1998.556043,-10801.946522
899.241550,666.185348,296.082377,-10418.898773
899.241870,-888.247130,-1110.308913,-9806.022374
899.242190,0.000000,-1258.350101,-9959.241474
899.242510,1924.535449,0.000000,-9652.803275
899.242830,1036.288319,2590.720797,-10112.460574
899.243150,592.164754,2738.761985,-10725.336972
899.243470,-148.041188,296.082377,-9806.022374
899.243790,1554.432478,-296.082377,-9652.803275
899.244110,4293.194464,0.000000,-10495.508323
899.244430,6217.729913,1110.308913,-10035.851024
899.244750,3108.864956,1924.535449,-10495.508323
899.245070,740.205942,2442.679609,-10342.289223
899.245390,-148.041188,3330.926739,-9499.584175
899.245710,370.102971,1850.514855,-10572.117872
899.246030,1850.514855,0.000000,-9959.241474
899.246351,4959.379811,222.061783,-10112.460574
899.246671,4959.379811,148.041188,-10035.851024
899.246991,4071.132681,0.000000,-9729.412825
899.247311,1702.473667,1850.514855,-10265.679673
899.247631,-518.144159,962.267725,-10265.679673
899.247951,1110.308913,296.082377,-9346.365076
899.248271,1924.535449,888.247130,-10035.851024
899.248591,1480.411884,1480.411884,-10112.460574
899.248911,2146.597232,1110.308913,-9806.022374
899.249231,1628.453072,1110.308913,-10342.289223
899.249551,4145.153275,-148.041188,-10955.165621
899.249871,2664.741391,-2072.576638,-9882.631924
899.250191,-962.267725,-1998.556043,-10112.460574
899.250511,-3627.009116,-740.205942,-8886.707777
899.250831,-4811.338623,740.205942,-9193.145976
899.251151,-1998.556043,1258.350101,-10265.679673
899.251472,740.205942,1480.411884,-9882.631924
899.251792,370.102971,222.061783,-10189.070123
899.252112,1036.288319,-1332.370696,-9959.241474
899.252432,592.164754,-962.267725,-9039.926876
899.252752,-296.082377,444.123565,-10801.946522
899.253072,-888.247130,-148.041188,-9346.365076
899.253392,-2368.659014,0.000000,-10035.851024
899.253712,-2886.803174,-740.205942,-10725.336972
899.254032,-3775.050304,-592.164754,-9806.022374
899.254352,-2442.679609,740.205942,-10418.898773
899.254672,-518.144159,1406.391290,-10265.679673
899.254992,-518.144159,1406.391290,-10035.851024
899.255312,-1184.329507,-518.144159,-10265.679673
899.255632,-2368.659014,-1924.535449,-9652.803275
899.255952,-2960.823768,-2442.679609,-9422.974625
899.256273,-740.205942,-2146.597232,-10418.898773
899.256593,1480.411884,-740.205942,-9806.022374
899.256913,370.102971,814.226536,-10112.460574
899.257233,-444.123565,1036.288319,-10801.946522
899.257553,0.000000,1628.453072,-10418.898773
899.257873,-1110.308913,1628.453072,-10801.946522
899.258193,0.000000,-370.102971,-10342.289223
899.258513,1110.308913,-2146.597232,-9576.193725
899.258833,370.102971,-2664.741391,-11108.384721
899.259153,370.102971,-2146.597232,-9346.365076
899.259473,740.205942,74.020594,-11184.994271
899.259793,3034.844362,2294.638420,-10495.508323
899.260113,4737.318029,2590.720797,-10342.289223
899.260433,3552.988522,2368.659014,-11184.994271
899.260753,3034.844362,1332.370696,-10648.727422
899.261074,2886.803174,-148.041188,-9806.022374
899.261394,2960.823768,370.102971,-11108.384721
899.261714,148.041188,-296.082377,-9576.193725
899.262034,2738.761985,-518.144159,-10418.898773
899.262354,0.000000,962.267725,-9576.193725
899.262674,-2294.638420,-444.123565,-9652.803275
899.262994,-296.082377,222.061783,-9346.365076
899.263314,5255.462188,518.144159,-10495.508323
899.263634,4959.379811,1406.391290,-9806.022374
899.263954,2516.700203,1110.308913,-10265.679673
899.264274,1776.494261,148.041188,-9422.974625
899.264594,1924.535449,-370.102971,-9269.755526
899.264914,2072.576638,370.102971,-10342.289223
899.265234,2590.720797,1480.411884,-10112.460574
899.265554,814.226536,962.267725,-9729.412825
899.265874,518.144159,1628.453072,-10878.556072
899.266195,-74.020594,-814.226536,-9576.193725
899.266515,-1110.308913,-740.205942,-10265.679673
899.266835,-1258.350101,-1406.391290,-9729.412825
899.267155,296.082377,-1406.391290,-9576.193725
899.267475,-888.247130,518.144159,-10801.946522
899.267795,-2368.659014,1554.432478,-10495.508323
899.268115,-1258.350101,1628.453072,-10189.070123
899.268435,370.102971,3330.926739,-11261.603821
899.268755,1554.432478,2590.720797,-10342.289223
899.269075,1110.308913,1554.432478,-11184.994271
899.269395,1184.329507,518.144159,-10648.727422
899.269715,-814.226536,-222.061783,-9959.241474
899.270035,-1628.453072,-1184.329507,-10648.727422
899.270355,-1776.494261,-296.082377,-10342.289223
899.270675,-2442.679609,296.082377,-9959.241474
899.270996,-2294.638420,1480.411884,-10189.070123
899.271316,-1258.350101,2590.720797,-9959.241474
899.271636,-1628.453072,2072.576638,-10265.679673
899.271956,-888.247130,962.267725,-10648.727422
899.272276,0.000000,592.164754,-9499.584175
899.272596,0.000000,0.000000,-9882.631924
899.272916,592.164754,1036.288319,-10035.851024
899.273236,222.061783,518.144159,-9346.365076
899.273556,0.000000,888.247130,-10265.679673
899.273876,444.123565,814.226536,-9422.974625
899.274196,592.164754,370.102971,-9652.803275
899.274516,962.267725,1406.391290,-10189.070123
899.274836,296.082377,370.102971,-9499.584175
899.275156,148.041188,-222.061783,-9806.022374
899.275476,1110.308913,-592.164754,-10265.679673
899.275796,3256.906145,-1628.453072,-9806.022374
899.276117,962.267725,-296.082377,-9576.193725
899.276437,-296.082377,1110.308913,-10189.070123
899.276757,-592.164754,3404.947333,-10112.460574
899.277077,666.185348,3256.906145,-10801.946522
899.277397,2664.741391,888.247130,-10495.508323
899.277717,2738.761985,-2738.761985,-9882.631924
899.278037,1998.556043,-3478.967927,-10955.165621
899.278357,666.185348,-1998.556043,-9576.193725
899.278677,1702.473667,1184.329507,-10342.289223
899.278997,2960.823768,3330.926739,-10955.165621
899.279317,2220.617826,3478.967927,-9806.022374
899.279637,2220.617826,1850.514855,-10725.336972
899.279957,1258.350101,-444.123565,-10801.946522
899.280277,1258.350101,-2146.597232,-9576.193725
899.280597,1406.391290,-666.185348,-10572.117872
899.280918,2738.761985,0.000000,-9346.365076
899.281238,3627.009116,222.061783,-10342.289223
899.281558,2368.659014,888.247130,-10725.336972
899.281878,148.041188,740.205942,-9576.193725
899.282198,-1332.370696,2220.617826,-10035.851024
899.282518,-518.144159,1554.432478,-10265.679673
899.282838,2664.741391,-1184.329507,-9576.193725
899.283158,3330.926739,-1480.411884,-9959.241474
899.283478,148.041188,-2738.761985,-9652.803275
899.283798,-1702.473667,-1184.329507,-8886.707777
899.284118,-2368.659014,0.000000,-9882.631924
899.284438,-888.247130,148.041188,-9729.412825
899.284758,0.000000,1332.370696,-9882.631924
899.285078,0.000000,74.020594,-10265.679673
899.285398,370.102971,-1184.329507,-9269.755526
899.285719,296.082377,-444.123565,-10265.679673
899.286039,-148.041188,-444.123565,-10265.679673
899.286359,888.247130,222.061783,-9806.022374
899.286679,-1628.453072,1628.453072,-10648.727422
899.286999,-3108.864956,-296.082377,-10725.336972
899.287319,-3404.947333,-296.082377,-9882.631924
899.287639,-2442.679609,74.020594,-11414.822920
899.287959,-814.226536,-222.061783,-10189.070123
899.288279,-444.123565,-1110.308913,-9959.241474
899.288599,-518.144159,-444.123565,-11491.432470
899.288919,-1036.288319,-814.226536,-9806.022374
899.289239,0.000000,296.082377,-10189.070123
899.289559,444.123565,2442.679609,-10878.556072
899.289879,-592.164754,2738.761985,-10265.679673
899.290199,-1332.370696,3256.906145,-11261.603821
899.290519,-2146.597232,2220.617826,-10265.679673
899.290840,-2812.782580,-592.164754,-9729.412825
899.291160,0.000000,-1924.535449,-10342.289223
899.291480,518.144159,-3108.864956,-9729.412825
899.291800,1850.514855,-1258.350101,-9959.241474
899.292120,444.123565,740.205942,-9959.241474
899.292440,296.082377,1776.494261,-9116.536426
899.292760,-592.164754,2368.659014,-10342.289223
899.293080,370.102971,962.267725,-10342.289223
899.293400,2738.761985,-1184.329507,-9039.926876
899.293720,3108.864956,-740.205942,-10112.460574
899.294040,2960.823768,-1184.329507,-8963.317327
899.294360,4367.215058,222.061783,-10035.851024
899.294680,3775.050304,1332.370696,-9806.022374
899.295000,3108.864956,2220.617826,-10495.508323
899.295320,444.123565,666.185348,-9882.631924
899.295641,-296.082377,370.102971,-10955.165621
899.295961,-74.020594,-518.144159,-9193.145976
899.296281,1924.535449,-296.082377,-11108.384721
899.296601,2960.823768,-1184.329507,-9806.022374
899.296921,3404.947333,1480.411884,-10112.460574
899.297241,3552.988522,2442.679609,-11491.432470
899.297561,3552.988522,2368.659014,-10265.679673
899.297881,2442.679609,4293.194464,-10035.851024
899.298201,2368.659014,3552.988522,-11721.261119
899.298521,2442.679609,1480.411884,-9422.974625
899.298841,2220.617826,1480.411884,-10801.946522
899.299161,1850.514855,-370.102971,-10418.898773
899.299481,740.205942,-1036.288319,-8963.317327
899.299801,-1628.453072,444.123565,-10035.851024
899.300121,-1480.411884,2590.720797,-9499.584175
899.300442,148.041188,2442.679609,-9576.193725
899.300762,666.185348,1406.391290,-9806.022374
899.301082,-888.247130,-740.205942,-9346.365076
899.301402,-2442.679609,-2664.741391,-8503.660028
899.301722,-1110.308913,-1998.556043,-10265.679673
899.302042,0.000000,-2516.700203,-8427.050478
899.302321,370.102971,518.144159,-10265.679673
899.302641,-740.205942,3923.091493,-10495.508323
899.302961,-296.082377,3478.967927,-10035.851024
899.303281,888.247130,2812.782580,-11108.384721
899.303601,1776.494261,0.000000,-9806.022374
899.303921,0.000000,-1998.556043,-9882.631924
899.304241,-1184.329507,-2220.617826,-10648.727422
899.304561,-2220.617826,-2294.638420,-9806.022374
899.304881,-2368.659014,-1554.432478,-10112.460574
899.305202,-1554.432478,-444.123565,-10878.556072
899.305522,-2294.638420,1554.432478,-10189.070123
899.305842,-962.267725,3108.864956,-11797.870669
899.306162,-74.020594,3627.009116,-11338.213370
899.306482,-2146.597232,1924.535449,-10265.679673
899.306802,-1184.329507,666.185348,-11338.213370
899.307122,-592.164754,-2368.659014,-10265.679673
899.307442,-518.144159,-3256.906145,-10342.289223
899.307762,-666.185348,-2886.803174,-10035.851024
899.308082,-1406.391290,-444.123565,-9882.631924
899.308402,-518.144159,814.226536,-9959.241474
899.308722,2294.638420,1628.453072,-10418.898773
899.309042,2072.576638,962.267725,-9346.365076
899.309363,1480.411884,962.267725,-10495.508323
899.309683,518.144159,-370.102971,-9882.631924
899.310003,0.000000,-2442.679609,-9269.755526
899.310323,740.205942,-2220.617826,-9882.631924
899.310643,1406.391290,-2664.741391,-9729.412825
899.310963,1998.556043,-740.205942,-9499.584175
899.311283,1998.556043,592.164754,-10189.070123
899.311603,888.247130,592.164754,-8963.317327
899.311923,888.247130,296.082377,-9576.193725
899.312243,1776.494261,-592.164754,-10265.679673
899.312563,518.144159,-1998.556043,-8963.317327
899.312883,148.041188,-3627.009116,-9652.803275
899.313203,74.020594,-3627.009116,-9269.755526
899.313524,1702.473667,-1702.473667,-8733.488677
899.313844,4441.235652,740.205942,-10342.289223
899.314164,4663.297435,3552.988522,-10572.117872
899.314484,3478.967927,3849.070898,-10878.556072
899.314804,3997.112087,1924.535449,-12104.308868
899.315124,2442.679609,1036.288319,-10342.289223
899.315444,296.082377,222.061783,-10572.117872
899.315764,370.102971,518.144159,-10801.946522
899.316084,-1184.329507,888.247130,-10955.165621
899.316404,-296.082377,222.061783,-11874.480219
899.316724,444.123565,1332.370696,-10572.117872
899.317044,-148.041188,814.226536,-10265.679673
899.317364,1406.391290,1850.514855,-11491.432470
899.317685,1776.494261,2368.659014,-10801.946522
899.318005,2220.617826,2590.720797,-10572.117872
899.318325,1850.514855,888.247130,-10648.727422
899.318645,370.102971,1776.494261,-9576.193725
899.318965,888.247130,962.267725,-10418.898773
899.319285,1702.473667,-1036.288319,-10112.460574
899.319605,1924.535449,0.000000,-9269.755526
899.319925,-592.164754,1184.329507,-10725.336972
899.320245,-962.267725,2368.659014,-9193.145976
899.320565,-1480.411884,2812.782580,-9576.193725
899.320885,-1702.473667,1036.288319,-9806.022374
899.321205,-740.205942,-148.041188,-9346.365076
899.321525,-2516.700203,-1258.350101,-8810.098227
899.321846,-740.205942,-1924.535449,-9116.536426
899.322166,1554.432478,-814.226536,-8886.707777
899.322486,1480.411884,148.041188,-9959.241474
899.322806,444.123565,1628.453072,-9346.365076
899.323126,-222.061783,1480.411884,-9576.193725
899.323446,-222.061783,1850.514855,-10418.898773
899.323766,-962.267725,1036.288319,-9806.022374
899.324086,-2442.679609,-1036.288319,-9806.022374
899.324406,-1480.411884,-1850.514855,-9959.241474
899.324726,-296.082377,-740.205942,-9806.022374
899.325046,-888.247130,-296.082377,-10342.289223
899.325366,1036.288319,1554.432478,-10725.336972
899.325686,1110.308913,3034.844362,-11031.775171
899.326006,-148.041188,2590.720797,-10955.165621
899.326327,-1628.453072,0.000000,-10572.117872
899.326647,-2072.576638,0.000000,-10495.508323
899.326967,-666.185348,-740.205942,-11414.822920
899.327287,666.185348,518.144159,-10572.117872
899.327607,2368.659014,0.000000,-10035.851024
899.327927,2294.638420,666.185348,-10955.165621
899.328247,444.123565,740.205942,-10572.117872
899.328567,-814.226536,666.185348,-10418.898773
899.328887,222.061783,-666.185348,-10189.070123
899.329207,592.164754,-1332.370696,-9652.803275
899.329527,1258.350101,0.000000,-10495.508323
899.329847,3108.864956,-518.144159,-10189.070123
899.330167,1776.494261,-1628.453072,-9193.145976
899.330488,1406.391290,-2146.597232,-10112.460574
899.330808,3034.844362,-1036.288319,-8963.317327
899.331128,2960.823768,0.000000,-9959.241474
899.331448,3404.947333,1036.288319,-9882.631924
899.331768,2960.823768,1406.391290,-9729.412825
899.332088,592.164754,888.247130,-9806.022374
899.332408,-1628.453072,-222.061783,-9806.022374
899.332728,-370.102971,-1628.453072,-8810.098227
899.333048,1554.432478,-1406.391290,-10495.508323
899.333368,2960.823768,-2590.720797,-9499.584175
899.333688,2960.823768,-1702.473667,-9499.584175
899.334008,0.000000,-444.123565,-9959.241474
899.334328,0.000000,222.061783,-9269.755526
899.334649,148.041188,1332.370696,-10342.289223
899.334969,1554.432478,1406.391290,-11031.775171
899.335289,1850.514855,1332.370696,-9729.412825
899.335609,814.226536,1332.370696,-11031.775171
899.335929,740.205942,1110.308913,-10418.898773
899.336249,1554.432478,592.164754,-10878.556072
899.336569,814.226536,444.123565,-10801.946522
899.336889,-814.226536,814.226536,-10418.898773
899.337209,-1998.556043,-592.164754,-10265.679673
899.337529,-592.164754,888.247130,-10572.117872
899.337849,-1184.329507,1480.411884,-9652.803275
899.338169,0.000000,2368.659014,-10725.336972
899.338489,814.226536,814.226536,-10112.460574
899.338810,2886.803174,148.041188,-9576.193725
899.339130,1924.535449,-666.185348,-9269.755526
899.339450,-666.185348,-2442.679609,-8733.488677
899.339770,-3108.864956,-1924.535449,-9039.926876
899.340090,-2886.803174,-518.144159,-9729.412825
899.340410,-1924.535449,592.164754,-9346.365076
899.340730,-2368.659014,2220.617826,-10035.851024
899.341050,-2368.659014,2072.576638,-10112.460574
899.341370,-1850.514855,814.226536,-9576.193725
899.341690,-1554.432478,-444.123565,-10035.851024
899.342010,1036.288319,-1480.411884,-9882.631924
899.342330,1628.453072,-1258.350101,-9729.412825
899.342650,1406.391290,-148.041188,-10725.336972
899.342970,1110.308913,2294.638420,-9806.022374
899.343291,148.041188,2368.659014,-10495.508323
899.343611,1258.350101,3108.864956,-11338.213370
899.343931,1924.535449,2664.741391,-10189.070123
899.344251,1406.391290,2664.741391,-11414.822920
899.344571,-444.123565,1110.308913,-11031.775171
899.344891,-740.205942,-148.041188,-10112.460574
899.345211,-1702.473667,-296.082377,-10418.898773
899.345531,-148.041188,-740.205942,-10035.851024
899.345851,0.000000,74.020594,-10112.460574
899.346171,-370.102971,1110.308913,-11031.775171
899.346491,962.267725,1850.514855,-9652.803275
899.346811,3034.844362,2368.659014,-10572.117872
899.347131,3182.885551,888.247130,-10418.898773
899.347452,4071.132681,370.102971,-10035.851024
899.347772,1628.453072,0.000000,-11338.213370
899.348092,1850.514855,74.020594,-9882.631924
899.348412,2072.576638,740.205942,-9346.365076
899.348732,2886.803174,1036.288319,-11108.384721
899.349052,2886.803174,-888.247130,-8963.317327
899.349372,0.000000,1036.288319,-9729.412825
899.349692,296.082377,2368.659014,-10495.508323
899.350012,518.144159,1332.370696,-9882.631924
899.350332,-888.247130,888.247130,-9806.022374
899.350652,2368.659014,-1258.350101,-10189.070123
899.350972,1406.391290,-2664.741391,-8503.660028
899.351292,2368.659014,-1628.453072,-10035.851024
899.351613,2146.597232,1776.494261,-9576.193725
899.351933,888.247130,3182.885551,-9806.022374
899.352253,740.205942,2368.659014,-10878.556072
899.352573,1110.308913,-148.041188,-9116.536426
899.352893,-148.041188,-740.205942,-9959.241474
899.353213,370.102971,592.164754,-10955.165621
899.353533,74.020594,74.020594,-9499.584175
899.353853,666.185348,444.123565,-10955.165621
899.354173,592.164754,148.041188,-10572.117872
899.354493,-370.102971,1184.329507,-10112.460574
899.354813,-962.267725,1776.494261,-10801.946522
899.355133,1924.535449,1406.391290,-10725.336972
899.355453,-518.144159,1850.514855,-10265.679673
899.355774,-1924.535449,1776.494261,-10801.946522
899.356094,-1184.329507,592.164754,-10035.851024
899.356414,-1628.453072,-1554.432478,-10801.946522
899.356734,-814.226536,-1258.350101,-10648.727422
899.357054,74.020594,-2368.659014,-9269.755526
899.357374,296.082377,-666.185348,-10342.289223
899.357694,0.000000,74.020594,-9499.584175
899.358014,0.000000,1998.556043,-9652.803275
899.358334,74.020594,2368.659014,-10648.727422
899.358654,1554.432478,1258.350101,-9882.631924
899.358974,148.041188,1110.308913,-9806.022374
899.359294,-2368.659014,-666.185348,-10572.117872
899.359614,-592.164754,-3034.844362,-9193.145976
899.359934,-1406.391290,-3256.906145,-9882.631924
899.360255,-2812.782580,-2664.741391,-9499.584175
899.360575,-1406.391290,-148.041188,-9499.584175
899.360895,-148.041188,666.185348,-10035.851024
899.361215,1110.308913,814.226536,-9806.022374
899.361535,0.000000,1110.308913,-9959.241474
899.361855,-1036.288319,296.082377,-10572.117872
899.362175,518.144159,-2368.659014,-8886.707777
899.362495,1924.535449,-4515.256246,-9422.974625
899.362815,1332.370696,-2812.782580,-10189.070123
899.363135,-1406.391290,-1776.494261,-8656.879127
899.363455,222.061783,1406.391290,-9269.755526
899.363775,444.123565,1554.432478,-10035.851024
899.364095,888.247130,1924.535449,-10035.851024
899.364416,1406.391290,-1110.308913,-10265.679673
899.364736,3330.926739,-4737.318029,-9269.755526
899.365056,2368.659014,-5107.421000,-9882.631924
899.365376,2368.659014,-2516.700203,-10035.851024
899.365696,444.123565,1628.453072,-10342.289223
899.366016,-148.041188,2664.741391,-10572.117872
899.366336,740.205942,4737.318029,-11797.870669
899.366656,1332.370696,2220.617826,-10418.898773
899.366976,2294.638420,0.000000,-10342.289223
899.367296,2072.576638,-1628.453072,-11184.994271
899.367616,2516.700203,-1776.494261,-9576.193725
899.367936,1850.514855,-592.164754,-10342.289223
899.368256,2738.761985,740.205942,-10342.289223
899.368577,2886.803174,3034.844362,-10342.289223
899.368897,740.205942,3775.050304,-11184.994271
899.369217,1998.556043,3256.906145,-10342.289223
899.369537,1332.370696,1554.432478,-10342.289223
899.369857,2812.782580,222.061783,-11338.213370
899.370177,3108.864956,-370.102971,-9269.755526
899.370497,740.205942,888.247130,-10265.679673
899.370817,-888.247130,1258.350101,-9882.631924
899.371137,-1850.514855,1998.556043,-9652.803275
899.371457,-1702.473667,1776.494261,-9729.412825
899.371777,-222.061783,148.041188,-9729.412825
899.372097,370.102971,-148.041188,-8810.098227
899.372417,1332.370696,-1110.308913,-10112.460574
899.372738,1998.556043,-444.123565,-9039.926876
899.373058,444.123565,-148.041188,-9652.803275
899.373378,222.061783,1184.329507,-10265.679673
899.373698,1110.308913,1702.473667,-9576.193725
899.374018,1036.288319,2590.720797,-10189.070123
899.374338,-296.082377,3256.906145,-10035.851024
899.374658,-1850.514855,2960.823768,-9959.241474
899.374978,-3330.926739,2442.679609,-10725.336972
899.375298,-222.061783,-518.144159,-9193.145976
899.375618,-1702.473667,-1184.329507,-9882.631924
899.375938,-3404.947333,-1628.453072,-10572.117872
899.376258,-3330.926739,-148.041188,-9499.584175
899.376578,-2442.679609,2072.576638,-10189.070123
899.376899,592.164754,3404.947333,-10265.679673
899.377219,1332.370696,2442.679609,-10342.289223
899.377539,1184.329507,1628.453072,-10495.508323
899.377859,1702.473667,-740.205942,-9882.631924
899.378179,2368.659014,-1776.494261,-9652.803275
899.378499,1628.453072,-1998.556043,-11031.775171
899.378819,-444.123565,-1184.329507,-9729.412825
899.379139,-2294.638420,74.020594,-9652.803275
899.379459,-2738.761985,3034.844362,-10955.165621
899.379779,-1110.308913,2960.823768,-9806.022374
899.380099,-148.041188,1998.556043,-11031.775171
899.380419,0.000000,0.000000,-10648.727422
899.380739,444.123565,-1554.432478,-9882.631924
899.381059,592.164754,-666.185348,-10572.117872
899.381380,3701.029710,444.123565,-10572.117872
899.381700,4737.318029,1554.432478,-9806.022374
899.382020,4145.153275,3182.885551,-11184.994271
899.382340,4145.153275,2442.679609,-9882.631924
899.382660,3034.844362,3182.885551,-10648.727422
899.382980,2738.761985,1110.308913,-10572.117872
899.383300,1110.308913,-1850.514855,-9269.755526
899.383620,0.000000,-1776.494261,-9959.241474
899.383940,1184.329507,-2294.638420,-9652.803275
899.384260,1110.308913,-2368.659014,-9422.974625
899.384580,-222.061783,-666.185348,-10418.898773
899.384900,-666.185348,74.020594,-9269.755526
899.385220,2368.659014,1554.432478,-9422.974625
899.385541,3256.906145,2146.597232,-11414.822920
899.385861,1924.535449,2590.720797,-8963.317327
899.386181,-962.267725,370.102971,-10648.727422
899.386501,-740.205942,-2146.597232,-9346.365076
899.386821,666.185348,-2072.576638,-9499.584175
899.387141,1184.329507,-1480.411884,-10189.070123
899.387461,1702.473667,-1628.453072,-9652.803275
899.387781,1850.514855,-296.082377,-9806.022374
899.388101,148.041188,1554.432478,-10572.117872
899.388421,-592.164754,1628.453072,-9806.022374
899.388741,-962.267725,1184.329507,-9959.241474
899.389061,444.123565,-222.061783,-10035.851024
899.389381,518.144159,-370.102971,-9652.803275
899.389702,1258.350101,-1406.391290,-10495.508323
899.390022,370.102971,-1776.494261,-10112.460574
899.390342,-518.144159,-518.144159,-9269.755526
899.390662,-592.164754,740.205942,-9806.022374
899.390982,814.226536,814.226536,-10265.679673
899.391302,1036.288319,740.205942,-10495.508323
899.391622,-148.041188,0.000000,-10418.898773
899.391942,0.000000,-666.185348,-9806.022374
899.392262,0.000000,-888.247130,-9806.022374
899.392582,296.082377,-814.226536,-10189.070123
899.392902,148.041188,-888.247130,-9806.022374
899.393222,-1036.288319,-148.041188,-10418.898773
899.393542,-1036.288319,-148.041188,-10955.165621
899.393863,-1258.350101,962.267725,-9959.241474
899.394183,-1258.350101,1480.411884,-10955.165621
899.394503,148.041188,296.082377,-10112.460574
899.394823,-1332.370696,-666.185348,-9806.022374
899.395143,-962.267725,-1628.453072,-11031.775171
899.395463,-2812.782580,-1406.391290,-9806.022374
899.395783,-1850.514855,-518.144159,-10112.460574
899.396103,-962.267725,1110.308913,-9652.803275
899.396423,592.164754,962.267725,-9806.022374
899.396743,-222.061783,74.020594,-10189.070123
899.397063,-1184.329507,296.082377,-9652.803275
899.397383,0.000000,888.247130,-9806.022374
899.397703,3034.844362,740.205942,-10725.336972
899.398023,4441.235652,-814.226536,-9882.631924
899.398344,2738.761985,-2072.576638,-9806.022374
899.398664,0.000000,-1110.308913,-9959.241474
899.398984,0.000000,1184.329507,-9269.755526
899.399304,1332.370696,3108.864956,-10648.727422
899.399624,2590.720797,2738.761985,-10418.898773
899.399944,1998.556043,1184.329507,-9882.631924
899.400264,-148.041188,-444.123565,-10572.117872
899.400584,888.247130,-1850.514855,-8580.269578
899.400904,1850.514855,-2442.679609,-9652.803275
899.401224,3108.864956,-2368.659014,-10112.460574
899.401544,3034.844362,-148.041188,-9499.584175
899.401864,1258.350101,2146.597232,-10418.898773
899.402184,222.061783,3108.864956,-9806.022374
899.402505,1554.432478,3256.906145,-9882.631924
899.402825,3256.906145,1702.473667,-10418.898773
899.403145,4145.153275,74.020594,-10035.851024
899.403465,1554.432478,-222.061783,-10265.679673
899.403785,-370.102971,-1110.308913,-10265.679673
899.404105,148.041188,74.020594,-9346.365076
899.404425,592.164754,0.000000,-9806.022374
899.404745,1110.308913,518.144159,-9652.803275
899.405065,1628.453072,888.247130,-9806.022374
899.405385,-222.061783,2368.659014,-11184.994271
899.405705,-518.144159,2664.741391,-10572.117872
899.406025,1036.288319,2368.659014,-9959.241474
899.406345,2368.659014,3034.844362,-10955.165621
899.406665,1776.494261,2146.597232,-10725.336972
899.406985,370.102971,814.226536,-10495.508323
899.407305,-370.102971,148.041188,-10801.946522
899.407625,-740.205942,370.102971,-9806.022374
899.407945,-1258.350101,592.164754,-10189.070123
899.408265,370.102971,962.267725,-10495.508323
899.408585,518.144159,888.247130,-9806.022374
899.408905,-740.205942,296.082377,-10648.727422
899.409225,-2294.638420,740.205942,-9806.022374
899.409545,-592.164754,-592.164754,-9422.974625
899.409865,74.020594,-1332.370696,-9882.631924
899.410185,1184.329507,-888.247130,-9652.803275
899.410505,-370.102971,444.123565,-10725.336972
899.410825,-2294.638420,1924.535449,-10342.289223
899.411145,-2516.700203,1998.556043,-9576.193725
899.411465,-1406.391290,2072.576638,-10035.851024
899.411785,-296.082377,814.226536,-9729.412825
899.412105,296.082377,-962.267725,-9499.584175
899.412425,-1110.308913,-518.144159,-9806.022374
899.412745,-1184.329507,-1184.329507,-9499.584175
899.413065,0.000000,-888.247130,-9652.803275
899.413386,0.000000,0.000000,-9882.631924
899.413706,-1480.411884,1258.350101,-9959.241474
899.414026,-1480.411884,-222.061783,-9652.803275
899.414346,0.000000,-1110.308913,-10418.898773
899.414666,2590.720797,962.267725,-9806.022374
899.414986,2368.659014,1554.432478,-10572.117872
899.415306,3182.885551,2886.803174,-10725.336972
899.415626,2738.761985,592.164754,-9729.412825
899.415946,1554.432478,-888.247130,-10495.508323
899.416266,814.226536,-3701.029710,-9499.584175
899.416586,-518.144159,-4885.359217,-9499.584175
899.416906,-592.164754,-2886.803174,-10265.679673
899.417226,1776.494261,-1258.350101,-10189.070123
899.417546,1702.473667,3478.967927,-11261.603821
899.417866,592.164754,3108.864956,-11184.994271
899.418186,888.247130,1258.350101,-9882.631924
899.418506,1036.288319,814.226536,-10801.946522
899.418826,2664.741391,-1554.432478,-10878.556072
899.419146,2442.679609,-1628.453072,-9652.803275
899.419466,222.061783,-1110.308913,-10342.289223
899.419786,0.000000,-592.164754,-9882.631924
899.420106,-1258.350101,-1110.308913,-9806.022374
899.420426,-148.041188,148.041188,-10801.946522
899.420746,1184.329507,-222.061783,-9422.974625
899.421066,2294.638420,296.082377,-10189.070123
899.421386,3182.885551,740.205942,-10572.117872
899.421706,5773.606348,148.041188,-9576.193725
899.422026,4515.256246,-222.061783,-10418.898773
899.422346,2590.720797,-888.247130,-10342.289223
899.422666,370.102971,-1924.535449,-9193.145976
899.422986,-2072.576638,-444.123565,-10801.946522
899.423306,-370.102971,1110.308913,-9193.145976
899.423626,814.226536,3108.864956,-10495.508323
899.423946,2072.576638,2368.659014,-11184.994271
899.424266,1036.288319,-296.082377,-10189.070123
899.424586,-1480.411884,-1924.535449,-9652.803275
899.424906,-1406.391290,-1110.308913,-10725.336972
899.425226,74.020594,-222.061783,-9269.755526
899.425546,74.020594,2294.638420,-10955.165621
899.425866,222.061783,2368.659014,-10112.460574
899.426186,1406.391290,2368.659014,-9882.631924
899.426506,1480.411884,1554.432478,-10801.946522
899.426826,1776.494261,1480.411884,-10495.508323
899.427146,1702.473667,1924.535449,-9882.631924
899.427466,2368.659014,1702.473667,-10955.165621
899.427786,1628.453072,-888.247130,-9652.803275
899.428106,-666.185348,-962.267725,-9959.241474
899.428426,-3627.009116,-222.061783,-10189.070123
899.428746,-4959.379811,1776.494261,-9193.145976
899.429066,-4219.173869,2516.700203,-10725.336972
899.429386,-1702.473667,888.247130,-9806.022374
899.429706,-1184.329507,1036.288319,-9116.536426
899.430026,-1332.370696,-518.144159,-10801.946522
899.430346,0.000000,-1480.411884,-9116.536426
899.430666,-370.102971,370.102971,-9882.631924
899.430987,666.185348,1924.535449,-10035.851024
899.431307,1258.350101,1998.556043,-9116.536426
899.431627,74.020594,1776.494261,-10189.070123
899.431947,1184.329507,1480.411884,-9806.022374
899.432267,74.020594,1184.329507,-9576.193725
899.432587,444.123565,962.267725,-10418.898773
899.432907,888.247130,518.144159,-10035.851024
899.433227,-296.082377,-1184.329507,-8120.612279
899.433547,-2738.761985,-2664.741391,-10342.289223
899.433867,-1998.556043,-2664.741391,-8656.879127
899.434187,-222.061783,0.000000,-10342.289223
899.434507,1480.411884,2886.803174,-10189.070123
899.434827,2960.823768,3256.906145,-9959.241474
899.435147,2072.576638,2590.720797,-11261.603821
899.435467,1702.473667,518.144159,-10112.460574
899.435787,2590.720797,-1406.391290,-9959.241474
899.436107,3256.906145,-1924.535449,-10801.946522
899.436427,3923.091493,-2960.823768,-9729.412825
899.436747,1554.432478,-962.267725,-10265.679673
899.437067,-296.082377,888.247130,-10495.508323
899.437387,518.144159,1480.411884,-9499.584175
899.437707,740.205942,2368.659014,-11031.775171
899.438027,2442.679609,592.164754,-10189.070123
899.438347,1776.494261,-222.061783,-9729.412825
899.438667,1184.329507,222.061783,-10955.165621
899.438987,1184.329507,814.226536,-9729.412825
899.439307,1184.329507,740.205942,-9959.241474
899.439627,1924.535449,1184.329507,-10418.898773
899.439947,2442.679609,-148.041188,-10035.851024
899.440267,1850.514855,-148.041188,-9729.412825
899.440587,-740.205942,0.000000,-10189.070123
899.440907,-1036.288319,518.144159,-9806.022374
899.441227,814.226536,592.164754,-10418.898773
899.441547,2812.782580,-518.144159,-9959.241474
899.441867,2368.659014,-1258.350101,-11338.213370
899.442187,0.000000,-592.164754,-11031.775171
899.442507,148.041188,0.000000,-9499.584175
899.442827,518.144159,666.185348,-9806.022374
899.443147,222.061783,1480.411884,-9806.022374
899.443467,1332.370696,1332.370696,-10035.851024
899.443787,0.000000,814.226536,-10265.679673
899.444107,-2072.576638,-666.185348,-10572.117872
899.444427,-3108.864956,-1924.535449,-9576.193725
899.444747,-2368.659014,-2368.659014,-10648.727422
899.445067,-222.061783,-3034.844362,-9269.755526
899.445387,518.144159,-1406.391290,-9346.365076
899.445707,666.185348,0.000000,-10418.898773
899.446027,-148.041188,1628.453072,-10725.336972
899.446347,-3330.926739,1258.350101,-9729.412825
899.446667,-3108.864956,666.185348,-9652.803275
899.446987,-666.185348,-1406.391290,-8427.050478
899.447307,74.020594,-3108.864956,-9652.803275
899.447627,0.000000,-3775.050304,-9576.193725
899.447947,-888.247130,-2812.782580,-8963.317327
899.448268,0.000000,814.226536,-10572.117872
899.448588,1628.453072,3034.844362,-10265.679673
899.448908,74.020594,5773.606348,-10265.679673
899.449228,-2812.782580,5329.482782,-11261.603821
899.449548,-3034.844362,2812.782580,-10495.508323
899.449868,-1998.556043,-296.082377,-10112.460574
899.450188,962.267725,-2294.638420,-10418.898773
899.450508,3330.926739,-2664.741391,-10035.851024
899.450828,2442.679609,-222.061783,-10801.946522
899.451148,3034.844362,2146.597232,-11414.822920
899.451468,3701.029710,4293.194464,-10189.070123
899.451788,1924.535449,5625.565159,-11721.261119
899.452108,2220.617826,4367.215058,-11338.213370
899.452428,962.267725,2146.597232,-10572.117872
899.452748,296.082377,444.123565,-11568.042020
899.453068,1554.432478,-148.041188,-9576.193725
899.453388,1184.329507,0.000000,-10725.336972
899.453708,2812.782580,148.041188,-10801.946522
899.454028,3997.112087,2294.638420,-9499.584175
899.454348,3627.009116,2738.761985,-11108.384721
899.454668,3256.906145,2294.638420,-8503.660028
899.454988,1406.391290,74.020594,-9039.926876
899.455308,444.123565,-1406.391290,-9346.365076
899.455628,2442.679609,-1184.329507,-9039.926876
899.455948,3627.009116,222.061783,-10035.851024
899.456268,2886.803174,592.164754,-9652.803275
899.456588,1480.411884,962.267725,-8963.317327
899.456908,0.000000,2294.638420,-9576.193725
899.457228,148.041188,1406.391290,-9729.412825
899.457548,74.020594,-148.041188,-8963.317327
899.457868,-1258.350101,-1480.411884,-10035.851024
899.458188,-592.164754,-2220.617826,-8886.707777
899.458508,-740.205942,-1036.288319,-9422.974625
899.458828,592.164754,0.000000,-9959.241474
899.459148,1184.329507,1554.432478,-9806.022374
899.459468,1110.308913,2812.782580,-10801.946522
899.459788,0.000000,2960.823768,-11184.994271
899.460108,222.061783,1998.556043,-9729.412825
899.460428,-518.144159,740.205942,-11031.775171
899.460748,-444.123565,-592.164754,-10265.679673
899.461068,-1554.432478,-1184.329507,-9806.022374
899.461388,-2368.659014,-1036.288319,-11338.213370
899.461708,0.000000,-370.102971,-9576.193725
899.462028,592.164754,518.144159,-10342.289223
899.462348,-296.082377,1480.411884,-10955.165621
899.462668,74.020594,1110.308913,-10495.508323
899.462988,-2072.576638,1776.494261,-10878.556072
899.463308,-2738.761985,370.102971,-10648.727422
899.463628,-2368.659014,-1110.308913,-8963.317327
899.463948,-1184.329507,-1480.411884,-10495.508323
899.464268,296.082377,-1406.391290,-9806.022374
899.464588,0.000000,740.205942,-9729.412825
899.464908,-444.123565,592.164754,-10878.556072
899.465228,518.144159,148.041188,-9576.193725
899.465548,148.041188,-444.123565,-9729.412825
899.465869,-666.185348,-1110.308913,-9806.022374
899.466189,-814.226536,-1332.370696,-9039.926876
899.466509,666.185348,-2072.576638,-9806.022374
899.466829,1184.329507,-1850.514855,-9806.022374
899.467149,1924.535449,-592.164754,-9193.145976
899.467469,-518.144159,592.164754,-10112.460574
899.467789,962.267725,888.247130,-9806.022374
899.468109,1406.391290,1110.308913,-9346.365076
899.468429,1776.494261,1258.350101,-10648.727422
899.468749,2368.659014,370.102971,-9806.022374
899.469069,2294.638420,-296.082377,-10035.851024
899.469389,2294.638420,-592.164754,-10878.556072
899.469709,2960.823768,-1110.308913,-9959.241474
899.470029,3701.029710,-222.061783,-9959.241474
899.470349,3997.112087,888.247130,-10725.336972
899.470669,3775.050304,1554.432478,-10265.679673
899.470989,3404.947333,2664.741391,-10955.165621
899.471309,4737.318029,2368.659014,-11261.603821
899.471629,4293.194464,2368.659014,-10265.679673
899.471949,1998.556043,740.205942,-10801.946522
899.472269,2072.576638,888.247130,-10189.070123
899.472589,3034.844362,370.102971,-10189.070123
899.472909,4367.215058,1776.494261,-11108.384721
899.473229,3182.885551,2590.720797,-10342.289223
899.473549,1554.432478,2886.803174,-9806.022374
899.473869,0.000000,4367.215058,-11568.042020
899.474189,1480.411884,2590.720797,-10418.898773
899.474509,3034.844362,3256.906145,-10265.679673
899.474829,2516.700203,3775.050304,-10495.508323
899.475149,2220.617826,4959.379811,-10035.851024
899.475469,2960.823768,3478.967927,-10572.117872
899.475789,4293.194464,3404.947333,-10035.851024
899.476109,4367.215058,3256.906145,-10725.336972
899.476429,3108.864956,3701.029710,-9499.584175
899.476749,1628.453072,3923.091493,-9959.241474
899.477069,1036.288319,2368.659014,-9729.412825
899.477389,1924.535449,1480.411884,-9269.755526
899.477709,2664.741391,2294.638420,-9959.241474
899.478029,4367.215058,2960.823768,-9652.803275
899.478349,2738.761985,3552.988522,-10112.460574
899.478669,592.164754,4959.379811,-10418.898773
899.478989,1554.432478,4219.173869,-9882.631924
899.479309,1776.494261,3552.988522,-9729.412825
899.479629,2294.638420,2590.720797,-9652.803275
899.479949,2220.617826,2294.638420,-10112.460574
899.480269,2664.741391,2368.659014,-10495.508323
899.480589,2516.700203,3775.050304,-10189.070123
899.480909,2590.720797,5255.462188,-9806.022374
899.481229,1924.535449,5107.421000,-10035.851024
899.481549,962.267725,3997.112087,-10725.336972
899.481869,1184.329507,3182.885551,-10265.679673
899.482189,1702.473667,2960.823768,-9959.241474
899.482509,2294.638420,3849.070898,-10495.508323
899.482829,2886.803174,4145.153275,-9806.022374
899.483149,2368.659014,4293.194464,-10035.851024
899.483470,2516.700203,3701.029710,-10265.679673
899.483790,1110.308913,4219.173869,-9806.022374
899.484110,1036.288319,3404.947333,-9882.631924
899.484430,2220.617826,2886.803174,-9729.412825
899.484750,2220.617826,3034.844362,-10035.851024
899.485070,962.267725,2590.720797,-9806.022374
899.485390,-444.123565,2886.803174,-9806.022374
899.485710,444.123565,2886.803174,-9806.022374
899.486030,2960.823768,1406.391290,-9959.241474
899.486350,4367.215058,962.267725,-10035.851024
899.486670,3775.050304,2146.597232,-10189.070123
899.486990,3256.906145,2960.823768,-9882.631924
899.487310,3404.947333,3775.050304,-10572.117872
899.487630,1850.514855,3404.947333,-10572.117872
899.487950,1776.494261,2738.761985,-10418.898773
899.488270,1258.350101,1776.494261,-9959.241474
899.488590,1924.535449,592.164754,-10112.460574
899.488910,2960.823768,-148.041188,-10112.460574
899.489230,2368.659014,592.164754,-10035.851024
899.489550,3108.864956,1850.514855,-10035.851024
899.489870,4071.132681,3108.864956,-10189.070123
899.490190,3923.091493,4293.194464,-10495.508323
899.490510,3478.967927,4293.194464,-10265.679673
899.490830,2664.741391,3552.988522,-10572.117872
899.491150,3923.091493,2072.576638,-10955.165621
899.491470,4885.359217,1554.432478,-10189.070123
899.491790,3330.926739,1406.391290,-10342.289223
899.492110,1258.350101,1554.432478,-9806.022374
899.492430,1998.556043,2294.638420,-9806.022374
899.492750,3182.885551,2368.659014,-10572.117872
899.493070,3552.988522,2664.741391,-10265.679673
899.493390,2368.659014,1480.411884,-9882.631924
899.493710,2442.679609,592.164754,-9806.022374
899.494030,3330.926739,518.144159,-10035.851024
899.494350,3775.050304,1258.350101,-10112.460574
899.494670,3404.947333,2368.659014,-9959.241474
899.494990,2146.597232,2738.761985,-10418.898773
899.495310,2368.659014,3182.885551,-10265.679673
899.495630,2368.659014,2738.761985,-10189.070123
899.495950,2442.679609,2146.597232,-9882.631924
899.496270,2590.720797,1110.308913,-10189.070123
899.496590,1332.370696,222.061783,-10418.898773
899.496910,-1184.329507,222.061783,-10572.117872
899.497230,-2220.617826,666.185348,-8656.879127
899.497550,-1406.391290,1702.473667,-9806.022374
899.497870,1702.473667,1776.494261,-10495.508323
899.498190,3404.947333,2294.638420,-10112.460574
899.498510,1998.556043,2738.761985,-10878.556072
899.498830,2368.659014,3108.864956,-9882.631924
899.499150,2960.823768,3552.988522,-10648.727422
899.499470,4515.256246,3256.906145,-10725.336972
899.499790,4145.153275,2220.617826,-9576.193725
899.500110,1924.535449,1702.473667,-10112.460574
899.500430,0.000000,1554.432478,-10189.070123
899.500751,-2146.597232,1924.535449,-9499.584175
899.501071,-2368.659014,2072.576638,-9806.022374
899.501391,-666.185348,740.205942,-9806.022374
899.501711,1258.350101,-222.061783,-9193.145976
899.502031,2960.823768,0.000000,-9959.241474
899.502351,2960.823768,2294.638420,-9882.631924
899.502671,2516.700203,4811.338623,-10189.070123
899.502991,2294.638420,6735.874072,-10572.117872
899.503311,3478.967927,5625.565159,-9959.241474
899.503631,4737.318029,3627.009116,-10342.289223
899.503951,5329.482782,1776.494261,-10418.898773
899.504271,3923.091493,1480.411884,-10265.679673
899.504591,2368.659014,2738.761985,-10342.289223
899.504911,2294.638420,4367.215058,-10112.460574
899.505231,296.082377,4811.338623,-10035.851024
899.505551,-296.082377,3404.947333,-9806.022374
899.505871,1480.411884,1776.494261,-8810.098227
899.506191,3108.864956,592.164754,-10265.679673
899.506511,4737.318029,1332.370696,-10035.851024
899.506831,6217.729913,2738.761985,-10189.070123
899.507151,6217.729913,4959.379811,-10189.070123
899.507471,6735.874072,5773.606348,-10189.070123
899.507791,4811.338623,5995.668130,-10495.508323
899.508111,1924.535449,4959.379811,-9882.631924
899.508431,444.123565,3404.947333,-9652.803275
899.508751,1776.494261,1850.514855,-10725.336972
899.509071,2516.700203,-740.205942,-9576.193725
899.509391,2442.679609,-888.247130,-9652.803275
899.509711,1998.556043,962.267725,-9729.412825
899.510031,2294.638420,4367.215058,-10035.851024
899.510351,4293.194464,6809.894666,-10495.508323
899.510671,5329.482782,7254.018232,-10572.117872
899.510991,4441.235652,5847.626942,-10648.727422
899.511310,2590.720797,3108.864956,-10189.070123
899.511630,740.205942,1036.288319,-9576.193725
899.511950,-592.164754,222.061783,-9729.412825
899.512270,-592.164754,814.226536,-9729.412825
899.512590,592.164754,1628.453072,-9729.412825
899.512910,1628.453072,2294.638420,-10035.851024
899.513230,1998.556043,3034.844362,-10112.460574
899.513550,1776.494261,3997.112087,-10342.289223
899.513870,2812.782580,5033.400406,-10342.289223
899.514190,4071.132681,5181.441594,-10572.117872
899.514510,3775.050304,4293.194464,-10572.117872
899.514830,2442.679609,2664.741391,-10112.460574
899.515150,1036.288319,962.267725,-9882.631924
899.515470,370.102971,1110.308913,-10112.460574
899.515790,296.082377,1998.556043,-9193.145976
899.516110,-74.020594,2664.741391,-9806.022374
899.516430,-666.185348,2294.638420,-9959.241474
899.516750,-888.247130,1406.391290,-9729.412825
899.517070,-148.041188,296.082377,-9806.022374
899.517390,1110.308913,370.102971,-8963.317327
899.517710,3034.844362,888.247130,-9729.412825
899.518030,4737.318029,1924.535449,-10189.070123
899.518350,5773.606348,3256.906145,-10418.898773
899.518670,5033.400406,4663.297435,-10801.946522
899.518990,3849.070898,4737.318029,-10495.508323
899.519310,2368.659014,4515.256246,-10495.508323
899.519630,1258.350101,3478.967927,-10495.508323
899.519950,962.267725,1850.514855,-10035.851024
899.520270,1110.308913,148.041188,-9422.974625
899.520590,592.164754,-666.185348,-9729.412825
899.520910,444.123565,-444.123565,-9652.803275
899.521230,962.267725,962.267725,-9882.631924
899.521550,3478.967927,1776.494261,-10035.851024
899.521870,4737.318029,3330.926739,-9959.241474
899.522190,5699.585753,3404.947333,-10112.460574
899.522510,6217.729913,3034.844362,-10265.679673
899.522830,5255.462188,3034.844362,-10265.679673
899.523150,2738.761985,2072.576638,-10035.851024
899.523470,296.082377,1850.514855,-10265.679673
899.523790,-814.226536,1406.391290,-9806.022374
899.524110,-592.164754,518.144159,-9806.022374
899.524430,-148.041188,-518.144159,-8733.488677
899.524750,0.000000,-1554.432478,-10035.851024
899.525070,518.144159,-666.185348,-9806.022374
899.525390,1332.370696,1258.350101,-9959.241474
899.525710,2738.761985,2812.782580,-10342.289223
899.526030,3775.050304,3849.070898,-10189.070123
899.526350,4071.132681,3552.988522,-10342.289223
899.526670,3478.967927,2738.761985,-10572.117872
899.526990,3034.844362,1924.535449,-10112.460574
899.527310,2368.659014,1776.494261,-10342.289223
899.527630,1184.329507,1406.391290,-9959.241474
899.527950,444.123565,1480.411884,-10035.851024
899.528270,370.102971,1480.411884,-10189.070123
899.528590,1036.288319,2146.597232,-11031.775171
899.528910,2146.597232,2368.659014,-10572.117872
899.529230,3108.864956,3108.864956,-10572.117872
899.529550,3923.091493,3478.967927,-10035.851024
899.529870,5403.503377,3849.070898,-10189.070123
899.530190,6365.771101,4145.153275,-10955.165621
899.530510,7105.977043,4515.256246,-10495.508323
899.530830,6513.812290,5255.462188,-10572.117872
899.531150,4589.276840,5921.647536,-10878.556072
899.531470,2442.679609,5329.482782,-10342.289223
899.531790,222.061783,4071.132681,-10189.070123
899.532110,-148.041188,1924.535449,-9729.412825
899.532430,-74.020594,592.164754,-9576.193725
899.532750,962.267725,-296.082377,-9346.365076
899.533070,1850.514855,1036.288319,-9499.584175
899.533390,3552.988522,3404.947333,-10035.851024
899.533710,4737.318029,5847.626942,-10035.851024
899.534030,5329.482782,7402.059420,-10265.679673
899.534350,4589.276840,8068.244768,-10572.117872
899.534670,4219.173869,6439.791695,-10418.898773
899.534990,4071.132681,5033.400406,-10112.460574
899.535310,3849.070898,3256.906145,-10112.460574
899.535630,1924.535449,2812.782580,-9806.022374
899.535950,-740.205942,3478.967927,-9882.631924
899.536270,-3108.864956,3701.029710,-9346.365076
899.536590,-3256.906145,3997.112087,-9499.584175
899.536910,-888.247130,3849.070898,-9806.022374
899.537230,1480.411884,2664.741391,-9959.241474
899.537550,2516.700203,2146.597232,-9959.241474
899.537870,2294.638420,2664.741391,-10189.070123
899.538190,2886.803174,3849.070898,-9882.631924
899.538510,3997.112087,5551.544565,-9806.022374
899.538830,5625.565159,6587.832884,-10725.336972
899.539150,5625.565159,5995.668130,-10725.336972
899.539470,2516.700203,4663.297435,-10495.508323
899.539790,-814.226536,2960.823768,-9882.631924
899.540110,-2368.659014,1850.514855,-10495.508323
899.540430,-1406.391290,592.164754,-9806.022374
899.540750,-222.061783,-370.102971,-9576.193725
899.541070,370.102971,-814.226536,-9499.584175
899.541390,1998.556043,-222.061783,-9422.974625
899.541710,4515.256246,1776.494261,-9959.241474
899.542030,6291.750507,4441.235652,-10342.289223
899.542350,6661.853478,6217.729913,-10342.289223
899.542670,5625.565159,6291.750507,-10342.289223
899.542990,4959.379811,4737.318029,-10112.460574
899.543310,3478.967927,2294.638420,-10265.679673
899.543630,1702.473667,296.082377,-9806.022374
899.543950,666.185348,-888.247130,-9959.241474
899.544270,592.164754,-814.226536,-9882.631924
899.544590,0.000000,74.020594,-9729.412825
899.544910,-814.226536,1480.411884,-9959.241474
899.545230,444.123565,2516.700203,-10189.070123
899.545550,3182.885551,2442.679609,-10418.898773
899.545870,5773.606348,1924.535449,-9806.022374
899.546190,7254.018232,2146.597232,-10572.117872
899.546510,7550.100608,2886.803174,-11184.994271
899.546830,6735.874072,3849.070898,-10801.946522
899.547150,4145.153275,4367.215058,-11338.213370
899.547470,1480.411884,2960.823768,-10801.946522
899.547790,296.082377,74.020594,-10112.460574
899.548110,0.000000,-2294.638420,-9882.631924
899.548430,-444.123565,-2664.741391,-10572.117872
899.548750,-1184.329507,-1776.494261,-10495.508323
899.549070,-1110.308913,74.020594,-9806.022374
899.549390,518.144159,1998.556043,-10342.289223
899.549710,2812.782580,2664.741391,-9652.803275
899.550030,4515.256246,3552.988522,-9116.536426
899.550350,5181.441594,3478.967927,-10648.727422
899.550670,4959.379811,3849.070898,-10265.679673
899.550990,3627.009116,4367.215058,-10648.727422
899.551310,3330.926739,3552.988522,-10342.289223
899.551630,2516.700203,1924.535449,-9882.631924
899.551950,148.041188,444.123565,-9959.241474
899.552270,-2812.782580,-740.205942,-9652.803275
899.552590,-4589.276840,-518.144159,-9269.755526
899.552910,-3330.926739,0.000000,-9652.803275
899.553230,888.247130,444.123565,-9193.145976
899.553550,3775.050304,1110.308913,-9806.022374
899.553870,4441.235652,2294.638420,-10495.508323
899.554190,3627.009116,3330.926739,-9652.803275
899.554510,4293.194464,4515.256246,-10265.679673
899.554830,5699.585753,5699.585753,-10648.727422
899.555150,6069.688724,5107.421000,-10495.508323
899.555470,3404.947333,3552.988522,-10801.946522
899.555789,-370.102971,2146.597232,-9269.755526
899.556109,-1998.556043,370.102971,-9729.412825
899.556429,-1406.391290,444.123565,-10189.070123
899.556749,-592.164754,888.247130,-9959.241474
899.557069,-296.082377,1850.514855,-9652.803275
899.557389,1776.494261,2368.659014,-9576.193725
899.557709,5847.626942,2664.741391,-9882.631924
899.558029,7920.203579,3627.009116,-10725.336972
899.558349,7179.997637,5403.503377,-10801.946522
899.558669,4145.153275,6735.874072,-10035.851024
899.558989,4071.132681,6587.832884,-10265.679673
899.559309,5255.462188,5403.503377,-10342.289223
899.559629,4441.235652,4071.132681,-10035.851024
899.559949,2146.597232,3552.988522,-10265.679673
899.560269,1036.288319,2590.720797,-9729.412825
899.560589,74.020594,1924.535449,-9729.412825
899.560909,-1406.391290,1184.329507,-9729.412825
899.561229,-666.185348,1332.370696,-9193.145976
899.561549,2368.659014,1480.411884,-9499.584175
899.561869,5329.482782,2960.823768,-9806.022374
899.562189,5551.544565,4515.256246,-10035.851024
899.562509,4737.318029,7031.956449,-9729.412825
899.562829,6069.688724,7179.997637,-10342.289223
899.563149,7179.997637,6365.771101,-10725.336972
899.563469,5403.503377,4293.194464,-10801.946522
899.563789,1776.494261,2886.803174,-9882.631924
899.564109,-666.185348,1554.432478,-9882.631924
899.564429,-1998.556043,1924.535449,-9422.974625
899.564749,-3775.050304,1776.494261,-9806.022374
899.565069,-3108.864956,1110.308913,-9806.022374
899.565389,0.000000,518.144159,-9729.412825
899.565709,2664.741391,1480.411884,-10572.117872
899.566029,3404.947333,3182.885551,-9959.241474
899.566349,3256.906145,4811.338623,-10342.289223
899.566669,4441.235652,5995.668130,-10342.289223
899.566989,5699.585753,5699.585753,-10265.679673
899.567309,4885.359217,5033.400406,-10572.117872
899.567629,2812.782580,3478.967927,-10265.679673
899.567949,-222.061783,1702.473667,-9806.022374
899.568269,-1258.350101,296.082377,-9806.022374
899.568589,-1628.453072,0.000000,-9729.412825
899.568909,-1184.329507,-518.144159,-9652.803275
899.569229,-222.061783,0.000000,-8963.317327
899.569549,-666.185348,1036.288319,-9882.631924
899.569869,3182.885551,2590.720797,-9806.022374
899.570189,5255.462188,4663.297435,-10878.556072
899.570509,7846.182985,4885.359217,-10189.070123
899.570829,5921.647536,5329.482782,-10189.070123
899.571149,4885.359217,4737.318029,-10878.556072
899.571469,4441.235652,2812.782580,-11568.042020
899.571789,2738.761985,74.020594,-10265.679673
899.572109,1332.370696,-2294.638420,-9193.145976
899.572429,0.000000,-1036.288319,-9729.412825
899.572749,370.102971,592.164754,-11414.822920
899.573069,296.082377,2960.823768,-9882.631924
899.573389,0.000000,4071.132681,-10955.165621
899.573709,1480.411884,3849.070898,-10418.898773
899.574029,2738.761985,2442.679609,-10112.460574
899.574349,4515.256246,1924.535449,-10725.336972
899.574669,5699.585753,740.205942,-10418.898773
899.574989,6217.729913,1480.411884,-10342.289223
899.575309,4737.318029,2072.576638,-10955.165621
899.575629,3923.091493,1406.391290,-11491.432470
899.575949,1628.453072,1110.308913,-10495.508323
899.576269,-1184.329507,888.247130,-9959.241474
899.576589,-2368.659014,74.020594,-10112.460574
899.576909,-1850.514855,-2220.617826,-9959.241474
899.577229,296.082377,-2664.741391,-9806.022374
899.577549,74.020594,-3256.906145,-9806.022374
899.577869,1184.329507,-2368.659014,-9193.145976
899.578189,1628.453072,370.102971,-10342.289223
899.578509,2738.761985,2368.659014,-10725.336972
899.578829,4441.235652,3404.947333,-9959.241474
899.579149,4293.194464,3256.906145,-10955.165621
899.579469,3552.988522,2072.576638,-10265.679673
899.579789,444.123565,0.000000,-9576.193725
899.580109,-3552.988522,-1924.535449,-10572.117872
899.580429,-1924.535449,-3404.947333,-9269.755526
899.580749,-1406.391290,-3775.050304,-9193.145976
899.581069,-1332.370696,-2072.576638,-9882.631924
899.581389,-518.144159,-1036.288319,-9346.365076
899.581709,296.082377,2294.638420,-10265.679673
899.582029,1998.556043,3701.029710,-11797.870669
899.582349,3627.009116,2960.823768,-9959.241474
899.582669,2368.659014,2294.638420,-10495.508323
899.582989,1406.391290,222.061783,-10801.946522
899.583309,148.041188,-592.164754,-9269.755526
899.583629,-1258.350101,370.102971,-11644.651570
899.583949,-518.144159,1628.453072,-10342.289223
899.584269,0.000000,2294.638420,-10342.289223
899.584589,-2886.803174,962.267725,-11491.432470
899.584909,-5181.441594,-962.267725,-9729.412825
899.585229,-5847.626942,-1480.411884,-9652.803275
899.585549,-2886.803174,-444.123565,-10495.508323
899.585869,1258.350101,888.247130,-9039.926876
899.586189,2442.679609,1924.535449,-10878.556072
899.586509,3108.864956,1110.308913,-10418.898773
899.586829,3034.844362,1036.288319,-9806.022374
899.587149,2664.741391,2072.576638,-10572.117872
899.587469,888.247130,3034.844362,-10112.460574
899.587789,-1406.391290,3182.885551,-9729.412825
899.588109,-3108.864956,2590.720797,-10572.117872
899.588429,-1036.288319,-814.226536,-9422.974625
899.588749,-962.267725,-2368.659014,-9576.193725
899.589069,-2146.597232,-2516.700203,-9652.803275
899.589389,0.000000,-740.205942,-8810.098227
899.589709,1036.288319,1480.411884,-9882.631924
899.590029,2516.700203,3182.885551,-9269.755526
899.590349,3478.967927,2442.679609,-9346.365076
899.590669,3182.885551,2220.617826,-10801.946522
899.590989,3256.906145,1406.391290,-9959.241474
899.591309,2368.659014,2146.597232,-9422.974625
899.591629,1258.350101,3108.864956,-10801.946522
899.591949,2368.659014,2294.638420,-9422.974625
899.592269,1998.556043,-222.061783,-9806.022374
899.592589,-888.247130,-2664.741391,-9806.022374
899.592909,-3775.050304,-2960.823768,-8656.879127
899.593229,-3775.050304,-2368.659014,-9882.631924
899.593549,0.000000,-962.267725,-9959.241474
899.593869,3478.967927,0.000000,-9959.241474
899.594189,2738.761985,1776.494261,-11261.603821
899.594509,1406.391290,2812.782580,-10265.679673
899.594829,1702.473667,4441.235652,-10572.117872
899.595149,3701.029710,4885.359217,-11721.261119
899.595469,4959.379811,3849.070898,-10495.508323
899.595789,2368.659014,518.144159,-11338.213370
899.596109,-888.247130,-3256.906145,-9806.022374
899.596429,-2738.761985,-4367.215058,-9116.536426
899.596749,-1998.556043,-2516.700203,-10418.898773
899.597069,814.226536,-370.102971,-10418.898773
899.597389,1776.494261,1628.453072,-10035.851024
899.597709,1924.535449,2146.597232,-11184.994271
899.598029,1406.391290,1036.288319,-9959.241474
899.598349,1628.453072,518.144159,-10572.117872
899.598669,1332.370696,740.205942,-11874.480219
899.598989,1776.494261,962.267725,-10418.898773
899.599309,2072.576638,3256.906145,-11108.384721
899.599629,3404.947333,2220.617826,-10878.556072
899.599949,3404.947333,370.102971,-9499.584175
899.600268,962.267725,-1924.535449,-10725.336972
899.600588,-592.164754,-2516.700203,-9499.584175
899.600908,-2368.659014,-2368.659014,-8886.707777
899.601228,-2664.741391,-2072.576638,-9806.022374
899.601548,-2738.761985,-1702.473667,-8963.317327
899.601868,-3404.947333,-1628.453072,-9269.755526
899.602188,-1480.411884,-370.102971,-9882.631924
899.602508,2442.679609,888.247130,-8963.317327
899.602828,4663.297435,2368.659014,-11568.042020
899.603148,3182.885551,1184.329507,-10035.851024
899.603468,74.020594,0.000000,-9039.926876
899.603788,-2590.720797,-1332.370696,-9499.584175
899.604108,-2664.741391,-2960.823768,-9116.536426
899.604428,-3478.967927,-3034.844362,-9193.145976
899.604748,-3552.988522,-1406.391290,-10265.679673
899.605068,-2146.597232,-740.205942,-9116.536426
899.605388,-962.267725,888.247130,-9806.022374
899.605708,592.164754,1184.329507,-10725.336972
899.606028,2294.638420,962.267725,-9959.241474
899.606348,1332.370696,1850.514855,-10648.727422
899.606668,1850.514855,2664.741391,-10801.946522
899.606988,740.205942,2812.782580,-10342.289223
899.607308,-1110.308913,2516.700203,-11031.775171
899.607628,592.164754,814.226536,-10418.898773
899.607948,222.061783,296.082377,-10801.946522
899.608268,1110.308913,1110.308913,-11797.870669
899.608588,592.164754,1554.432478,-10265.679673
899.608908,-1184.329507,2146.597232,-10495.508323
899.609228,-370.102971,1184.329507,-10955.165621
899.609548,1036.288319,-370.102971,-9882.631924
899.609868,2294.638420,-222.061783,-10801.946522
899.610188,1924.535449,0.000000,-9499.584175
899.610508,2072.576638,1036.288319,-9959.241474
899.610828,2960.823768,1184.329507,-10418.898773
899.611148,1702.473667,962.267725,-9652.803275
899.611468,3182.885551,1036.288319,-9116.536426
899.611788,2368.659014,-592.164754,-10265.679673
899.612108,1480.411884,-2146.597232,-9806.022374
899.612428,-2368.659014,-518.144159,-9422.974625
899.612748,-3108.864956,-592.164754,-9576.193725
899.613068,-1332.370696,-814.226536,-8197.221829
899.613388,962.267725,-518.144159,-10418.898773
899.613708,2738.761985,-814.226536,-9116.536426
899.614028,2516.700203,-444.123565,-9269.755526
899.614348,3478.967927,74.020594,-11797.870669
899.614668,3997.112087,-962.267725,-8963.317327
899.614988,4145.153275,-222.061783,-10572.117872
899.615308,2664.741391,592.164754,-10342.289223
899.615628,2146.597232,1258.350101,-9576.193725
899.615948,-444.123565,2590.720797,-11184.994271
899.616268,148.041188,2442.679609,-10265.679673
899.616588,1258.350101,1110.308913,-10572.117872
899.616908,740.205942,-666.185348,-11568.042020
899.617228,-1332.370696,-2072.576638,-9652.803275
899.617548,-4515.256246,-1110.308913,-10418.898773
899.617868,-2590.720797,0.000000,-11108.384721
899.618187,962.267725,222.061783,-10035.851024
899.618507,2294.638420,1628.453072,-11108.384721
899.618827,1036.288319,1184.329507,-10801.946522
899.619147,74.020594,1184.329507,-10035.851024
899.619467,0.000000,1850.514855,-11568.042020
899.619787,1480.411884,1998.556043,-10725.336972
899.620107,2664.741391,962.267725,-9729.412825
899.620427,1110.308913,148.041188,-10648.727422
899.620747,0.000000,-1924.535449,-9422.974625
899.621067,-3478.967927,-2516.700203,-9806.022374
899.621387,-5699.585753,-2294.638420,-9116.536426
899.621707,-3627.009116,-518.144159,-8580.269578
899.622027,222.061783,1258.350101,-10725.336972
899.622347,2886.803174,1406.391290,-10265.679673
899.622667,1184.329507,1184.329507,-9729.412825
899.622987,-2664.741391,1036.288319,-9806.022374
899.623307,-1702.473667,740.205942,-9193.145976
899.623627,-148.041188,888.247130,-9116.536426
899.623947,1628.453072,592.164754,-10572.117872
899.624267,2146.597232,-592.164754,-9652.803275
899.624587,-296.082377,-444.123565,-9806.022374
899.624907,-2072.576638,370.102971,-10189.070123
899.625227,-962.267725,1110.308913,-9269.755526
899.625547,-518.144159,1258.350101,-10801.946522
899.625867,-740.205942,222.061783,-9806.022374
899.626187,-740.205942,-740.205942,-8886.707777
899.626507,0.000000,-444.123565,-10418.898773
899.626827,3330.926739,-592.164754,-9882.631924
899.627147,5847.626942,444.123565,-9882.631924
899.627467,4737.318029,888.247130,-11184.994271
899.627787,2664.741391,1258.350101,-9652.803275
899.628107,1406.391290,1110.308913,-10265.679673
899.628427,1110.308913,888.247130,-10648.727422
899.628747,2368.659014,74.020594,-9806.022374
899.629067,888.247130,-592.164754,-10878.556072
899.629387,-148.041188,-1702.473667,-10112.460574
899.629707,-1554.432478,-1702.473667,-9959.241474
899.630027,-1184.329507,962.267725,-10878.556072
899.630347,1332.370696,2368.659014,-10342.289223
899.630667,2664.741391,4441.235652,-10801.946522
899.630987,4663.297435,3701.029710,-11644.651570
899.631307,4515.256246,1776.494261,-9729.412825
899.631627,2960.823768,-296.082377,-10572.117872
899.631947,1998.556043,-1924.535449,-9882.631924
899.632267,1332.370696,-2886.803174,-9346.365076
899.632587,740.205942,-1258.350101,-10265.679673
899.632907,1406.391290,-370.102971,-9806.022374
899.633227,518.144159,1332.370696,-9499.584175
899.633547,-1554.432478,2220.617826,-10801.946522
899.633867,-888.247130,444.123565,-8733.488677
899.634187,222.061783,-888.247130,-9959.241474
899.634506,1258.350101,-2442.679609,-10112.460574
899.634826,1628.453072,-3034.844362,-9193.145976
899.635146,-148.041188,-2146.597232,-10495.508323
899.635466,-1628.453072,148.041188,-9806.022374
899.635786,518.144159,1776.494261,-9652.803275
