#time,accel_x,accel_y,accel_z
960.333735,370.102971,0.000000,-10035.851024
960.334055,222.061783,0.000000,-9959.241474
960.334375,1036.288319,-148.041188,-10189.070123
960.334695,888.247130,296.082377,-9959.241474
960.335015,814.226536,666.185348,-10342.289223
960.335336,296.082377,518.144159,-10035.851024
960.335656,444.123565,666.185348,-10035.851024
960.335976,222.061783,0.000000,-9806.022374
960.336296,518.144159,0.000000,-9882.631924
960.336616,518.144159,0.000000,-10035.851024
960.336936,518.144159,518.144159,-9346.365076
960.337256,1036.288319,592.164754,-10342.289223
960.337576,592.164754,666.185348,-10265.679673
960.337896,-222.061783,74.020594,-10112.460574
960.338216,0.000000,-222.061783,-9959.241474
960.338536,1036.288319,0.000000,-9193.145976
960.338856,666.185348,148.041188,-10265.679673
960.339176,0.000000,296.082377,-9806.022374
960.339496,0.000000,518.144159,-10035.851024
960.339816,444.123565,1110.308913,-9882.631924
960.340136,1036.288319,222.061783,-10189.070123
960.340456,0.000000,0.000000,-9882.631924
960.340776,-370.102971,0.000000,-10112.460574
960.341096,148.041188,0.000000,-9806.022374
960.341416,296.082377,222.061783,-10189.070123
960.341736,-148.041188,296.082377,-10265.679673
960.342056,-962.267725,148.041188,-10035.851024
960.342376,-444.123565,0.000000,-10112.460574
960.342696,0.000000,-296.082377,-10189.070123
960.343016,-222.061783,-592.164754,-10112.460574
960.343337,-592.164754,-666.185348,-10189.070123
960.343657,-296.082377,-518.144159,-9959.241474
960.343977,-444.123565,0.000000,-10189.070123
960.344297,-814.226536,-296.082377,-10265.679673
960.344617,-1406.391290,-740.205942,-9882.631924
960.344937,-962.267725,-1110.308913,-9959.241474
960.345257,-740.205942,-1110.308913,-9806.022374
960.345577,-1258.350101,-1258.350101,-9346.365076
960.345897,-1850.514855,-1036.288319,-9882.631924
960.346217,-1628.453072,-962.267725,-9959.241474
960.346537,-740.205942,-666.185348,-10189.070123
960.346857,-888.247130,-518.144159,-9882.631924
960.347177,-1628.453072,-1258.350101,-10189.070123
960.347497,-740.205942,-1924.535449,-9959.241474
960.347817,-148.041188,-1628.453072,-9806.022374
960.348137,-296.082377,-814.226536,-10342.289223
960.348457,-1776.494261,-1110.308913,-9269.755526
960.348777,-2664.741391,-1998.556043,-10112.460574
960.349097,-2738.761985,-2516.700203,-9806.022374
960.349417,-2146.597232,-2368.659014,-9806.022374
960.349737,-1998.556043,-2294.638420,-9959.241474
960.350057,-2146.597232,-2812.782580,-9806.022374
960.350377,-1480.411884,-2590.720797,-9806.022374
960.350697,0.000000,-2294.638420,-9806.022374
960.351017,1258.350101,-1628.453072,-10265.679673
960.351338,1110.308913,-1258.350101,-10112.460574
960.351658,-592.164754,-2146.597232,-10189.070123
960.351978,-1480.411884,-2664.741391,-10112.460574
960.352298,-2516.700203,-3034.844362,-9729.412825
960.352618,-3552.988522,-3997.112087,-9806.022374
960.352938,-4959.379811,-4737.318029,-9652.803275
960.353258,-4663.297435,-5551.544565,-9806.022374
960.353578,-2590.720797,-5551.544565,-9576.193725
960.353898,-370.102971,-4737.318029,-9806.022374
960.354218,370.102971,-3034.844362,-10495.508323
960.354538,888.247130,-1110.308913,-10648.727422
960.354858,1406.391290,222.061783,-10801.946522
960.355178,1924.535449,370.102971,-10495.508323
960.355498,1332.370696,-666.185348,-10265.679673
960.355818,-370.102971,-2368.659014,-10189.070123
960.356138,-2368.659014,-3330.926739,-10189.070123
960.356458,-3997.112087,-3627.009116,-10035.851024
960.356778,-5329.482782,-4145.153275,-9882.631924
960.357098,-5995.668130,-4811.338623,-9346.365076
960.357418,-4885.359217,-5107.421000,-8963.317327
960.357738,-2072.576638,-5477.523971,-9959.241474
960.358058,814.226536,-4367.215058,-9882.631924
960.358378,2368.659014,-962.267725,-11721.261119
960.358698,2664.741391,592.164754,-10342.289223
960.359018,3849.070898,1924.535449,-10495.508323
960.359339,3775.050304,2220.617826,-10725.336972
960.359659,666.185348,1480.411884,-10878.556072
960.359979,-3404.947333,-740.205942,-10725.336972
960.360299,-6587.832884,-3923.091493,-9806.022374
960.360619,-6735.874072,-6513.812290,-9269.755526
960.360939,-4811.338623,-7402.059420,-9346.365076
960.361259,-3701.029710,-7624.121203,-9806.022374
960.361579,-2442.679609,-5847.626942,-9116.536426
960.361899,-296.082377,-2294.638420,-10035.851024
960.362219,1554.432478,1480.411884,-10342.289223
960.362539,2368.659014,3701.029710,-10648.727422
960.362859,2368.659014,3997.112087,-10265.679673
960.363179,2590.720797,1776.494261,-10648.727422
960.363499,2368.659014,-962.267725,-10572.117872
960.363819,-444.123565,-2294.638420,-10342.289223
960.364139,-3330.926739,-2812.782580,-9576.193725
960.364459,-5329.482782,-2072.576638,-10035.851024
960.364779,-6069.688724,-1554.432478,-9959.241474
960.365099,-6735.874072,-2738.761985,-9576.193725
960.365419,-6069.688724,-3404.947333,-10265.679673
960.365739,-2442.679609,-4441.235652,-9576.193725
960.366059,1480.411884,-4145.153275,-9806.022374
960.366379,3997.112087,-1036.288319,-10112.460574
960.366699,3256.906145,2442.679609,-10418.898773
960.367019,2146.597232,5403.503377,-10801.946522
960.367339,1776.494261,5033.400406,-10955.165621
960.367660,1850.514855,2442.679609,-10725.336972
960.367980,-444.123565,-888.247130,-10495.508323
960.368300,-4071.132681,-2960.823768,-10035.851024
960.368620,-6587.832884,-4219.173869,-9806.022374
960.368940,-7920.203579,-5033.400406,-9269.755526
960.369260,-7772.162391,-4885.359217,-8810.098227
960.369580,-5181.441594,-5329.482782,-9039.926876
960.369900,-1480.411884,-4885.359217,-9193.145976
960.370220,3256.906145,-4219.173869,-9806.022374
960.370540,3701.029710,-962.267725,-10495.508323
960.370860,2812.782580,2516.700203,-10878.556072
960.371180,3108.864956,5477.523971,-11184.994271
960.371500,2590.720797,5403.503377,-11108.384721
960.371820,592.164754,3404.947333,-11108.384721
960.372140,-2812.782580,814.226536,-10725.336972
960.372460,-5921.647536,-2368.659014,-10189.070123
960.372780,-7920.203579,-5477.523971,-10112.460574
960.373100,-8882.471304,-7402.059420,-9039.926876
960.373420,-7179.997637,-7920.203579,-9116.536426
960.373740,-5033.400406,-6883.915261,-9269.755526
960.374060,-2812.782580,-4293.194464,-9422.974625
960.374380,222.061783,-1036.288319,-9499.584175
960.374700,4811.338623,1924.535449,-10495.508323
960.375020,7772.162391,2368.659014,-11184.994271
960.375340,6365.771101,3182.885551,-11338.213370
960.375661,1850.514855,1110.308913,-10725.336972
960.375981,-1184.329507,-1036.288319,-9882.631924
960.376301,-2368.659014,-3330.926739,-9729.412825
960.376621,-3775.050304,-5255.462188,-9882.631924
960.376941,-5625.565159,-6957.935855,-9039.926876
960.377261,-7476.080014,-7846.182985,-9039.926876
960.377581,-5329.482782,-7476.080014,-9193.145976
960.377901,-1554.432478,-5551.544565,-9806.022374
960.378221,74.020594,-2072.576638,-9959.241474
960.378541,-740.205942,74.020594,-9882.631924
960.378861,-1110.308913,666.185348,-9882.631924
960.379181,1628.453072,592.164754,-10342.289223
960.379501,4145.153275,592.164754,-10342.289223
960.379821,2886.803174,-814.226536,-10572.117872
960.380141,1924.535449,-2072.576638,-10878.556072
960.380461,-370.102971,-2368.659014,-10342.289223
960.380781,-2516.700203,-3034.844362,-10418.898773
960.381101,-5255.462188,-2960.823768,-10342.289223
960.381421,-6069.688724,-4441.235652,-9959.241474
960.381741,-4737.318029,-4441.235652,-9576.193725
960.382061,-2368.659014,-3923.091493,-9806.022374
960.382381,-518.144159,-3330.926739,-10189.070123
960.382701,518.144159,-2072.576638,-10572.117872
960.383021,888.247130,-1110.308913,-10648.727422
960.383341,-444.123565,0.000000,-10418.898773
960.383662,2220.617826,1480.411884,-10342.289223
960.383982,1628.453072,1480.411884,-10265.679673
960.384302,814.226536,0.000000,-10648.727422
960.384622,-1998.556043,-1258.350101,-10265.679673
960.384942,-3330.926739,-4367.215058,-10035.851024
960.385262,-4885.359217,-4737.318029,-8886.707777
960.385582,-5181.441594,-5477.523971,-9806.022374
960.385902,-4219.173869,-4367.215058,-8963.317327
960.386222,-2960.823768,-4515.256246,-9576.193725
960.386542,-148.041188,-3330.926739,-9422.974625
960.386862,2072.576638,-1554.432478,-9652.803275
960.387182,2812.782580,-296.082377,-10495.508323
960.387502,2368.659014,2072.576638,-10648.727422
960.387822,888.247130,2072.576638,-10725.336972
960.388142,-518.144159,1036.288319,-10112.460574
960.388462,-1406.391290,-1332.370696,-9729.412825
960.388782,-2368.659014,-3256.906145,-9882.631924
960.389102,-4145.153275,-4219.173869,-9882.631924
960.389422,-4737.318029,-4367.215058,-10189.070123
960.389742,-4737.318029,-3627.009116,-8886.707777
960.390062,-4293.194464,-1998.556043,-9729.412825
960.390382,-3330.926739,0.000000,-9959.241474
960.390702,-1998.556043,-962.267725,-9499.584175
960.391022,222.061783,-1036.288319,-10801.946522
960.391342,740.205942,222.061783,-10495.508323
960.391662,2368.659014,222.061783,-10878.556072
960.391982,962.267725,888.247130,-10189.070123
960.392302,296.082377,1036.288319,-10495.508323
960.392622,148.041188,-444.123565,-9959.241474
960.392942,-1628.453072,-1776.494261,-10801.946522
960.393262,-2294.638420,-3034.844362,-10035.851024
960.393582,-3404.947333,-5181.441594,-10418.898773
960.393902,-5181.441594,-4145.153275,-9499.584175
960.394222,-6069.688724,-3552.988522,-9576.193725
960.394542,-3182.885551,-2146.597232,-9269.755526
960.394862,-1332.370696,-1258.350101,-10418.898773
960.395182,2886.803174,-1554.432478,-10112.460574
960.395502,2294.638420,-1184.329507,-10035.851024
960.395822,962.267725,-296.082377,-10112.460574
960.396142,370.102971,444.123565,-9882.631924
960.396462,1110.308913,-1628.453072,-9882.631924
960.396782,1406.391290,-2516.700203,-7890.783629
960.397102,-2146.597232,-3182.885551,-10035.851024
960.397422,-4071.132681,-3404.947333,-10112.460574
960.397742,-5255.462188,-2072.576638,-9806.022374
960.398062,-5033.400406,-2368.659014,-9729.412825
960.398382,-2812.782580,-3849.070898,-9039.926876
960.398702,444.123565,-3552.988522,-9729.412825
960.399022,-370.102971,-3108.864956,-10189.070123
960.399342,-1406.391290,-2664.741391,-10112.460574
960.399662,-2294.638420,-888.247130,-9729.412825
960.399982,-962.267725,592.164754,-10265.679673
960.400302,592.164754,888.247130,-10189.070123
960.400622,814.226536,-1184.329507,-10265.679673
960.400942,0.000000,-3404.947333,-11491.432470
960.401262,-2442.679609,-4441.235652,-10112.460574
960.401582,-6143.709319,-4737.318029,-9806.022374
960.401902,-2886.803174,-2664.741391,-10035.851024
960.402222,-1998.556043,-370.102971,-11184.994271
960.402542,-1480.411884,-888.247130,-11031.775171
960.402862,-3997.112087,-1924.535449,-10035.851024
960.403182,-3701.029710,-4811.338623,-9576.193725
960.403502,296.082377,-4663.297435,-9806.022374
960.403822,2146.597232,-2960.823768,-11031.775171
960.404142,-444.123565,-666.185348,-10112.460574
960.404462,-3478.967927,518.144159,-11031.775171
960.404782,-3404.947333,444.123565,-10265.679673
960.405102,-2590.720797,0.000000,-10342.289223
960.405422,-518.144159,-1184.329507,-10418.898773
960.405742,-1702.473667,-1776.494261,-10112.460574
960.406062,-4219.173869,-4737.318029,-10035.851024
960.406382,-4071.132681,-6957.935855,-9269.755526
960.406702,-814.226536,-7105.977043,-9499.584175
960.407022,2368.659014,-2442.679609,-9882.631924
960.407342,2812.782580,222.061783,-9959.241474
960.407662,-222.061783,2294.638420,-10801.946522
960.407982,-740.205942,1702.473667,-9269.755526
960.408302,1036.288319,2516.700203,-10035.851024
960.408622,2072.576638,1184.329507,-10495.508323
960.408942,2516.700203,-1406.391290,-10035.851024
960.409262,1628.453072,-5255.462188,-9576.193725
960.409582,1036.288319,-4737.318029,-9269.755526
960.409902,666.185348,-4515.256246,-10035.851024
960.410222,-1480.411884,-2516.700203,-9346.365076
960.410542,-1702.473667,0.000000,-9806.022374
960.410862,-370.102971,-740.205942,-10495.508323
960.411182,2220.617826,1184.329507,-10725.336972
960.411502,1110.308913,0.000000,-10112.460574
960.411822,444.123565,-592.164754,-9959.241474
960.412142,740.205942,-1332.370696,-10342.289223
960.412462,1850.514855,0.000000,-10572.117872
960.412782,3701.029710,370.102971,-10801.946522
960.413102,1332.370696,2220.617826,-10725.336972
960.413422,-1332.370696,3923.091493,-11338.213370
960.413742,-3330.926739,2590.720797,-10572.117872
960.414062,-3849.070898,666.185348,-10572.117872
960.414382,-3552.988522,-962.267725,-9959.241474
960.414702,-3108.864956,-3034.844362,-10035.851024
960.415022,74.020594,-1776.494261,-9882.631924
960.415342,1258.350101,-1258.350101,-12257.527968
960.415662,3552.988522,2812.782580,-10725.336972
960.415982,2368.659014,5329.482782,-10572.117872
960.416302,74.020594,4663.297435,-10418.898773
960.416622,148.041188,4589.276840,-9959.241474
960.416942,1036.288319,2738.761985,-10648.727422
960.417262,2664.741391,1036.288319,-9959.241474
960.417582,1776.494261,0.000000,-10418.898773
960.417902,1184.329507,-592.164754,-9806.022374
960.418222,-888.247130,0.000000,-10418.898773
960.418542,-1924.535449,518.144159,-8886.707777
960.418862,-2294.638420,666.185348,-10342.289223
960.419182,518.144159,1850.514855,-10035.851024
960.419502,1480.411884,888.247130,-10035.851024
960.419822,1258.350101,-370.102971,-9652.803275
960.420142,1110.308913,-370.102971,-9193.145976
960.420462,1776.494261,888.247130,-10035.851024
960.420782,3404.947333,2664.741391,-10112.460574
960.421102,4441.235652,3330.926739,-9499.584175
960.421422,3256.906145,1702.473667,-10265.679673
960.421742,888.247130,1850.514855,-9806.022374
960.422062,-666.185348,0.000000,-10342.289223
960.422382,-592.164754,-2368.659014,-9652.803275
960.422702,-1776.494261,-962.267725,-8963.317327
960.423022,-592.164754,222.061783,-10035.851024
960.423342,1702.473667,1184.329507,-9729.412825
960.423662,3404.947333,1702.473667,-10495.508323
960.423982,4293.194464,518.144159,-10342.289223
960.424302,4589.276840,-370.102971,-10035.851024
960.424622,4589.276840,1406.391290,-10801.946522
960.424942,1702.473667,2072.576638,-10265.679673
960.425262,-444.123565,518.144159,-8503.660028
960.425582,-3182.885551,0.000000,-9806.022374
960.425902,-3923.091493,-1998.556043,-9269.755526
960.426222,-1480.411884,-3701.029710,-9882.631924
960.426542,444.123565,-2072.576638,-10572.117872
960.426862,-74.020594,-296.082377,-10342.289223
960.427182,-666.185348,-1702.473667,-9882.631924
960.427502,-1554.432478,-1258.350101,-9729.412825
960.427822,-1480.411884,-1406.391290,-9806.022374
960.428142,222.061783,370.102971,-9576.193725
960.428462,4145.153275,74.020594,-11644.651570
960.428782,4071.132681,2146.597232,-10878.556072
960.429102,296.082377,1406.391290,-10955.165621
960.429422,-1184.329507,0.000000,-9882.631924
960.429742,-1184.329507,-592.164754,-9806.022374
960.430061,-1258.350101,-1258.350101,-10035.851024
960.430381,-1850.514855,-2368.659014,-9806.022374
960.430701,-2664.741391,-3849.070898,-9882.631924
960.431021,-4811.338623,-2590.720797,-9806.022374
960.431341,-3775.050304,-2072.576638,-10035.851024
960.431661,-814.226536,-222.061783,-9652.803275
960.431981,592.164754,-740.205942,-9806.022374
960.432301,740.205942,1110.308913,-10189.070123
960.432621,1406.391290,296.082377,-10189.070123
960.432941,2072.576638,148.041188,-10265.679673
960.433261,1702.473667,1110.308913,-10648.727422
960.433581,814.226536,-666.185348,-9652.803275
960.433901,740.205942,-1998.556043,-9806.022374
960.434221,-962.267725,-2590.720797,-10342.289223
960.434541,1036.288319,-888.247130,-10189.070123
960.434861,0.000000,740.205942,-11031.775171
960.435181,814.226536,518.144159,-10342.289223
960.435501,1998.556043,148.041188,-10418.898773
960.435821,3256.906145,-1332.370696,-10495.508323
960.436141,666.185348,-1480.411884,-9959.241474
960.436461,-814.226536,-2072.576638,-9959.241474
960.436781,-740.205942,444.123565,-9882.631924
960.437101,1924.535449,1554.432478,-10265.679673
960.437421,4071.132681,3256.906145,-10801.946522
960.437741,5255.462188,2294.638420,-10342.289223
960.438061,5625.565159,0.000000,-9882.631924
960.438381,2738.761985,0.000000,-10955.165621
960.438701,666.185348,0.000000,-9729.412825
960.439021,-2294.638420,0.000000,-9576.193725
960.439341,-814.226536,-740.205942,-9576.193725
960.439661,222.061783,74.020594,-9806.022374
960.439981,888.247130,-296.082377,-10495.508323
960.440301,1184.329507,444.123565,-10189.070123
960.440621,1184.329507,0.000000,-9806.022374
960.440941,4737.318029,1554.432478,-9346.365076
960.441261,3034.844362,2590.720797,-10725.336972
960.441581,2146.597232,4959.379811,-10725.336972
960.441901,-888.247130,4737.318029,-10035.851024
960.442221,-518.144159,2368.659014,-10418.898773
960.442541,2220.617826,-148.041188,-9806.022374
960.442861,296.082377,-3108.864956,-9576.193725
960.443181,-666.185348,-2812.782580,-8810.098227
960.443501,-1998.556043,-1258.350101,-9959.241474
960.443821,-2072.576638,1702.473667,-11108.384721
960.444141,-1110.308913,3775.050304,-10035.851024
960.444461,-2072.576638,7328.038826,-10878.556072
960.444781,-2516.700203,8660.409521,-10572.117872
960.445101,-962.267725,5625.565159,-10189.070123
960.445421,1628.453072,3701.029710,-9959.241474
960.445741,3404.947333,0.000000,-10725.336972
960.446061,2738.761985,-2812.782580,-10265.679673
960.446381,1110.308913,-4959.379811,-9806.022374
960.446701,-1184.329507,-1258.350101,-8503.660028
960.447021,-2146.597232,1702.473667,-9729.412825
960.447341,-2146.597232,3923.091493,-10189.070123
960.447661,-1776.494261,2220.617826,-10189.070123
960.447981,0.000000,592.164754,-9193.145976
960.448301,0.000000,-222.061783,-9806.022374
960.448621,444.123565,-1998.556043,-10112.460574
960.448941,1406.391290,-444.123565,-9116.536426
960.449261,-1184.329507,-1184.329507,-9729.412825
960.449581,222.061783,444.123565,-8656.879127
960.449901,1332.370696,444.123565,-10035.851024
960.450221,0.000000,0.000000,-9806.022374
960.450541,296.082377,-888.247130,-9422.974625
960.450861,518.144159,-370.102971,-9729.412825
960.451181,3478.967927,-370.102971,-9882.631924
960.451501,3256.906145,740.205942,-9882.631924
960.451821,1554.432478,592.164754,-11338.213370
960.452141,1924.535449,296.082377,-9882.631924
960.452461,3034.844362,518.144159,-10342.289223
960.452781,4737.318029,1036.288319,-10572.117872
960.453101,-518.144159,1924.535449,-10035.851024
960.453421,-2516.700203,-740.205942,-10418.898773
960.453741,1406.391290,-2294.638420,-9882.631924
960.454061,3330.926739,-2220.617826,-10572.117872
960.454381,1628.453072,-2442.679609,-9882.631924
960.454701,-592.164754,-3182.885551,-10035.851024
960.455021,1184.329507,-444.123565,-10495.508323
960.455341,740.205942,2368.659014,-10878.556072
960.455661,0.000000,444.123565,-10955.165621
960.455981,-2516.700203,-888.247130,-9806.022374
960.456301,-592.164754,-3108.864956,-10112.460574
960.456621,1184.329507,-222.061783,-9039.926876
960.456941,2220.617826,74.020594,-10648.727422
960.457261,2368.659014,0.000000,-10265.679673
960.457581,-592.164754,-1184.329507,-9882.631924
960.457901,962.267725,-2072.576638,-9806.022374
960.458221,2886.803174,-148.041188,-9959.241474
960.458541,518.144159,0.000000,-9882.631924
960.458861,444.123565,2886.803174,-9269.755526
960.459181,148.041188,2886.803174,-10189.070123
960.459501,3997.112087,0.000000,-10648.727422
960.459821,3404.947333,-2072.576638,-10035.851024
960.460141,-444.123565,-1628.453072,-9959.241474
960.460461,-3997.112087,-370.102971,-9422.974625
960.460781,-4145.153275,1406.391290,-9882.631924
960.461101,-1924.535449,2886.803174,-10112.460574
960.461421,-74.020594,2516.700203,-10112.460574
960.461741,-1184.329507,1924.535449,-10035.851024
960.462061,740.205942,222.061783,-9576.193725
960.462381,3404.947333,-666.185348,-10418.898773
960.462701,4737.318029,0.000000,-10572.117872
960.463021,1924.535449,-1184.329507,-10342.289223
960.463341,-1184.329507,-444.123565,-9806.022374
960.463661,-370.102971,444.123565,-9806.022374
960.463981,0.000000,1998.556043,-11031.775171
960.464301,0.000000,2812.782580,-10418.898773
960.464621,-1184.329507,1924.535449,-10801.946522
960.464941,-1184.329507,0.000000,-10342.289223
960.465261,-1110.308913,-740.205942,-9806.022374
960.465581,-1480.411884,-2812.782580,-10648.727422
960.465901,-3182.885551,-1184.329507,-9652.803275
960.466221,0.000000,2294.638420,-10648.727422
960.466541,4219.173869,3478.967927,-10189.070123
960.466861,3849.070898,3256.906145,-11338.213370
960.467181,1776.494261,3034.844362,-10189.070123
960.467501,-814.226536,814.226536,-9039.926876
960.467821,0.000000,-444.123565,-9729.412825
960.468141,1184.329507,-592.164754,-10725.336972
960.468461,814.226536,-1554.432478,-9806.022374
960.468781,-1406.391290,-740.205942,-9193.145976
960.469101,-962.267725,74.020594,-10265.679673
960.469421,222.061783,1184.329507,-8044.002729
960.469741,-814.226536,2294.638420,-10725.336972
960.470061,0.000000,2368.659014,-9959.241474
960.470381,-370.102971,1776.494261,-9806.022374
960.470701,-962.267725,2368.659014,-10572.117872
960.471021,1850.514855,2664.741391,-9806.022374
960.471341,2146.597232,888.247130,-10648.727422
960.471661,0.000000,-444.123565,-9652.803275
960.471981,-962.267725,-2220.617826,-9652.803275
960.472301,1110.308913,-1628.453072,-10495.508323
960.472621,518.144159,0.000000,-10112.460574
960.472941,296.082377,1924.535449,-10265.679673
960.473261,2590.720797,2960.823768,-10878.556072
960.473581,5255.462188,3701.029710,-11184.994271
960.473901,3849.070898,4219.173869,-11568.042020
960.474221,1628.453072,814.226536,-11644.651570
960.474541,3182.885551,-1258.350101,-9576.193725
960.474861,1258.350101,1258.350101,-10725.336972
960.475181,0.000000,2368.659014,-10189.070123
960.475501,0.000000,4589.276840,-10572.117872
960.475821,-962.267725,3182.885551,-11031.775171
960.476141,962.267725,-1406.391290,-9806.022374
960.476461,3108.864956,-3182.885551,-9269.755526
960.476781,1110.308913,-3404.947333,-8733.488677
960.477101,962.267725,-1702.473667,-8580.269578
960.477421,592.164754,1406.391290,-10265.679673
960.477741,2590.720797,1406.391290,-9882.631924
960.478061,3997.112087,-740.205942,-8810.098227
960.478381,1850.514855,-222.061783,-9806.022374
960.478701,74.020594,2368.659014,-8886.707777
960.479021,-888.247130,1702.473667,-10035.851024
960.479341,148.041188,-1184.329507,-9269.755526
960.479661,74.020594,-2590.720797,-8733.488677
960.479981,-592.164754,-3849.070898,-9269.755526
960.480301,2220.617826,-2664.741391,-9039.926876
960.480621,4885.359217,-1628.453072,-10189.070123
960.480941,4589.276840,2442.679609,-10189.070123
960.481261,2590.720797,3478.967927,-11031.775171
960.481581,-148.041188,2812.782580,-10189.070123
960.481901,-2886.803174,1184.329507,-10035.851024
960.482221,-3108.864956,-370.102971,-8656.879127
960.482541,-3404.947333,-740.205942,-10265.679673
960.482861,-2590.720797,74.020594,-10495.508323
960.483181,-592.164754,-518.144159,-10725.336972
960.483501,296.082377,-1628.453072,-10878.556072
960.483821,-740.205942,148.041188,-9959.241474
960.484141,-1332.370696,592.164754,-10955.165621
960.484461,-1036.288319,2516.700203,-10648.727422
960.484781,-370.102971,3108.864956,-10878.556072
960.485101,2442.679609,1480.411884,-10878.556072
960.485421,1184.329507,-296.082377,-10342.289223
960.485741,-2146.597232,-2368.659014,-10189.070123
960.486061,-4441.235652,-1850.514855,-9269.755526
960.486381,-1480.411884,148.041188,-10265.679673
960.486701,-1036.288319,1554.432478,-10112.460574
960.487021,-222.061783,1554.432478,-10801.946522
960.487341,-3330.926739,1036.288319,-9652.803275
960.487661,962.267725,1480.411884,-10112.460574
960.487981,370.102971,0.000000,-9806.022374
960.488301,814.226536,222.061783,-9576.193725
960.488621,1702.473667,0.000000,-9729.412825
960.488941,2960.823768,0.000000,-9346.365076
960.489262,2442.679609,0.000000,-9499.584175
960.489582,1850.514855,1554.432478,-9806.022374
960.489902,-666.185348,740.205942,-9346.365076
960.490222,-1184.329507,666.185348,-9882.631924
960.490542,4219.173869,444.123565,-10112.460574
960.490863,6143.709319,148.041188,-9193.145976
960.491183,3775.050304,518.144159,-10265.679673
960.491503,2886.803174,1332.370696,-10418.898773
960.491823,3034.844362,2072.576638,-10189.070123
960.492143,3849.070898,2442.679609,-10265.679673
960.492464,3775.050304,3404.947333,-10265.679673
960.492784,2294.638420,-888.247130,-11414.822920
960.493104,-148.041188,-3034.844362,-9499.584175
960.493424,-2664.741391,-2442.679609,-9652.803275
960.493744,-1110.308913,-592.164754,-9882.631924
960.494064,-1406.391290,1924.535449,-11031.775171
960.494385,1924.535449,2886.803174,-10648.727422
960.494705,3404.947333,2146.597232,-10955.165621
960.495025,3108.864956,592.164754,-10418.898773
960.495345,2294.638420,0.000000,-9806.022374
960.495665,1628.453072,-1776.494261,-10725.336972
960.495986,2146.597232,-296.082377,-9806.022374
960.496306,-1036.288319,148.041188,-10572.117872
960.496626,74.020594,148.041188,-8733.488677
960.496946,-1184.329507,666.185348,-10189.070123
960.497266,-2886.803174,1036.288319,-9959.241474
960.497587,-2960.823768,592.164754,-10035.851024
960.497907,-1628.453072,-74.020594,-9806.022374
960.498227,-2442.679609,-666.185348,-9729.412825
960.498547,-1480.411884,-1480.411884,-9269.755526
960.498867,-2590.720797,-1184.329507,-9959.241474
960.499188,-1554.432478,-296.082377,-8963.317327
960.499508,-1110.308913,962.267725,-11031.775171
960.499828,-592.164754,1184.329507,-9882.631924
960.500148,-3182.885551,1258.350101,-9882.631924
960.500468,-2886.803174,1036.288319,-10112.460574
960.500788,-2220.617826,0.000000,-9729.412825
960.501109,-1184.329507,74.020594,-10265.679673
960.501429,-592.164754,-1480.411884,-9882.631924
960.501749,-888.247130,-1036.288319,-10112.460574
960.502069,-1184.329507,-1480.411884,-10189.070123
960.502389,1998.556043,592.164754,-9422.974625
960.502710,1776.494261,1776.494261,-11031.775171
960.503030,3404.947333,3627.009116,-11261.603821
960.503350,1406.391290,3923.091493,-11414.822920
960.503670,592.164754,1776.494261,-11874.480219
960.503990,1554.432478,0.000000,-10265.679673
960.504311,0.000000,888.247130,-10418.898773
960.504631,-2368.659014,1924.535449,-10725.336972
960.504951,222.061783,1258.350101,-10648.727422
960.505271,4959.379811,0.000000,-10648.727422
960.505591,7920.203579,-1480.411884,-10495.508323
960.505912,7254.018232,-148.041188,-10725.336972
960.506232,3256.906145,1406.391290,-10418.898773
960.506552,888.247130,2960.823768,-10572.117872
960.506872,1554.432478,3627.009116,-10035.851024
960.507192,2294.638420,2886.803174,-10189.070123
960.507512,2738.761985,1258.350101,-9959.241474
960.507833,2738.761985,-2442.679609,-9116.536426
960.508153,2738.761985,-3478.967927,-9269.755526
960.508473,3404.947333,-2590.720797,-9652.803275
960.508793,2442.679609,-740.205942,-9116.536426
960.509113,-370.102971,-444.123565,-9039.926876
960.509434,296.082377,-370.102971,-7354.516781
960.509754,3034.844362,-518.144159,-9576.193725
960.510074,2146.597232,0.000000,-9193.145976
960.510394,1184.329507,1480.411884,-10495.508323
960.510714,148.041188,592.164754,-9499.584175
960.511035,2072.576638,370.102971,-9806.022374
960.511355,1036.288319,592.164754,-11338.213370
960.511675,-2220.617826,444.123565,-9499.584175
960.511995,-6439.791695,592.164754,-10418.898773
960.512315,-5699.585753,962.267725,-10418.898773
960.512636,-1850.514855,-1554.432478,-10265.679673
960.512956,-444.123565,-2960.823768,-10189.070123
960.513276,-148.041188,-1554.432478,-9422.974625
960.513596,-1332.370696,-370.102971,-11184.994271
960.513916,-814.226536,2294.638420,-11261.603821
960.514236,-1036.288319,3775.050304,-11414.822920
960.514557,-3256.906145,4145.153275,-10418.898773
960.514877,-4737.318029,2072.576638,-10112.460574
960.515197,-2294.638420,0.000000,-10035.851024
960.515517,-1924.535449,-2368.659014,-10495.508323
960.515837,-3330.926739,-2664.741391,-10265.679673
960.516158,-3256.906145,-3330.926739,-9806.022374
960.516478,0.000000,-740.205942,-9499.584175
960.516798,2294.638420,1850.514855,-10418.898773
960.517118,2442.679609,2368.659014,-11261.603821
960.517438,888.247130,3256.906145,-9729.412825
960.517759,-1332.370696,1850.514855,-9882.631924
960.518079,1924.535449,1406.391290,-10265.679673
960.518399,2812.782580,-592.164754,-11031.775171
960.518719,2738.761985,-1850.514855,-9806.022374
960.519039,2220.617826,222.061783,-9806.022374
960.519360,1554.432478,-370.102971,-9806.022374
960.519680,2368.659014,74.020594,-9882.631924
960.520000,444.123565,-666.185348,-9806.022374
960.520320,0.000000,370.102971,-9346.365076
960.520640,0.000000,888.247130,-9806.022374
960.520961,2368.659014,1110.308913,-9422.974625
960.521281,3256.906145,888.247130,-9806.022374
960.521601,4737.318029,222.061783,-10035.851024
960.521921,5847.626942,-518.144159,-9806.022374
960.522241,6587.832884,0.000000,-9576.193725
960.522561,5551.544565,740.205942,-10035.851024
960.522882,2886.803174,1702.473667,-10878.556072
960.523202,370.102971,2368.659014,-10189.070123
960.523522,1554.432478,2146.597232,-10955.165621
960.523842,1480.411884,1924.535449,-9806.022374
960.524162,666.185348,-296.082377,-10495.508323
960.524483,888.247130,-2812.782580,-10342.289223
960.524803,2072.576638,-3775.050304,-9422.974625
960.525123,2590.720797,-1184.329507,-11721.261119
960.525443,1776.494261,1480.411884,-10112.460574
960.525763,0.000000,2886.803174,-10418.898773
960.526084,-2146.597232,2516.700203,-10648.727422
960.526404,-592.164754,1850.514855,-10265.679673
960.526724,518.144159,1184.329507,-11031.775171
960.527044,222.061783,-74.020594,-10648.727422
960.527364,-2516.700203,-296.082377,-9269.755526
960.527685,-3256.906145,0.000000,-10418.898773
960.528005,-814.226536,74.020594,-8963.317327
960.528325,-296.082377,-1036.288319,-9806.022374
960.528645,-1776.494261,-666.185348,-9652.803275
960.528965,-3182.885551,-296.082377,-8656.879127
960.529285,-2146.597232,3478.967927,-11108.384721
960.529606,-222.061783,4145.153275,-9806.022374
960.529926,-370.102971,4663.297435,-10265.679673
960.530246,-1702.473667,1480.411884,-9882.631924
960.530566,-3701.029710,-1480.411884,-9422.974625
960.530886,-2220.617826,-3108.864956,-9806.022374
960.531207,-2516.700203,-3552.988522,-9269.755526
960.531527,-3108.864956,-1924.535449,-10035.851024
960.531847,-2738.761985,1110.308913,-9729.412825
960.532167,-2220.617826,296.082377,-10572.117872
960.532487,-962.267725,962.267725,-10418.898773
960.532808,370.102971,0.000000,-10955.165621
960.533128,1036.288319,1036.288319,-10189.070123
960.533448,370.102971,1110.308913,-10878.556072
960.533768,2812.782580,1998.556043,-11491.432470
960.534088,3256.906145,2812.782580,-11414.822920
960.534409,2590.720797,2516.700203,-11184.994271
960.534729,-148.041188,1332.370696,-10648.727422
960.535049,-1258.350101,-1184.329507,-8963.317327
960.535369,1184.329507,-1924.535449,-10495.508323
960.535689,2664.741391,-1332.370696,-10112.460574
960.536009,3923.091493,-2146.597232,-9576.193725
960.536330,3330.926739,0.000000,-9729.412825
960.536650,5033.400406,2294.638420,-10035.851024
960.536970,4367.215058,3478.967927,-10112.460574
960.537290,2960.823768,3478.967927,-10112.460574
960.537610,2738.761985,2146.597232,-9576.193725
960.537931,6587.832884,-296.082377,-9346.365076
960.538251,8068.244768,-1850.514855,-9882.631924
960.538571,4515.256246,-2442.679609,-10265.679673
960.538891,-1036.288319,-2590.720797,-8427.050478
960.539211,-2368.659014,-1332.370696,-9039.926876
960.539532,1332.370696,740.205942,-9346.365076
960.539852,2516.700203,592.164754,-9269.755526
960.540172,888.247130,-148.041188,-10725.336972
960.540492,-518.144159,-1036.288319,-9729.412825
960.540812,666.185348,-2886.803174,-9576.193725
960.541133,2146.597232,-888.247130,-9882.631924
960.541453,2812.782580,-1184.329507,-10572.117872
960.541773,962.267725,518.144159,-10265.679673
960.542093,-1776.494261,2294.638420,-9882.631924
960.542413,-666.185348,3034.844362,-10189.070123
960.542733,0.000000,2590.720797,-11721.261119
960.543054,-814.226536,888.247130,-10495.508323
960.543374,-3775.050304,-2220.617826,-9959.241474
960.543694,-3775.050304,-3552.988522,-10725.336972
960.544014,-2220.617826,-2590.720797,-10112.460574
960.544334,-3034.844362,0.000000,-11108.384721
960.544655,-4663.297435,3552.988522,-10495.508323
960.544975,-4515.256246,5921.647536,-10878.556072
960.545295,-740.205942,5403.503377,-10955.165621
960.545615,3997.112087,2146.597232,-11031.775171
960.545935,2368.659014,-1110.308913,-10265.679673
960.546256,-3034.844362,-2886.803174,-10112.460574
960.546576,-3923.091493,-2590.720797,-9193.145976
960.546896,-4515.256246,-1110.308913,-9422.974625
960.547216,-1850.514855,-666.185348,-9193.145976
960.547536,-2368.659014,-666.185348,-9269.755526
960.547857,-222.061783,296.082377,-8656.879127
960.548177,3034.844362,1554.432478,-9806.022374
960.548497,3330.926739,1332.370696,-10189.070123
960.548817,1702.473667,0.000000,-9116.536426
960.549137,1554.432478,-1036.288319,-9269.755526
960.549457,962.267725,-2442.679609,-8503.660028
960.549778,2960.823768,-1776.494261,-9346.365076
960.550098,1480.411884,0.000000,-9806.022374
960.550418,-518.144159,1480.411884,-9959.241474
960.550738,0.000000,1702.473667,-10112.460574
960.551058,3775.050304,962.267725,-9806.022374
960.551379,6365.771101,-370.102971,-10572.117872
960.551699,3997.112087,-370.102971,-10648.727422
960.552019,-148.041188,444.123565,-10342.289223
960.552339,592.164754,1702.473667,-10648.727422
960.552659,2664.741391,2294.638420,-10955.165621
960.552980,3552.988522,1184.329507,-11184.994271
960.553300,1480.411884,666.185348,-10725.336972
960.553620,1332.370696,74.020594,-10035.851024
960.553940,2368.659014,1702.473667,-11414.822920
960.554260,3034.844362,1850.514855,-11338.213370
960.554581,296.082377,518.144159,-10801.946522
960.554901,-1110.308913,-370.102971,-10342.289223
960.555221,-296.082377,-1702.473667,-9422.974625
960.555541,3627.009116,-1480.411884,-10725.336972
960.555861,2738.761985,-814.226536,-10112.460574
960.556182,666.185348,1036.288319,-9806.022374
960.556502,0.000000,2664.741391,-10189.070123
960.556822,1998.556043,3404.947333,-9269.755526
960.557142,1850.514855,3108.864956,-11108.384721
960.557462,-814.226536,0.000000,-9729.412825
960.557782,-2294.638420,-2738.761985,-8810.098227
960.558103,-1702.473667,-3627.009116,-8733.488677
960.558423,-4071.132681,-3404.947333,-8503.660028
960.558743,-2590.720797,-1850.514855,-8963.317327
960.559063,-2812.782580,740.205942,-9576.193725
960.559383,0.000000,1924.535449,-9729.412825
960.559704,1406.391290,3923.091493,-9959.241474
960.560024,3108.864956,2368.659014,-10878.556072
960.560344,888.247130,222.061783,-10035.851024
960.560664,0.000000,-1110.308913,-9806.022374
960.560984,0.000000,-1998.556043,-10418.898773
960.561305,-814.226536,-1480.411884,-10495.508323
960.561625,-1406.391290,1258.350101,-11031.775171
960.561945,-3034.844362,3552.988522,-11491.432470
960.562265,0.000000,3849.070898,-10342.289223
960.562585,1406.391290,4811.338623,-12027.699319
960.562906,148.041188,2220.617826,-10648.727422
960.563226,-1776.494261,1406.391290,-10648.727422
960.563546,-814.226536,-666.185348,-10648.727422
960.563866,1776.494261,-1480.411884,-9806.022374
960.564186,2294.638420,-1406.391290,-10418.898773
960.564506,1628.453072,-1110.308913,-9116.536426
960.564827,592.164754,-370.102971,-9806.022374
960.565147,1776.494261,1998.556043,-10572.117872
960.565467,1998.556043,1850.514855,-9806.022374
960.565787,3108.864956,3256.906145,-9882.631924
960.566107,1036.288319,1776.494261,-9039.926876
960.566428,592.164754,-740.205942,-8733.488677
960.566748,1480.411884,-2590.720797,-8580.269578
960.567068,1776.494261,-3182.885551,-9116.536426
960.567388,2516.700203,-2368.659014,-9039.926876
960.567708,2294.638420,-814.226536,-9806.022374
960.568029,1406.391290,148.041188,-9039.926876
960.568349,2220.617826,888.247130,-9576.193725
960.568669,2812.782580,1184.329507,-9576.193725
960.568989,2590.720797,1628.453072,-10342.289223
960.569309,962.267725,0.000000,-11644.651570
960.569630,888.247130,-444.123565,-9806.022374
960.569950,296.082377,-814.226536,-10112.460574
960.570270,74.020594,0.000000,-10342.289223
960.570590,-296.082377,592.164754,-10878.556072
960.570910,-1184.329507,74.020594,-10725.336972
960.571230,-740.205942,370.102971,-10955.165621
960.571551,962.267725,444.123565,-10801.946522
960.571871,1628.453072,1776.494261,-11568.042020
960.572191,1850.514855,1628.453072,-10725.336972
960.572511,1110.308913,962.267725,-10648.727422
960.572831,74.020594,888.247130,-11338.213370
960.573152,-370.102971,1850.514855,-10878.556072
960.573472,-2590.720797,1702.473667,-10725.336972
960.573792,-2146.597232,2146.597232,-10342.289223
960.574112,-592.164754,1110.308913,-10418.898773
960.574432,592.164754,-222.061783,-10418.898773
960.574753,962.267725,-888.247130,-9882.631924
960.575073,222.061783,-1628.453072,-10189.070123
960.575393,-962.267725,-1110.308913,-9422.974625
960.575713,-962.267725,-666.185348,-9422.974625
960.576033,-592.164754,518.144159,-9269.755526
960.576354,148.041188,74.020594,-8656.879127
960.576674,1998.556043,148.041188,-9729.412825
960.576994,740.205942,-518.144159,-9193.145976
960.577314,-592.164754,-814.226536,-9269.755526
960.577634,-1110.308913,-592.164754,-9422.974625
960.577954,962.267725,-888.247130,-9116.536426
960.578275,1480.411884,-148.041188,-9652.803275
960.578595,1776.494261,-518.144159,-9576.193725
960.578915,-444.123565,-592.164754,-9576.193725
960.579235,-740.205942,-888.247130,-9806.022374
960.579555,370.102971,-296.082377,-9422.974625
960.579876,1554.432478,74.020594,-10801.946522
960.580196,3923.091493,1332.370696,-10342.289223
960.580516,2590.720797,1332.370696,-11184.994271
960.580836,2294.638420,1110.308913,-10725.336972
960.581156,666.185348,888.247130,-10725.336972
960.581477,1332.370696,444.123565,-11338.213370
960.581797,74.020594,740.205942,-10572.117872
960.582117,814.226536,-1110.308913,-10418.898773
960.582437,1702.473667,-888.247130,-10572.117872
960.582757,1110.308913,-518.144159,-11338.213370
960.583078,-370.102971,222.061783,-11108.384721
960.583398,-1332.370696,1554.432478,-10725.336972
960.583718,1036.288319,3404.947333,-10572.117872
960.584038,740.205942,3627.009116,-11108.384721
960.584358,-518.144159,1184.329507,-10342.289223
960.584679,-888.247130,-2146.597232,-10112.460574
960.584999,296.082377,-2516.700203,-9269.755526
960.585319,148.041188,-444.123565,-9576.193725
960.585639,-1924.535449,1332.370696,-9959.241474
960.585959,-2738.761985,1924.535449,-9652.803275
960.586279,-518.144159,1776.494261,-9499.584175
960.586600,1850.514855,962.267725,-9652.803275
960.586920,1998.556043,222.061783,-9959.241474
960.587240,74.020594,-962.267725,-9346.365076
960.587560,-518.144159,0.000000,-9806.022374
960.587880,1998.556043,444.123565,-9269.755526
960.588201,3478.967927,740.205942,-9422.974625
960.588521,1850.514855,-370.102971,-10265.679673
960.588841,-1924.535449,-1110.308913,-9806.022374
960.589161,-2368.659014,-222.061783,-10189.070123
960.589481,-1924.535449,1480.411884,-10342.289223
960.589802,296.082377,1850.514855,-10725.336972
960.590122,814.226536,2368.659014,-11108.384721
960.590442,0.000000,962.267725,-10265.679673
960.590762,592.164754,1480.411884,-11874.480219
960.591082,2072.576638,2886.803174,-11031.775171
960.591402,3330.926739,3923.091493,-11261.603821
960.591723,2442.679609,4589.276840,-10648.727422
960.592043,2738.761985,2664.741391,-11261.603821
960.592363,2886.803174,2812.782580,-10878.556072
960.592683,2812.782580,2886.803174,-10725.336972
960.593003,1628.453072,1258.350101,-9806.022374
960.593323,-148.041188,-962.267725,-10189.070123
960.593644,3330.926739,-2516.700203,-8963.317327
960.593964,2886.803174,-4071.132681,-9039.926876
960.594284,666.185348,-1850.514855,-9346.365076
960.594604,-1184.329507,1554.432478,-9116.536426
960.594924,74.020594,3997.112087,-8197.221829
960.595245,2886.803174,4811.338623,-9806.022374
960.595565,4441.235652,2738.761985,-9959.241474
960.595885,518.144159,-1184.329507,-9346.365076
960.596205,-1480.411884,-4145.153275,-9346.365076
960.596525,296.082377,-5033.400406,-8273.831378
960.596845,1036.288319,-3478.967927,-9729.412825
960.597166,-666.185348,-1110.308913,-9652.803275
960.597486,-2294.638420,296.082377,-9422.974625
960.597806,-592.164754,1850.514855,-9882.631924
960.598126,2442.679609,2886.803174,-10112.460574
960.598446,3478.967927,1850.514855,-12027.699319
960.598766,2220.617826,518.144159,-10342.289223
960.599087,-1110.308913,-148.041188,-10572.117872
960.599407,-2072.576638,592.164754,-10418.898773
960.599727,-2516.700203,592.164754,-10725.336972
960.600047,-3775.050304,666.185348,-11108.384721
960.600367,-6143.709319,-666.185348,-9882.631924
960.600688,-3701.029710,-592.164754,-10955.165621
960.601008,-1332.370696,-1258.350101,-10572.117872
960.601328,1036.288319,-1554.432478,-11031.775171
960.601648,148.041188,-1406.391290,-10265.679673
960.601968,-666.185348,-1184.329507,-11031.775171
960.602288,1332.370696,-888.247130,-10725.336972
960.602609,2886.803174,1406.391290,-11261.603821
960.602929,74.020594,3330.926739,-10801.946522
960.603249,-1480.411884,4737.318029,-10725.336972
960.603569,1036.288319,3182.885551,-11184.994271
960.603889,2590.720797,1628.453072,-10495.508323
960.604209,3627.009116,-2960.823768,-9882.631924
960.604530,1628.453072,-7031.956449,-8886.707777
960.604850,-296.082377,-6439.791695,-8273.831378
960.605170,-2812.782580,-3256.906145,-8656.879127
960.605490,-3182.885551,0.000000,-8810.098227
960.605810,-1332.370696,1036.288319,-9576.193725
960.606130,0.000000,962.267725,-9499.584175
960.606451,888.247130,-592.164754,-9193.145976
960.606771,4219.173869,-1480.411884,-9269.755526
960.607091,5773.606348,-1480.411884,-10035.851024
960.607411,5033.400406,-518.144159,-9959.241474
960.607731,1110.308913,-370.102971,-9576.193725
960.608052,-888.247130,1036.288319,-9729.412825
960.608372,-666.185348,444.123565,-9806.022374
960.608692,1480.411884,148.041188,-10189.070123
960.609012,370.102971,-296.082377,-10572.117872
960.609332,-740.205942,-740.205942,-11184.994271
960.609652,2664.741391,-1110.308913,-9882.631924
960.609973,4293.194464,-888.247130,-11184.994271
960.610293,2812.782580,1110.308913,-10418.898773
960.610613,-1776.494261,2886.803174,-10265.679673
960.610933,-2368.659014,4219.173869,-11338.213370
960.611253,-1036.288319,2442.679609,-11184.994271
960.611573,296.082377,814.226536,-11031.775171
960.611894,148.041188,-1110.308913,-10801.946522
960.612214,888.247130,-1776.494261,-10955.165621
960.612534,1702.473667,74.020594,-11261.603821
960.612854,2220.617826,1554.432478,-10418.898773
960.613174,518.144159,2886.803174,-10342.289223
960.613495,-740.205942,2146.597232,-10035.851024
960.613815,-1036.288319,1776.494261,-10035.851024
960.614135,-666.185348,296.082377,-9576.193725
960.614455,-1258.350101,-1258.350101,-9116.536426
960.614775,74.020594,-1184.329507,-9576.193725
960.615095,2812.782580,814.226536,-9193.145976
960.615416,1850.514855,1776.494261,-9269.755526
960.615736,518.144159,2368.659014,-9499.584175
960.616056,-518.144159,2220.617826,-9422.974625
960.616376,-1776.494261,592.164754,-9422.974625
960.616696,-1184.329507,370.102971,-9346.365076
960.617016,-296.082377,74.020594,-9346.365076
960.617337,0.000000,-296.082377,-9269.755526
960.617657,370.102971,74.020594,-9422.974625
960.617977,1406.391290,1332.370696,-9576.193725
960.618297,888.247130,2960.823768,-10572.117872
960.618617,2072.576638,3034.844362,-10495.508323
960.618938,1184.329507,2812.782580,-10725.336972
960.619258,1480.411884,1924.535449,-10342.289223
960.619578,2590.720797,2516.700203,-9806.022374
960.619898,1998.556043,1332.370696,-10878.556072
960.620218,1480.411884,296.082377,-10265.679673
960.620538,-444.123565,-1036.288319,-10572.117872
960.620859,2072.576638,-1850.514855,-10265.679673
960.621179,962.267725,-444.123565,-10189.070123
960.621499,-148.041188,2664.741391,-10725.336972
960.621819,-1258.350101,5921.647536,-10955.165621
960.622139,-370.102971,4885.359217,-11031.775171
960.622459,2516.700203,2664.741391,-10189.070123
960.622780,1628.453072,1036.288319,-10342.289223
960.623100,1184.329507,-2590.720797,-9806.022374
960.623420,2960.823768,-3701.029710,-9652.803275
960.623740,1998.556043,-1406.391290,-10265.679673
960.624060,2072.576638,2072.576638,-10189.070123
960.624380,1184.329507,2590.720797,-10725.336972
960.624701,962.267725,2368.659014,-9806.022374
960.625021,-370.102971,0.000000,-10112.460574
960.625341,-1036.288319,-1628.453072,-9346.365076
960.625661,-518.144159,-2072.576638,-9652.803275
960.625981,0.000000,-2516.700203,-9576.193725
960.626302,-370.102971,-3849.070898,-8197.221829
960.626622,1184.329507,-3478.967927,-9116.536426
960.626942,370.102971,-1480.411884,-9806.022374
960.627262,-2072.576638,1480.411884,-10265.679673
960.627582,-1184.329507,3108.864956,-10418.898773
960.627902,1110.308913,3108.864956,-9959.241474
960.628223,1776.494261,1628.453072,-10572.117872
960.628543,-444.123565,-888.247130,-10495.508323
960.628863,-2664.741391,-1776.494261,-9729.412825
960.629183,-3552.988522,-2368.659014,-10418.898773
960.629503,-74.020594,-1406.391290,-9806.022374
960.629823,1998.556043,-1480.411884,-10418.898773
960.630144,1036.288319,-888.247130,-9269.755526
960.630464,-222.061783,444.123565,-9806.022374
960.630784,-814.226536,1554.432478,-10265.679673
960.631104,296.082377,444.123565,-10342.289223
960.631424,1332.370696,74.020594,-11031.775171
960.631745,2072.576638,518.144159,-9806.022374
960.632065,-592.164754,-518.144159,-10189.070123
960.632385,-1480.411884,-296.082377,-10648.727422
960.632705,-814.226536,-1036.288319,-10112.460574
960.633025,296.082377,-2368.659014,-10035.851024
960.633345,-962.267725,-1036.288319,-9422.974625
960.633666,222.061783,-814.226536,-10189.070123
960.633986,2664.741391,-814.226536,-9806.022374
960.634306,2664.741391,0.000000,-10801.946522
960.634626,1924.535449,962.267725,-10265.679673
960.634946,962.267725,1850.514855,-9882.631924
960.635266,2368.659014,2220.617826,-10112.460574
960.635587,2516.700203,1628.453072,-10725.336972
960.635907,2368.659014,222.061783,-9652.803275
960.636227,1184.329507,-666.185348,-10418.898773
960.636547,592.164754,-2072.576638,-9806.022374
960.636867,0.000000,-2886.803174,-9729.412825
960.637187,-148.041188,-1776.494261,-9806.022374
960.637508,740.205942,1406.391290,-9576.193725
960.637828,1110.308913,3404.947333,-11491.432470
960.638148,2812.782580,3701.029710,-10035.851024
960.638468,3849.070898,2812.782580,-11031.775171
960.638788,3404.947333,518.144159,-10418.898773
960.639109,2072.576638,740.205942,-9576.193725
960.639429,-1406.391290,222.061783,-9882.631924
960.639749,-1776.494261,1184.329507,-9652.803275
960.640069,-1406.391290,222.061783,-10342.289223
960.640389,-2516.700203,0.000000,-9346.365076
960.640709,444.123565,-1110.308913,-9806.022374
960.641030,148.041188,-2146.597232,-9652.803275
960.641350,666.185348,-888.247130,-10112.460574
960.641670,1036.288319,2146.597232,-10648.727422
960.641990,518.144159,4885.359217,-11184.994271
960.642310,0.000000,4811.338623,-10418.898773
960.642630,-2368.659014,3627.009116,-10342.289223
960.642951,-2664.741391,1554.432478,-9499.584175
960.643271,-1850.514855,-666.185348,-9652.803275
960.643591,-444.123565,-1110.308913,-9959.241474
960.643911,222.061783,-888.247130,-10035.851024
960.644231,-1924.535449,-296.082377,-9959.241474
960.644552,-3552.988522,74.020594,-8733.488677
960.644872,-2442.679609,814.226536,-9652.803275
960.645192,592.164754,2738.761985,-10495.508323
960.645512,2220.617826,2368.659014,-10112.460574
960.645832,1924.535449,1628.453072,-10418.898773
960.646152,1480.411884,74.020594,-9882.631924
960.646473,-370.102971,1036.288319,-10035.851024
960.646793,-296.082377,0.000000,-9806.022374
960.647113,-666.185348,222.061783,-9882.631924
960.647433,740.205942,-148.041188,-10035.851024
960.647753,444.123565,-1258.350101,-9806.022374
960.648073,740.205942,-962.267725,-10265.679673
960.648394,-296.082377,-222.061783,-9806.022374
960.648714,0.000000,74.020594,-10035.851024
960.649034,1776.494261,1258.350101,-9806.022374
960.649354,3256.906145,1554.432478,-11491.432470
960.649674,3627.009116,518.144159,-11108.384721
960.649994,3627.009116,-1258.350101,-10189.070123
960.650315,2590.720797,0.000000,-10112.460574
960.650635,2368.659014,888.247130,-9039.926876
960.650955,888.247130,1998.556043,-10035.851024
960.651275,444.123565,1998.556043,-10801.946522
960.651595,3108.864956,-814.226536,-9806.022374
960.651916,3923.091493,-3701.029710,-9882.631924
960.652236,2516.700203,-2220.617826,-9499.584175
960.652556,1184.329507,-740.205942,-10418.898773
960.652876,-444.123565,1998.556043,-9729.412825
960.653196,1998.556043,3330.926739,-11031.775171
960.653516,4145.153275,2590.720797,-10112.460574
960.653837,4663.297435,-518.144159,-10112.460574
960.654157,3108.864956,-296.082377,-10418.898773
960.654477,0.000000,-1332.370696,-9806.022374
960.654797,-2072.576638,-740.205942,-10265.679673
960.655117,-1184.329507,-1258.350101,-11338.213370
960.655437,-222.061783,148.041188,-9652.803275
960.655758,-814.226536,-1184.329507,-10418.898773
960.656078,-1184.329507,-148.041188,-10189.070123
960.656398,-1850.514855,-296.082377,-10265.679673
960.656718,-1480.411884,666.185348,-10112.460574
960.657038,444.123565,1998.556043,-10418.898773
960.657359,0.000000,2442.679609,-10342.289223
960.657679,592.164754,1628.453072,-10495.508323
960.657999,0.000000,-444.123565,-9806.022374
960.658319,0.000000,-1924.535449,-10189.070123
960.658639,-2812.782580,-2368.659014,-9576.193725
960.658959,-4219.173869,-2146.597232,-9116.536426
960.659280,-3775.050304,222.061783,-9806.022374
960.659600,-1110.308913,518.144159,-9806.022374
960.659920,1332.370696,518.144159,-10418.898773
960.660240,592.164754,-148.041188,-9882.631924
960.660560,-2812.782580,0.000000,-9806.022374
960.660880,-2368.659014,1776.494261,-9652.803275
960.661201,-1110.308913,1554.432478,-10112.460574
960.661521,962.267725,1332.370696,-10495.508323
960.661841,666.185348,-444.123565,-9652.803275
960.662161,370.102971,-2960.823768,-9729.412825
960.662481,1998.556043,-2516.700203,-9652.803275
960.662801,148.041188,-666.185348,-10725.336972
960.663122,814.226536,1110.308913,-10418.898773
960.663442,444.123565,2664.741391,-8886.707777
960.663762,-740.205942,2368.659014,-9729.412825
960.664082,1406.391290,2886.803174,-10725.336972
960.664402,2812.782580,1406.391290,-11108.384721
960.664723,2368.659014,-444.123565,-9806.022374
960.665043,2516.700203,-962.267725,-10112.460574
960.665363,3034.844362,-888.247130,-9882.631924
960.665683,2738.761985,-2072.576638,-9806.022374
960.666003,3108.864956,0.000000,-10112.460574
960.666323,1628.453072,2368.659014,-10648.727422
960.666644,2146.597232,1924.535449,-9422.974625
960.666964,3552.988522,2072.576638,-11261.603821
960.667284,3627.009116,1998.556043,-10648.727422
960.667604,2886.803174,888.247130,-11414.822920
960.667924,2886.803174,1184.329507,-10955.165621
960.668244,148.041188,592.164754,-9499.584175
960.668565,0.000000,-1332.370696,-9269.755526
960.668885,2368.659014,-2146.597232,-9806.022374
960.669205,3034.844362,-2960.823768,-9422.974625
960.669525,-222.061783,-1184.329507,-9729.412825
960.669845,-1554.432478,814.226536,-9806.022374
960.670166,-1258.350101,2664.741391,-9806.022374
960.670486,-592.164754,2886.803174,-10112.460574
960.670806,740.205942,592.164754,-9806.022374
960.671126,1628.453072,1258.350101,-10342.289223
960.671446,-1110.308913,296.082377,-10418.898773
960.671766,-2590.720797,74.020594,-9806.022374
960.672087,-4145.153275,296.082377,-10265.679673
960.672407,-3256.906145,370.102971,-9729.412825
960.672727,-2220.617826,0.000000,-9269.755526
960.673047,-1702.473667,0.000000,-10035.851024
960.673367,-74.020594,148.041188,-9959.241474
960.673687,1628.453072,666.185348,-10495.508323
960.674008,4145.153275,2590.720797,-10572.117872
960.674328,3182.885551,2442.679609,-10648.727422
960.674648,74.020594,296.082377,-10265.679673
960.674968,-1850.514855,-962.267725,-9652.803275
960.675288,-3552.988522,-592.164754,-10189.070123
960.675608,-2886.803174,-444.123565,-9806.022374
960.675929,148.041188,296.082377,-10648.727422
960.676249,1110.308913,1110.308913,-10955.165621
960.676569,148.041188,-444.123565,-10035.851024
960.676889,2146.597232,-592.164754,-10495.508323
960.677209,2590.720797,1036.288319,-10801.946522
960.677530,-222.061783,1702.473667,-10801.946522
960.677850,-2368.659014,1036.288319,-10955.165621
960.678170,-518.144159,592.164754,-10265.679673
960.678490,2368.659014,-222.061783,-10878.556072
960.678810,3034.844362,0.000000,-10495.508323
960.679130,1184.329507,1554.432478,-10189.070123
960.679451,296.082377,2294.638420,-10418.898773
960.679771,2368.659014,2072.576638,-10035.851024
960.680091,2368.659014,444.123565,-9959.241474
960.680411,222.061783,-1776.494261,-9729.412825
960.680731,814.226536,-1258.350101,-8733.488677
960.681051,814.226536,-962.267725,-9729.412825
960.681372,3849.070898,-444.123565,-10112.460574
960.681692,3701.029710,296.082377,-9576.193725
960.682012,814.226536,-296.082377,-8963.317327
960.682332,222.061783,666.185348,-8810.098227
960.682652,1110.308913,74.020594,-9652.803275
960.682973,1110.308913,444.123565,-9882.631924
960.683293,-666.185348,592.164754,-9422.974625
960.683613,-1924.535449,-370.102971,-10035.851024
960.683933,1110.308913,-2368.659014,-9499.584175
960.684253,2664.741391,-2664.741391,-9882.631924
960.684573,2368.659014,296.082377,-10801.946522
960.684894,-222.061783,2220.617826,-9882.631924
960.685214,-444.123565,3775.050304,-10418.898773
960.685534,2220.617826,2664.741391,-10878.556072
960.685854,888.247130,370.102971,-10112.460574
960.686174,-1554.432478,-1258.350101,-10189.070123
960.686494,-1258.350101,-1924.535449,-10495.508323
960.686815,148.041188,-1776.494261,-9959.241474
960.687135,0.000000,-666.185348,-10725.336972
960.687455,-296.082377,2812.782580,-10418.898773
960.687775,-1702.473667,4219.173869,-10572.117872
960.688095,518.144159,4367.215058,-10801.946522
960.688415,74.020594,2442.679609,-11031.775171
960.688736,370.102971,-444.123565,-9652.803275
960.689056,0.000000,-2368.659014,-9499.584175
960.689376,444.123565,-2664.741391,-8963.317327
960.689696,2664.741391,-2368.659014,-9806.022374
960.690016,1480.411884,-148.041188,-10495.508323
960.690336,222.061783,1110.308913,-9806.022374
960.690656,-814.226536,3923.091493,-9806.022374
960.690976,-1702.473667,3923.091493,-10112.460574
960.691296,-2072.576638,1332.370696,-9806.022374
960.691617,222.061783,-2368.659014,-9422.974625
960.691937,74.020594,-3478.967927,-9422.974625
960.692257,1628.453072,-3997.112087,-9576.193725
960.692577,1850.514855,-1406.391290,-9729.412825
960.692897,74.020594,1406.391290,-9806.022374
960.693217,74.020594,2590.720797,-9806.022374
960.693537,1036.288319,3404.947333,-10418.898773
960.693857,2368.659014,1702.473667,-10189.070123
960.694177,2738.761985,-1554.432478,-10265.679673
960.694497,1184.329507,-2368.659014,-10112.460574
960.694817,518.144159,-1184.329507,-10725.336972
960.695137,666.185348,-1110.308913,-10035.851024
960.695457,2220.617826,222.061783,-9729.412825
960.695778,518.144159,1332.370696,-9959.241474
960.696098,-222.061783,1924.535449,-11261.603821
960.696418,-1998.556043,1184.329507,-10648.727422
960.696738,-148.041188,370.102971,-10189.070123
960.697058,888.247130,-222.061783,-10418.898773
960.697378,74.020594,-444.123565,-10342.289223
960.697698,814.226536,148.041188,-10801.946522
960.698018,2590.720797,592.164754,-10418.898773
960.698338,1184.329507,1332.370696,-10801.946522
960.698658,1702.473667,370.102971,-9959.241474
960.698978,888.247130,222.061783,-10342.289223
960.699298,-1554.432478,1554.432478,-10418.898773
960.699618,-1850.514855,1406.391290,-10035.851024
960.699938,0.000000,1924.535449,-10418.898773
960.700259,888.247130,740.205942,-10112.460574
960.700579,2146.597232,-148.041188,-10342.289223
960.700899,2442.679609,-1850.514855,-9422.974625
960.701219,3034.844362,-2516.700203,-9882.631924
960.701539,2812.782580,-592.164754,-9652.803275
960.701859,-444.123565,1776.494261,-8350.440928
960.702179,-1776.494261,3034.844362,-9882.631924
960.702499,-3108.864956,1850.514855,-8963.317327
960.702819,-1554.432478,444.123565,-9576.193725
960.703139,0.000000,0.000000,-9959.241474
960.703459,962.267725,-2368.659014,-9422.974625
960.703779,1850.514855,-2368.659014,-9729.412825
960.704099,2072.576638,-1850.514855,-9959.241474
960.704420,3182.885551,370.102971,-10189.070123
960.704740,962.267725,2072.576638,-11031.775171
960.705060,-296.082377,2368.659014,-10572.117872
960.705380,1036.288319,2072.576638,-10495.508323
960.705700,2220.617826,1702.473667,-10955.165621
960.706020,1628.453072,2072.576638,-10955.165621
960.706340,0.000000,1036.288319,-12027.699319
960.706660,-1258.350101,-666.185348,-10495.508323
960.706980,-1332.370696,-1554.432478,-11031.775171
960.707300,0.000000,-444.123565,-10495.508323
960.707620,1332.370696,0.000000,-10418.898773
960.707940,-296.082377,2960.823768,-10189.070123
960.708260,-1036.288319,3627.009116,-11414.822920
960.708580,0.000000,3478.967927,-10572.117872
960.708901,-296.082377,2368.659014,-10112.460574
960.709221,888.247130,296.082377,-10648.727422
960.709541,444.123565,-444.123565,-9269.755526
960.709861,962.267725,-1036.288319,-9806.022374
960.710181,3552.988522,-2072.576638,-9422.974625
960.710501,1850.514855,-2664.741391,-9116.536426
960.710821,-1702.473667,-962.267725,-8580.269578
960.711141,-2220.617826,592.164754,-9422.974625
960.711461,-1184.329507,814.226536,-9116.536426
960.711781,2146.597232,666.185348,-9882.631924
960.712101,1332.370696,666.185348,-9576.193725
960.712421,740.205942,-518.144159,-9959.241474
960.712741,1628.453072,-2516.700203,-9576.193725
960.713062,-592.164754,-3627.009116,-8886.707777
960.713382,-2072.576638,-2368.659014,-9346.365076
960.713702,-3627.009116,370.102971,-9499.584175
960.714022,-2664.741391,888.247130,-10112.460574
960.714342,0.000000,2738.761985,-10572.117872
960.714662,592.164754,740.205942,-10265.679673
960.714982,1850.514855,-1628.453072,-10035.851024
960.715302,2146.597232,-2368.659014,-9959.241474
960.715622,2220.617826,-2664.741391,-10648.727422
960.715942,1702.473667,-1110.308913,-10801.946522
960.716262,-1332.370696,2294.638420,-11031.775171
960.716582,1110.308913,3034.844362,-11031.775171
960.716902,518.144159,4441.235652,-11491.432470
960.717222,-518.144159,4071.132681,-10878.556072
960.717543,518.144159,2368.659014,-11414.822920
960.717863,1036.288319,0.000000,-10035.851024
960.718183,1776.494261,-1406.391290,-10572.117872
960.718503,1924.535449,-3478.967927,-10112.460574
960.718823,1184.329507,-2664.741391,-9959.241474
960.719143,74.020594,74.020594,-9882.631924
960.719463,1332.370696,4515.256246,-9959.241474
960.719783,1702.473667,6735.874072,-10801.946522
960.720103,2738.761985,3775.050304,-9652.803275
960.720423,2738.761985,1036.288319,-8886.707777
960.720743,3256.906145,-4959.379811,-8886.707777
960.721063,3923.091493,-5477.523971,-8503.660028
960.721383,3034.844362,-3552.988522,-9882.631924
960.721704,814.226536,74.020594,-8580.269578
960.722024,-2146.597232,3627.009116,-9882.631924
960.722344,0.000000,4589.276840,-9346.365076
960.722664,1184.329507,3404.947333,-9499.584175
960.722984,-222.061783,74.020594,-9806.022374
960.723304,74.020594,-1554.432478,-9193.145976
960.723624,3034.844362,-2590.720797,-9882.631924
960.723944,5403.503377,-1110.308913,-10418.898773
960.724264,3478.967927,-666.185348,-10112.460574
960.724584,-814.226536,1406.391290,-10342.289223
960.724904,-1776.494261,4071.132681,-9959.241474
960.725224,-4293.194464,3478.967927,-10495.508323
960.725544,-2368.659014,1036.288319,-9806.022374
960.725864,-444.123565,-1628.453072,-10725.336972
960.726185,-1406.391290,-4071.132681,-10035.851024
960.726505,0.000000,-3034.844362,-10418.898773
960.726825,1924.535449,740.205942,-11184.994271
960.727145,814.226536,2960.823768,-10878.556072
960.727465,-1850.514855,3108.864956,-11031.775171
960.727785,-3997.112087,2220.617826,-9959.241474
960.728105,-3849.070898,1406.391290,-10342.289223
960.728425,-1554.432478,-1332.370696,-9806.022374
960.728745,-592.164754,-1776.494261,-9959.241474
960.729065,-814.226536,-2590.720797,-9652.803275
960.729385,-518.144159,296.082377,-11184.994271
960.729705,-1480.411884,-814.226536,-8886.707777
960.730025,1184.329507,-666.185348,-10342.289223
960.730346,-592.164754,1036.288319,-9422.974625
960.730666,-2664.741391,1036.288319,-9806.022374
960.730986,-444.123565,1998.556043,-9959.241474
960.731306,370.102971,2812.782580,-9652.803275
960.731626,1628.453072,1258.350101,-9806.022374
960.731946,2368.659014,-1258.350101,-10035.851024
960.732266,1924.535449,-2738.761985,-9652.803275
960.732586,1332.370696,-2590.720797,-9882.631924
960.732906,1998.556043,-1702.473667,-9422.974625
960.733226,0.000000,1258.350101,-9652.803275
960.733546,370.102971,1480.411884,-10035.851024
960.733866,2146.597232,1850.514855,-10189.070123
960.734186,3478.967927,-296.082377,-10189.070123
960.734506,4293.194464,-1184.329507,-10878.556072
960.734827,2960.823768,-1554.432478,-9806.022374
960.735147,3552.988522,-222.061783,-10648.727422
960.735467,2442.679609,1184.329507,-10648.727422
960.735787,2368.659014,2960.823768,-11261.603821
960.736107,-444.123565,3478.967927,-9422.974625
960.736427,-1628.453072,2516.700203,-10572.117872
960.736747,1406.391290,-222.061783,-10418.898773
960.737067,5107.421000,-2442.679609,-10418.898773
960.737387,3478.967927,-1554.432478,-10112.460574
960.737707,2368.659014,666.185348,-9806.022374
960.738027,1406.391290,3182.885551,-10342.289223
960.738347,3404.947333,3552.988522,-10725.336972
960.738667,3404.947333,1998.556043,-10495.508323
960.738988,1258.350101,0.000000,-8810.098227
960.739308,-518.144159,-814.226536,-9576.193725
960.739628,2072.576638,-2220.617826,-9499.584175
960.739948,3034.844362,-1036.288319,-9959.241474
960.740268,-370.102971,-740.205942,-10035.851024
960.740588,-4441.235652,0.000000,-9422.974625
960.740908,-3701.029710,666.185348,-9193.145976
960.741228,-1554.432478,592.164754,-10035.851024
960.741548,-1480.411884,-666.185348,-9576.193725
960.741868,-740.205942,-2220.617826,-9193.145976
960.742188,1850.514855,370.102971,-10418.898773
960.742508,1998.556043,148.041188,-9652.803275
960.742828,2146.597232,1184.329507,-11031.775171
960.743148,-592.164754,148.041188,-9806.022374
960.743469,-2442.679609,370.102971,-10035.851024
960.743789,-3849.070898,1036.288319,-9652.803275
960.744109,-2442.679609,1406.391290,-10725.336972
960.744429,-2294.638420,2072.576638,-10418.898773
960.744749,-1998.556043,1258.350101,-10418.898773
960.745069,-1554.432478,0.000000,-10418.898773
960.745389,-444.123565,-1110.308913,-10189.070123
960.745709,0.000000,518.144159,-10648.727422
960.746029,-1480.411884,814.226536,-10342.289223
960.746349,-1110.308913,2368.659014,-9729.412825
960.746669,518.144159,2294.638420,-10495.508323
960.746989,1480.411884,1776.494261,-10648.727422
960.747309,1110.308913,-74.020594,-10342.289223
960.747630,-1184.329507,-444.123565,-10189.070123
960.747950,-1480.411884,-444.123565,-9116.536426
960.748270,3330.926739,444.123565,-10189.070123
960.748590,2960.823768,0.000000,-9652.803275
960.748910,2812.782580,-1036.288319,-8273.831378
960.749230,-148.041188,148.041188,-9882.631924
960.749550,-444.123565,518.144159,-10189.070123
960.749870,1850.514855,1776.494261,-9499.584175
960.750190,3478.967927,2368.659014,-9193.145976
960.750510,4145.153275,2294.638420,-10035.851024
960.750830,5033.400406,444.123565,-10112.460574
960.751150,4219.173869,-888.247130,-9806.022374
960.751470,1036.288319,-3478.967927,-9422.974625
960.751790,592.164754,-2368.659014,-9193.145976
960.752111,518.144159,-814.226536,-9576.193725
960.752431,2664.741391,-296.082377,-10035.851024
960.752751,4145.153275,296.082377,-10035.851024
960.753071,3849.070898,962.267725,-10572.117872
960.753391,2368.659014,1924.535449,-10342.289223
960.753711,1554.432478,2516.700203,-10418.898773
960.754031,962.267725,3330.926739,-11031.775171
960.754351,666.185348,2368.659014,-10801.946522
960.754671,-740.205942,0.000000,-10189.070123
960.754991,-296.082377,-3034.844362,-10495.508323
960.755311,-518.144159,-2812.782580,-9576.193725
960.755631,-518.144159,0.000000,-10955.165621
960.755951,-148.041188,1998.556043,-10418.898773
960.756272,-1110.308913,3256.906145,-10418.898773
960.756592,-2146.597232,1850.514855,-10418.898773
960.756912,-1924.535449,-222.061783,-10418.898773
960.757232,-1702.473667,-2516.700203,-9959.241474
960.757552,-1702.473667,-2146.597232,-10189.070123
960.757872,-1480.411884,-518.144159,-9576.193725
960.758192,-518.144159,444.123565,-10035.851024
960.758512,740.205942,740.205942,-10342.289223
960.758832,0.000000,592.164754,-9652.803275
960.759152,-2516.700203,1702.473667,-9576.193725
960.759472,-2886.803174,1258.350101,-9806.022374
960.759792,370.102971,-666.185348,-9576.193725
960.760112,1110.308913,-962.267725,-10112.460574
960.760432,-2146.597232,-2516.700203,-8580.269578
960.760753,-1554.432478,-1110.308913,-9422.974625
960.761073,-222.061783,1184.329507,-9269.755526
960.761393,-370.102971,2220.617826,-10418.898773
960.761713,296.082377,518.144159,-11338.213370
960.762033,296.082377,-1332.370696,-9576.193725
960.762353,-148.041188,296.082377,-9499.584175
960.762673,2368.659014,370.102971,-10035.851024
960.762993,3775.050304,0.000000,-10801.946522
960.763313,1628.453072,1776.494261,-10342.289223
960.763633,1554.432478,3701.029710,-11184.994271
960.763953,3775.050304,3108.864956,-10725.336972
960.764273,5625.565159,370.102971,-10572.117872
960.764593,3330.926739,-222.061783,-10189.070123
960.764914,-518.144159,-296.082377,-9576.193725
960.765234,-148.041188,740.205942,-10572.117872
960.765554,4737.318029,0.000000,-10035.851024
960.765874,4071.132681,1554.432478,-10342.289223
960.766194,1702.473667,1924.535449,-9806.022374
960.766514,3034.844362,2738.761985,-10035.851024
960.766834,3849.070898,0.000000,-10648.727422
960.767154,4737.318029,-370.102971,-9806.022374
960.767474,-148.041188,-2368.659014,-9499.584175
960.767794,-3775.050304,-2368.659014,-9346.365076
960.768114,-2442.679609,296.082377,-9499.584175
960.768434,0.000000,1406.391290,-10495.508323
960.768754,1406.391290,2368.659014,-9959.241474
960.769074,74.020594,518.144159,-9346.365076
960.769395,1702.473667,-148.041188,-9959.241474
960.769715,-740.205942,-1998.556043,-9499.584175
960.770035,-296.082377,-444.123565,-9499.584175
960.770355,-3108.864956,962.267725,-10572.117872
960.770675,222.061783,222.061783,-10418.898773
960.770995,518.144159,-814.226536,-10189.070123
960.771315,-1998.556043,-888.247130,-10265.679673
960.771635,-3627.009116,-370.102971,-9959.241474
960.771955,-3478.967927,518.144159,-9882.631924
960.772275,-1480.411884,1184.329507,-10189.070123
960.772595,666.185348,1036.288319,-10342.289223
960.772915,-666.185348,-370.102971,-10112.460574
960.773235,-2442.679609,-1924.535449,-9959.241474
960.773556,-2516.700203,-1184.329507,-9806.022374
960.773876,444.123565,74.020594,-10112.460574
960.774196,3108.864956,74.020594,-10572.117872
960.774516,1924.535449,1036.288319,-10418.898773
960.774836,370.102971,1258.350101,-10112.460574
960.775156,-2146.597232,1554.432478,-10189.070123
960.775476,-1480.411884,666.185348,-10495.508323
960.775796,-370.102971,0.000000,-10112.460574
960.776116,-370.102971,0.000000,-9806.022374
960.776436,-296.082377,-962.267725,-9729.412825
960.776756,740.205942,0.000000,-10189.070123
960.777076,1924.535449,1406.391290,-9806.022374
960.777396,2590.720797,1480.411884,-10418.898773
960.777716,3997.112087,962.267725,-10112.460574
960.778037,5181.441594,0.000000,-10572.117872
960.778357,2590.720797,-1036.288319,-10035.851024
960.778677,1628.453072,518.144159,-10265.679673
960.778997,592.164754,1776.494261,-10035.851024
960.779317,2664.741391,2220.617826,-10189.070123
960.779637,4737.318029,2738.761985,-10189.070123
960.779957,5033.400406,592.164754,-10418.898773
960.780277,2442.679609,-1924.535449,-9729.412825
960.780597,370.102971,-3701.029710,-9346.365076
960.780917,-592.164754,-1850.514855,-9116.536426
960.781237,740.205942,1406.391290,-9959.241474
960.781557,888.247130,2442.679609,-10725.336972
960.781877,518.144159,2442.679609,-10265.679673
960.782198,888.247130,1406.391290,-10878.556072
960.782518,2886.803174,888.247130,-10265.679673
960.782838,2220.617826,296.082377,-9806.022374
960.783158,74.020594,962.267725,-10878.556072
960.783478,-2664.741391,-296.082377,-9882.631924
960.783798,-2146.597232,296.082377,-9806.022374
960.784118,-888.247130,666.185348,-9422.974625
960.784438,-296.082377,1036.288319,-10572.117872
960.784758,-1406.391290,0.000000,-9806.022374
960.785078,148.041188,-740.205942,-10035.851024
960.785398,1924.535449,-962.267725,-9652.803275
960.785718,1554.432478,-148.041188,-10189.070123
960.786038,-518.144159,296.082377,-10035.851024
960.786358,-4071.132681,2146.597232,-10418.898773
960.786679,-3849.070898,2368.659014,-9652.803275
960.786999,-2294.638420,1110.308913,-10112.460574
960.787319,-1850.514855,-370.102971,-9576.193725
960.787639,-3404.947333,-2294.638420,-9729.412825
960.787959,-1850.514855,-1480.411884,-9193.145976
960.788279,1554.432478,370.102971,-9959.241474
960.788599,2368.659014,2368.659014,-10801.946522
960.788919,-222.061783,2072.576638,-9806.022374
960.789239,-814.226536,-222.061783,-10418.898773
960.789559,1628.453072,0.000000,-9499.584175
960.789879,4071.132681,148.041188,-10801.946522
960.790199,2664.741391,1554.432478,-10418.898773
960.790519,-1036.288319,1184.329507,-9806.022374
960.790840,0.000000,1628.453072,-10418.898773
960.791160,1998.556043,1036.288319,-10725.336972
960.791480,1924.535449,-296.082377,-10572.117872
960.791800,-296.082377,-962.267725,-9806.022374
960.792120,-814.226536,148.041188,-9576.193725
960.792440,814.226536,0.000000,-10035.851024
960.792759,2886.803174,1702.473667,-10725.336972
960.793079,1184.329507,2516.700203,-9806.022374
960.793399,444.123565,1554.432478,-10342.289223
960.793719,3627.009116,592.164754,-10878.556072
960.794039,4367.215058,-592.164754,-10418.898773
960.794359,3108.864956,444.123565,-10648.727422
960.794679,-814.226536,1850.514855,-9882.631924
960.794999,-148.041188,2294.638420,-9882.631924
960.795318,2738.761985,2220.617826,-10418.898773
960.795638,2368.659014,370.102971,-10725.336972
960.795958,148.041188,-296.082377,-11031.775171
960.796278,-518.144159,-2442.679609,-10035.851024
960.796598,2368.659014,-2146.597232,-8963.317327
960.796918,4145.153275,0.000000,-10418.898773
960.797238,2590.720797,1110.308913,-9959.241474
960.797558,-1332.370696,1332.370696,-9806.022374
960.797877,-2368.659014,666.185348,-9193.145976
960.798197,-1480.411884,-1480.411884,-9269.755526
960.798517,2146.597232,-2886.803174,-9422.974625
960.798837,0.000000,-5477.523971,-9806.022374
960.799157,-1332.370696,-4219.173869,-8044.002729
960.799477,-2368.659014,-740.205942,-9652.803275
960.799797,-814.226536,2368.659014,-10189.070123
960.800117,592.164754,4293.194464,-10342.289223
960.800437,-1554.432478,3478.967927,-11108.384721
960.800756,-1998.556043,0.000000,-9346.365076
960.801076,-1702.473667,-2590.720797,-10495.508323
960.801396,-1184.329507,-2072.576638,-9959.241474
960.801716,-1406.391290,0.000000,-10801.946522
960.802036,222.061783,1554.432478,-10495.508323
960.802356,2072.576638,962.267725,-9959.241474
960.802676,814.226536,-1480.411884,-10265.679673
960.802996,-444.123565,-3627.009116,-9806.022374
960.803315,-2072.576638,-2516.700203,-10189.070123
960.803635,1110.308913,962.267725,-10495.508323
960.803955,888.247130,518.144159,-10495.508323
960.804275,-888.247130,2738.761985,-10955.165621
960.804595,-1850.514855,1036.288319,-10035.851024
960.804915,-148.041188,-296.082377,-10112.460574
960.805235,1628.453072,1998.556043,-10495.508323
960.805555,740.205942,1406.391290,-11108.384721
960.805875,-1110.308913,1036.288319,-9806.022374
960.806194,-1110.308913,-888.247130,-9959.241474
960.806514,2590.720797,-1184.329507,-9269.755526
960.806834,4071.132681,-1776.494261,-9882.631924
960.807154,4145.153275,-740.205942,-9806.022374
960.807474,2590.720797,2146.597232,-11031.775171
960.807794,2368.659014,3330.926739,-10495.508323
960.808114,2664.741391,3775.050304,-9806.022374
960.808434,3182.885551,2664.741391,-10112.460574
960.808753,2368.659014,740.205942,-11644.651570
960.809073,0.000000,-740.205942,-10572.117872
960.809393,814.226536,-592.164754,-9806.022374
960.809713,2738.761985,-296.082377,-9959.241474
960.810033,3997.112087,962.267725,-10112.460574
960.810353,2072.576638,1036.288319,-10112.460574
960.810673,666.185348,148.041188,-9729.412825
960.810993,518.144159,296.082377,-9729.412825
960.811312,888.247130,962.267725,-10112.460574
960.811632,2220.617826,1258.350101,-9422.974625
960.811952,444.123565,222.061783,-10189.070123
960.812272,1036.288319,-1332.370696,-9806.022374
960.812592,2146.597232,-2368.659014,-9652.803275
960.812912,592.164754,-1480.411884,-10878.556072
960.813232,-4441.235652,518.144159,-9193.145976
960.813552,-6661.853478,3182.885551,-9576.193725
960.813872,-3404.947333,3701.029710,-10801.946522
960.814191,814.226536,1702.473667,-9882.631924
960.814511,148.041188,740.205942,-10112.460574
960.814831,-740.205942,-1184.329507,-9806.022374
960.815151,-1998.556043,-1184.329507,-9729.412825
960.815471,-1776.494261,444.123565,-10418.898773
960.815791,-2590.720797,1258.350101,-9806.022374
960.816111,-2072.576638,148.041188,-9422.974625
960.816431,-1036.288319,-2072.576638,-10035.851024
960.816750,518.144159,-1480.411884,-9499.584175
960.817070,0.000000,1850.514855,-10955.165621
960.817390,740.205942,4441.235652,-11951.089769
960.817710,-666.185348,3182.885551,-10878.556072
960.818030,-962.267725,-1110.308913,-9959.241474
960.818350,-222.061783,-3330.926739,-9882.631924
960.818670,0.000000,-3701.029710,-10418.898773
960.818990,1702.473667,-296.082377,-9422.974625
960.819310,888.247130,3552.988522,-11108.384721
960.819629,0.000000,4589.276840,-10265.679673
960.819949,1850.514855,2590.720797,-10801.946522
960.820269,1924.535449,-296.082377,-10112.460574
960.820589,370.102971,-3404.947333,-10189.070123
960.820909,1184.329507,-2368.659014,-9422.974625
960.821229,4515.256246,-814.226536,-10189.070123
960.821549,3775.050304,-370.102971,-10189.070123
960.821869,1702.473667,962.267725,-9422.974625
960.822188,370.102971,1110.308913,-10035.851024
960.822508,2294.638420,666.185348,-9959.241474
960.822828,5773.606348,0.000000,-10572.117872
960.823148,6809.894666,444.123565,-10112.460574
960.823468,3182.885551,370.102971,-9193.145976
960.823788,2368.659014,370.102971,-9806.022374
960.824108,2664.741391,-222.061783,-10035.851024
960.824428,3775.050304,0.000000,-10418.898773
960.824747,1036.288319,-518.144159,-10342.289223
960.825067,74.020594,-740.205942,-9882.631924
960.825387,0.000000,0.000000,-10189.070123
960.825707,1258.350101,444.123565,-10112.460574
960.826027,962.267725,2072.576638,-11951.089769
960.826347,-1628.453072,1258.350101,-11184.994271
960.826667,-592.164754,0.000000,-9806.022374
960.826987,-296.082377,-1998.556043,-10495.508323
960.827307,-296.082377,-1850.514855,-9882.631924
960.827626,-2072.576638,-1702.473667,-9806.022374
960.827946,-2146.597232,0.000000,-10265.679673
960.828266,0.000000,444.123565,-9959.241474
960.828586,1036.288319,-222.061783,-10648.727422
960.828906,1184.329507,222.061783,-10342.289223
960.829226,-1406.391290,296.082377,-9959.241474
960.829546,-1554.432478,2220.617826,-9576.193725
960.829866,222.061783,2368.659014,-11031.775171
960.830185,148.041188,1998.556043,-11414.822920
960.830505,-1628.453072,296.082377,-9959.241474
960.830825,-2516.700203,-2294.638420,-9729.412825
960.831145,-814.226536,-1184.329507,-9193.145976
960.831465,0.000000,0.000000,-9959.241474
960.831785,-592.164754,2294.638420,-9499.584175
960.832105,-3997.112087,1184.329507,-9806.022374
960.832425,-3256.906145,-296.082377,-9576.193725
960.832745,-1776.494261,-3034.844362,-9576.193725
960.833064,-1702.473667,-962.267725,-9346.365076
960.833384,-1850.514855,1184.329507,-9806.022374
960.833704,888.247130,2294.638420,-9882.631924
960.834024,5403.503377,2886.803174,-11568.042020
960.834344,6883.915261,3108.864956,-10572.117872
960.834664,2664.741391,2368.659014,-10265.679673
960.834984,-1628.453072,2146.597232,-9882.631924
960.835304,-888.247130,1258.350101,-9729.412825
960.835623,888.247130,-740.205942,-10035.851024
960.835943,296.082377,-740.205942,-9729.412825
960.836263,1850.514855,-1776.494261,-9882.631924
960.836583,3701.029710,-370.102971,-9882.631924
960.836903,4219.173869,2368.659014,-10265.679673
960.837223,4737.318029,4589.276840,-10648.727422
960.837543,2664.741391,3034.844362,-11184.994271
960.837863,592.164754,1406.391290,-9499.584175
960.838182,-1332.370696,-222.061783,-10572.117872
960.838502,666.185348,-814.226536,-10189.070123
960.838822,3478.967927,888.247130,-11797.870669
960.839142,3552.988522,444.123565,-10035.851024
960.839462,2442.679609,370.102971,-10265.679673
960.839782,1184.329507,-666.185348,-10955.165621
960.840102,74.020594,-740.205942,-10112.460574
960.840422,-740.205942,222.061783,-10265.679673
960.840742,74.020594,1924.535449,-10495.508323
960.841061,1406.391290,1702.473667,-9882.631924
960.841381,1924.535449,-296.082377,-10495.508323
960.841701,1110.308913,-814.226536,-10265.679673
960.842021,-222.061783,-814.226536,-9576.193725
960.842341,-370.102971,962.267725,-10648.727422
960.842661,-1258.350101,592.164754,-10342.289223
960.842981,-1332.370696,1924.535449,-11414.822920
960.843301,-2072.576638,1924.535449,-9959.241474
960.843620,-1332.370696,148.041188,-10035.851024
960.843940,-1406.391290,-222.061783,-9576.193725
960.844260,-1406.391290,-1406.391290,-9882.631924
960.844580,-1406.391290,-1110.308913,-9806.022374
960.844900,0.000000,-370.102971,-9652.803275
960.845220,3478.967927,1332.370696,-9576.193725
960.845540,2368.659014,1480.411884,-11338.213370
960.845860,1110.308913,1332.370696,-9806.022374
960.846180,-2368.659014,1628.453072,-10189.070123
960.846499,-1406.391290,1776.494261,-10112.460574
960.846819,1554.432478,2220.617826,-9806.022374
960.847139,4071.132681,1850.514855,-10955.165621
960.847459,3404.947333,2886.803174,-10265.679673
960.847779,1110.308913,1702.473667,-10725.336972
960.848099,1036.288319,1110.308913,-10112.460574
960.848419,1258.350101,-1850.514855,-9499.584175
960.848739,2294.638420,-1554.432478,-9806.022374
960.849058,3404.947333,-962.267725,-9499.584175
960.849378,1850.514855,1628.453072,-10112.460574
960.849698,1036.288319,4145.153275,-10189.070123
960.850018,1258.350101,4811.338623,-10265.679673
960.850338,3552.988522,3849.070898,-10035.851024
960.850658,5551.544565,2072.576638,-10418.898773
960.850978,5847.626942,888.247130,-10035.851024
960.851298,5107.421000,-148.041188,-9806.022374
960.851617,2664.741391,518.144159,-11261.603821
960.851937,1924.535449,1184.329507,-9729.412825
960.852257,-222.061783,2886.803174,-9806.022374
960.852577,1332.370696,3997.112087,-9959.241474
960.852897,3330.926739,3923.091493,-9576.193725
960.853217,4811.338623,3256.906145,-11951.089769
960.853537,5403.503377,1850.514855,-10801.946522
960.853857,3478.967927,962.267725,-9806.022374
960.854177,2368.659014,740.205942,-9806.022374
960.854496,1332.370696,2442.679609,-9652.803275
960.854816,2146.597232,3256.906145,-10418.898773
960.855136,2220.617826,3701.029710,-10112.460574
960.855456,1702.473667,2294.638420,-10265.679673
960.855776,2664.741391,3330.926739,-10189.070123
960.856096,3997.112087,2738.761985,-10035.851024
960.856416,4219.173869,2886.803174,-10648.727422
960.856736,2220.617826,2886.803174,-10189.070123
960.857055,-1850.514855,888.247130,-10342.289223
960.857375,-2442.679609,1332.370696,-9806.022374
960.857695,-2960.823768,370.102971,-9652.803275
960.858015,-518.144159,962.267725,-10265.679673
960.858335,1332.370696,1850.514855,-9576.193725
960.858655,1998.556043,3404.947333,-10342.289223
960.858975,2220.617826,3552.988522,-9576.193725
960.859295,2738.761985,3034.844362,-9882.631924
960.859614,3997.112087,1480.411884,-10495.508323
960.859934,3552.988522,1036.288319,-9039.926876
960.860254,888.247130,1110.308913,-10189.070123
960.860574,-222.061783,2812.782580,-9499.584175
960.860894,0.000000,4071.132681,-9806.022374
960.861214,1332.370696,3997.112087,-10955.165621
960.861534,3849.070898,3775.050304,-9116.536426
960.861854,5033.400406,2220.617826,-10572.117872
960.862174,3478.967927,1332.370696,-9882.631924
960.862493,1850.514855,888.247130,-9806.022374
960.862813,666.185348,2368.659014,-10495.508323
960.863133,1406.391290,2664.741391,-9346.365076
960.863453,2294.638420,3627.009116,-10112.460574
960.863773,2664.741391,3034.844362,-11261.603821
960.864093,3034.844362,2516.700203,-9499.584175
960.864413,3034.844362,3256.906145,-10265.679673
960.864733,4145.153275,3552.988522,-10801.946522
960.865052,5773.606348,2664.741391,-10265.679673
960.865372,5995.668130,2886.803174,-10878.556072
960.865692,2886.803174,2442.679609,-10572.117872
960.866012,1554.432478,4145.153275,-9116.536426
960.866332,1036.288319,4663.297435,-11108.384721
960.866652,3034.844362,4293.194464,-10265.679673
960.866972,4515.256246,2664.741391,-9806.022374
960.867292,6143.709319,370.102971,-10418.898773
960.867612,5107.421000,444.123565,-9499.584175
960.867931,2664.741391,1110.308913,-9806.022374
960.868251,1184.329507,2442.679609,-9882.631924
960.868571,1702.473667,3627.009116,-9806.022374
960.868891,2220.617826,2738.761985,-9806.022374
960.869211,1924.535449,2368.659014,-9652.803275
960.869531,2072.576638,1036.288319,-9729.412825
960.869851,3330.926739,1184.329507,-10035.851024
960.870171,4737.318029,2516.700203,-9116.536426
960.870490,4441.235652,2442.679609,-9882.631924
960.870810,2960.823768,2072.576638,-9499.584175
960.871130,1480.411884,1998.556043,-9576.193725
960.871450,962.267725,1776.494261,-9729.412825
960.871770,2072.576638,2368.659014,-9422.974625
960.872090,2664.741391,3108.864956,-10189.070123
960.872410,2590.720797,3404.947333,-10495.508323
960.872730,3256.906145,1702.473667,-10189.070123
960.873049,2886.803174,1924.535449,-10342.289223
960.873369,1480.411884,1776.494261,-10035.851024
960.873689,592.164754,2812.782580,-10189.070123
960.874009,-1258.350101,3701.029710,-10725.336972
960.874329,-1480.411884,3404.947333,-10418.898773
960.874649,-888.247130,2590.720797,-10189.070123
960.874969,1036.288319,1480.411884,-10418.898773
960.875289,2368.659014,1332.370696,-10189.070123
960.875609,2886.803174,1776.494261,-10418.898773
960.875928,3478.967927,2960.823768,-11108.384721
960.876248,3182.885551,4293.194464,-11031.775171
960.876568,1258.350101,4441.235652,-10418.898773
960.876888,-444.123565,3923.091493,-10112.460574
960.877208,0.000000,2590.720797,-9959.241474
960.877528,2220.617826,1036.288319,-10112.460574
960.877848,2368.659014,1110.308913,-10572.117872
960.878168,962.267725,1924.535449,-9729.412825
960.878487,740.205942,2590.720797,-9882.631924
960.878807,2368.659014,3404.947333,-10035.851024
960.879127,2072.576638,3775.050304,-10112.460574
960.879447,1554.432478,3552.988522,-9499.584175
960.879767,2738.761985,2220.617826,-9346.365076
960.880087,4293.194464,962.267725,-9806.022374
960.880407,4145.153275,1184.329507,-9729.412825
960.880727,3404.947333,2072.576638,-9729.412825
960.881047,3108.864956,3923.091493,-10189.070123
960.881366,4293.194464,4737.318029,-10342.289223
960.881686,4219.173869,4663.297435,-10495.508323
960.882006,1998.556043,3701.029710,-10189.070123
960.882326,1184.329507,2886.803174,-9652.803275
960.882646,2146.597232,1184.329507,-10035.851024
960.882966,3997.112087,2146.597232,-9499.584175
960.883286,4367.215058,1998.556043,-9882.631924
960.883606,4071.132681,3478.967927,-9959.241474
960.883925,5107.421000,4663.297435,-10035.851024
960.884245,6365.771101,4885.359217,-10648.727422
960.884565,5255.462188,5107.421000,-10572.117872
960.884885,2220.617826,4071.132681,-10418.898773
960.885205,1036.288319,2738.761985,-10189.070123
960.885525,1110.308913,1702.473667,-9806.022374
960.885845,1998.556043,1480.411884,-9882.631924
960.886165,1924.535449,1184.329507,-9806.022374
960.886484,1776.494261,1480.411884,-10342.289223
960.886804,2220.617826,2220.617826,-9729.412825
960.887124,3330.926739,2886.803174,-9806.022374
960.887444,4737.318029,3701.029710,-10189.070123
960.887764,4367.215058,4071.132681,-10572.117872
960.888084,2886.803174,3775.050304,-10418.898773
960.888404,1110.308913,2886.803174,-10112.460574
960.888724,-444.123565,2590.720797,-9576.193725
960.889044,1184.329507,1332.370696,-10035.851024
960.889363,2960.823768,740.205942,-9806.022374
960.889683,1998.556043,666.185348,-10112.460574
960.890003,-296.082377,1406.391290,-10112.460574
960.890323,-1702.473667,1850.514855,-9193.145976
960.890643,-592.164754,2590.720797,-9882.631924
960.890963,2664.741391,2368.659014,-9959.241474
960.891283,4441.235652,1480.411884,-9652.803275
960.891603,3923.091493,1776.494261,-10725.336972
960.891923,1628.453072,2590.720797,-10418.898773
960.892243,222.061783,3775.050304,-9959.241474
960.892563,1036.288319,4441.235652,-10572.117872
960.892883,2812.782580,3182.885551,-10495.508323
960.893202,2960.823768,1110.308913,-10112.460574
960.893522,1702.473667,296.082377,-10418.898773
960.893842,814.226536,1332.370696,-9806.022374
960.894162,962.267725,2960.823768,-10265.679673
960.894482,666.185348,4145.153275,-10189.070123
960.894802,1776.494261,3552.988522,-9882.631924
960.895122,3478.967927,1924.535449,-10572.117872
960.895442,3775.050304,1036.288319,-10265.679673
960.895762,3182.885551,1554.432478,-9806.022374
960.896082,2368.659014,2442.679609,-10418.898773
960.896402,2294.638420,3256.906145,-10035.851024
960.896722,1480.411884,3034.844362,-10035.851024
960.897042,962.267725,1924.535449,-9806.022374
960.897362,1702.473667,444.123565,-9422.974625
960.897682,2960.823768,296.082377,-10342.289223
960.898002,3552.988522,962.267725,-9652.803275
960.898322,3849.070898,2590.720797,-10112.460574
960.898642,4515.256246,3849.070898,-10112.460574
960.898962,4811.338623,4737.318029,-9882.631924
960.899282,3478.967927,4737.318029,-10418.898773
960.899602,1036.288319,4145.153275,-10189.070123
960.899922,444.123565,2368.659014,-9806.022374
960.900241,1924.535449,444.123565,-9882.631924
960.900561,3256.906145,-518.144159,-9806.022374
960.900881,3256.906145,-148.041188,-9652.803275
960.901201,2368.659014,1776.494261,-9806.022374
960.901521,2442.679609,4515.256246,-9806.022374
960.901841,4367.215058,6365.771101,-10418.898773
960.902161,5033.400406,6439.791695,-10801.946522
960.902481,4367.215058,5107.421000,-10878.556072
960.902801,2590.720797,2442.679609,-10189.070123
960.903121,740.205942,962.267725,-10112.460574
960.903441,-666.185348,740.205942,-9806.022374
960.903761,-592.164754,1036.288319,-9806.022374
960.904081,814.226536,1554.432478,-9806.022374
960.904401,1924.535449,2368.659014,-9806.022374
960.904721,2294.638420,2812.782580,-10112.460574
960.905041,2590.720797,4071.132681,-10112.460574
960.905361,4071.132681,5551.544565,-10342.289223
960.905681,5329.482782,6069.688724,-10265.679673
960.906001,5033.400406,5033.400406,-10265.679673
960.906321,3627.009116,3330.926739,-10035.851024
960.906641,2146.597232,2072.576638,-10112.460574
960.906961,1184.329507,2146.597232,-10035.851024
960.907280,518.144159,2886.803174,-9882.631924
960.907600,0.000000,3034.844362,-10035.851024
960.907920,-1258.350101,2368.659014,-9806.022374
960.908240,-1332.370696,1110.308913,-9346.365076
960.908560,-148.041188,666.185348,-9193.145976
960.908880,1628.453072,1036.288319,-9576.193725
960.909200,3923.091493,2146.597232,-9806.022374
960.909520,5699.585753,3552.988522,-10035.851024
960.909840,6513.812290,5255.462188,-10112.460574
960.910160,5181.441594,6143.709319,-10878.556072
960.910480,4219.173869,5773.606348,-10495.508323
960.910800,2294.638420,4737.318029,-10495.508323
960.911120,1110.308913,3108.864956,-10265.679673
960.911440,1036.288319,814.226536,-10112.460574
960.911760,0.000000,0.000000,-9806.022374
960.912080,-814.226536,-148.041188,-9576.193725
960.912400,-962.267725,444.123565,-9729.412825
960.912720,444.123565,1850.514855,-9652.803275
960.913040,2516.700203,3330.926739,-9806.022374
960.913360,4515.256246,3478.967927,-9806.022374
960.913680,6069.688724,3330.926739,-10189.070123
960.913999,6587.832884,2442.679609,-10418.898773
960.914319,4367.215058,2220.617826,-9346.365076
960.914639,1924.535449,1998.556043,-9806.022374
960.914959,148.041188,1998.556043,-9959.241474
960.915279,-444.123565,1480.411884,-10035.851024
960.915599,-1258.350101,592.164754,-9806.022374
960.915919,-1332.370696,-296.082377,-9576.193725
960.916239,-814.226536,-1110.308913,-9959.241474
960.916559,0.000000,0.000000,-9806.022374
960.916879,1332.370696,1480.411884,-10189.070123
960.917199,2812.782580,3775.050304,-10189.070123
960.917519,3997.112087,4071.132681,-10035.851024
960.917839,4071.132681,4219.173869,-10725.336972
960.918159,3478.967927,3627.009116,-10342.289223
960.918479,2960.823768,3404.947333,-10265.679673
960.918799,2368.659014,1850.514855,-10495.508323
960.919119,1406.391290,1258.350101,-10112.460574
960.919439,518.144159,592.164754,-9806.022374
960.919759,444.123565,518.144159,-9806.022374
960.920079,1776.494261,296.082377,-9806.022374
960.920399,2590.720797,1924.535449,-10035.851024
960.920719,3701.029710,2738.761985,-10265.679673
960.921038,4737.318029,3627.009116,-10265.679673
960.921358,5773.606348,4441.235652,-10495.508323
960.921678,6661.853478,4293.194464,-10112.460574
960.921998,7328.038826,4737.318029,-10342.289223
960.922318,6661.853478,5033.400406,-10572.117872
960.922638,4663.297435,5255.462188,-10495.508323
960.922958,2072.576638,4441.235652,-10035.851024
960.923278,0.000000,2738.761985,-9806.022374
960.923598,-740.205942,1110.308913,-9499.584175
960.923918,74.020594,-222.061783,-9346.365076
960.924238,1702.473667,-444.123565,-9499.584175
960.924558,2812.782580,814.226536,-9806.022374
960.924878,4515.256246,3404.947333,-9806.022374
960.925198,5699.585753,5921.647536,-10035.851024
960.925518,6217.729913,7624.121203,-10418.898773
960.925838,5847.626942,7550.100608,-11491.432470
960.926158,4737.318029,6365.771101,-10418.898773
960.926478,3997.112087,4219.173869,-10189.070123
960.926798,3256.906145,2738.761985,-10265.679673
960.927118,1850.514855,2294.638420,-10265.679673
960.927438,-1110.308913,2220.617826,-9806.022374
960.927757,-3478.967927,2590.720797,-9652.803275
960.928077,-2960.823768,3034.844362,-9806.022374
960.928397,-740.205942,2590.720797,-9806.022374
960.928717,2146.597232,1406.391290,-10265.679673
960.929037,2516.700203,2220.617826,-9959.241474
960.929357,2442.679609,2960.823768,-10189.070123
960.929677,3404.947333,4367.215058,-9882.631924
960.929997,4959.379811,5921.647536,-9882.631924
960.930317,5847.626942,5625.565159,-10418.898773
960.930637,4293.194464,4811.338623,-10725.336972
960.930957,740.205942,3775.050304,-10495.508323
960.931277,-2516.700203,2368.659014,-9806.022374
960.931597,-2886.803174,1628.453072,-10035.851024
960.931917,-2146.597232,518.144159,-9806.022374
960.932237,-1258.350101,-296.082377,-9576.193725
960.932557,-666.185348,-296.082377,-9269.755526
960.932877,888.247130,1036.288319,-9346.365076
960.933197,4367.215058,3182.885551,-10035.851024
960.933517,6439.791695,5625.565159,-10648.727422
960.933837,6439.791695,6957.935855,-10495.508323
960.934157,5477.523971,6291.750507,-10112.460574
960.934477,4367.215058,4737.318029,-10189.070123
960.934796,2590.720797,1850.514855,-10112.460574
960.935116,1258.350101,148.041188,-9652.803275
960.935436,962.267725,-888.247130,-9959.241474
960.935756,888.247130,-666.185348,-11184.994271
960.936076,-222.061783,444.123565,-9806.022374
960.936396,-592.164754,1924.535449,-9806.022374
960.936716,1332.370696,2886.803174,-9959.241474
960.937036,3997.112087,2960.823768,-10189.070123
960.937356,6439.791695,2516.700203,-10035.851024
960.937676,7698.141797,2368.659014,-10265.679673
960.937996,7105.977043,2886.803174,-10725.336972
960.938316,5921.647536,3775.050304,-10418.898773
960.938636,4367.215058,4589.276840,-10342.289223
960.938956,2146.597232,3552.988522,-10572.117872
960.939276,888.247130,1184.329507,-10189.070123
960.939596,592.164754,-1332.370696,-10035.851024
960.939916,518.144159,-1998.556043,-10418.898773
960.940236,74.020594,-1036.288319,-9729.412825
960.940556,-740.205942,740.205942,-9729.412825
960.940876,1258.350101,2072.576638,-10265.679673
960.941196,4071.132681,2812.782580,-10035.851024
960.941515,5551.544565,3034.844362,-9959.241474
960.941835,6069.688724,3182.885551,-10725.336972
960.942155,5921.647536,3404.947333,-10342.289223
960.942475,4441.235652,4589.276840,-10801.946522
960.942795,3182.885551,3849.070898,-10572.117872
960.943115,1628.453072,2368.659014,-9806.022374
960.943435,-1480.411884,222.061783,-10035.851024
960.943755,-3256.906145,-1776.494261,-9269.755526
960.944075,-4737.318029,-1702.473667,-9269.755526
960.944395,-3182.885551,-444.123565,-10955.165621
960.944715,1036.288319,888.247130,-9499.584175
960.945035,4071.132681,1924.535449,-10189.070123
960.945355,4441.235652,3108.864956,-10112.460574
960.945675,3627.009116,3923.091493,-9806.022374
960.945995,3627.009116,5181.441594,-10801.946522
960.946315,5551.544565,5107.421000,-10495.508323
960.946635,5181.441594,4885.359217,-10648.727422
960.946955,1776.494261,3182.885551,-10572.117872
960.947275,-666.185348,2220.617826,-9346.365076
960.947595,-1850.514855,148.041188,-10265.679673
960.947915,-1554.432478,74.020594,-10265.679673
960.948235,-1924.535449,370.102971,-9576.193725
960.948554,-1480.411884,1258.350101,-10725.336972
960.948874,1332.370696,2220.617826,-10035.851024
960.949194,5181.441594,3849.070898,-10495.508323
960.949514,6809.894666,5551.544565,-11261.603821
960.949834,6513.812290,6661.853478,-10955.165621
960.950154,6143.709319,7476.080014,-11031.775171
960.950474,6587.832884,6439.791695,-10725.336972
960.950794,6365.771101,4589.276840,-10418.898773
960.951114,3997.112087,2886.803174,-10265.679673
960.951434,740.205942,1998.556043,-9882.631924
960.951754,0.000000,1184.329507,-9346.365076
960.952074,-592.164754,2072.576638,-9806.022374
960.952394,-962.267725,2368.659014,-9806.022374
960.952714,0.000000,2516.700203,-8963.317327
960.953034,3182.885551,2368.659014,-9576.193725
960.953354,5921.647536,2738.761985,-9652.803275
960.953674,5773.606348,3775.050304,-9729.412825
960.953994,5847.626942,5551.544565,-9806.022374
960.954314,7846.182985,6661.853478,-8886.707777
960.954634,7920.203579,6439.791695,-10725.336972
960.954954,5033.400406,4959.379811,-10265.679673
960.955273,1406.391290,2886.803174,-9806.022374
960.955593,0.000000,1110.308913,-9882.631924
960.955913,-1036.288319,666.185348,-9729.412825
960.956233,-3849.070898,1332.370696,-9499.584175
960.956553,-3923.091493,1036.288319,-10035.851024
960.956873,-1184.329507,814.226536,-9959.241474
960.957193,2294.638420,962.267725,-11184.994271
960.957513,3404.947333,2072.576638,-10112.460574
960.957833,4515.256246,3997.112087,-10342.289223
960.958153,5995.668130,5551.544565,-10495.508323
960.958473,7031.956449,6217.729913,-10648.727422
960.958793,5773.606348,6439.791695,-11338.213370
960.959113,1480.411884,4515.256246,-10878.556072
960.959433,-2886.803174,1998.556043,-9806.022374
960.959753,-3775.050304,148.041188,-9882.631924
960.960073,-1776.494261,-592.164754,-9806.022374
960.960393,-2368.659014,-1406.391290,-8886.707777
960.960713,-1480.411884,-666.185348,-9499.584175
960.961033,1702.473667,1258.350101,-9652.803275
960.961353,3627.009116,3478.967927,-11414.822920
960.961673,3552.988522,5107.421000,-10265.679673
960.961993,5477.523971,5921.647536,-10035.851024
960.962312,5773.606348,4515.256246,-10112.460574
960.962632,6587.832884,4219.173869,-9346.365076
960.962952,5181.441594,3034.844362,-10648.727422
960.963272,2960.823768,1480.411884,-10112.460574
960.963592,3034.844362,-962.267725,-9652.803275
960.963912,1184.329507,-888.247130,-9806.022374
960.964232,-518.144159,0.000000,-9346.365076
960.964552,-1702.473667,1036.288319,-9576.193725
960.964872,-592.164754,2738.761985,-10572.117872
960.965192,2072.576638,3182.885551,-10112.460574
960.965512,3701.029710,4737.318029,-9806.022374
960.965832,4737.318029,3997.112087,-10878.556072
960.966152,6735.874072,1702.473667,-9882.631924
960.966472,7476.080014,1036.288319,-10189.070123
960.966792,5625.565159,2220.617826,-10801.946522
960.967112,4145.153275,3256.906145,-10725.336972
960.967432,2294.638420,4441.235652,-10572.117872
960.967752,148.041188,3849.070898,-11108.384721
960.968072,592.164754,1332.370696,-10112.460574
960.968392,0.000000,-740.205942,-9882.631924
960.968712,-296.082377,-1776.494261,-10189.070123
960.969032,1628.453072,-1702.473667,-9806.022374
960.969351,2590.720797,0.000000,-10495.508323
960.969671,3849.070898,1776.494261,-10725.336972
960.969991,5551.544565,1924.535449,-9959.241474
960.970311,4737.318029,3775.050304,-10648.727422
960.970631,2664.741391,4811.338623,-11338.213370
960.970951,2220.617826,4811.338623,-9729.412825
960.971271,2220.617826,4515.256246,-10801.946522
960.971591,3182.885551,2146.597232,-10112.460574
960.971911,1406.391290,296.082377,-9729.412825
960.972231,0.000000,-814.226536,-10495.508323
960.972551,0.000000,-592.164754,-9346.365076
960.972871,296.082377,1776.494261,-9806.022374
960.973191,814.226536,2738.761985,-10112.460574
960.973511,962.267725,3182.885551,-8886.707777
960.973831,2220.617826,3552.988522,-10495.508323
960.974151,4737.318029,3478.967927,-9652.803275
960.974471,4663.297435,3404.947333,-10035.851024
960.974791,3701.029710,3478.967927,-10265.679673
960.975111,3182.885551,2220.617826,-9806.022374
960.975431,1924.535449,1850.514855,-9959.241474
960.975751,74.020594,962.267725,-10418.898773
960.976070,-2886.803174,1184.329507,-9422.974625
960.976390,-3849.070898,2220.617826,-9959.241474
960.976710,-1258.350101,2368.659014,-9882.631924
960.977030,1258.350101,2886.803174,-10418.898773
960.977350,1850.514855,2368.659014,-10418.898773
960.977670,1332.370696,1480.411884,-9959.241474
960.977990,1332.370696,2812.782580,-10418.898773
960.978310,3108.864956,3627.009116,-11184.994271
960.978630,3108.864956,5181.441594,-10265.679673
960.978950,2072.576638,4441.235652,-10648.727422
960.979270,1480.411884,3182.885551,-9959.241474
960.979590,2886.803174,1850.514855,-10495.508323
960.979910,3108.864956,1480.411884,-10035.851024
960.980230,3034.844362,1110.308913,-10342.289223
960.980550,2516.700203,2072.576638,-10342.289223
960.980870,370.102971,2368.659014,-10418.898773
960.981190,-1184.329507,3256.906145,-9576.193725
960.981510,-1554.432478,2442.679609,-9806.022374
960.981830,1258.350101,1702.473667,-9806.022374
960.982150,2146.597232,740.205942,-9576.193725
960.982470,2812.782580,296.082377,-9499.584175
960.982790,3330.926739,-1480.411884,-9576.193725
960.983109,2812.782580,-814.226536,-9806.022374
960.983429,3775.050304,814.226536,-9806.022374
960.983749,2368.659014,3775.050304,-10265.679673
960.984069,74.020594,4959.379811,-9882.631924
960.984389,-666.185348,3997.112087,-9576.193725
960.984709,-592.164754,814.226536,-10035.851024
960.985029,-1406.391290,-3182.885551,-10035.851024
960.985349,-518.144159,-5329.482782,-8963.317327
960.985669,2368.659014,-5403.503377,-9269.755526
960.985989,5773.606348,-1702.473667,-9959.241474
960.986309,5329.482782,3701.029710,-11184.994271
960.986629,2664.741391,5033.400406,-11184.994271
960.986949,518.144159,5033.400406,-10495.508323
960.987269,-444.123565,2738.761985,-10418.898773
960.987589,1480.411884,444.123565,-10878.556072
960.987909,148.041188,-2220.617826,-10418.898773
960.988229,-148.041188,-2960.823768,-10189.070123
960.988549,-3330.926739,-2220.617826,-10418.898773
960.988869,-888.247130,296.082377,-9806.022374
960.989189,1258.350101,1110.308913,-11031.775171
960.989509,3330.926739,2072.576638,-10265.679673
960.989828,518.144159,2146.597232,-11874.480219
960.990148,-2072.576638,518.144159,-9806.022374
960.990468,-2072.576638,-888.247130,-10112.460574
960.990788,296.082377,-592.164754,-9729.412825
960.991108,-1110.308913,-1036.288319,-9193.145976
960.991428,148.041188,-1258.350101,-11184.994271
960.991748,888.247130,-1110.308913,-10342.289223
960.992068,888.247130,0.000000,-10035.851024
960.992388,666.185348,1850.514855,-10648.727422
960.992708,-814.226536,1850.514855,-10112.460574
960.993028,-2294.638420,148.041188,-10342.289223
960.993348,-1406.391290,-1258.350101,-9806.022374
960.993668,-1110.308913,-962.267725,-9729.412825
960.993988,-1850.514855,740.205942,-11031.775171
960.994308,222.061783,1850.514855,-10112.460574
960.994628,962.267725,2812.782580,-10801.946522
960.994948,-222.061783,2738.761985,-10418.898773
960.995267,-740.205942,-592.164754,-9959.241474
960.995587,-666.185348,-3182.885551,-10189.070123
960.995907,-1036.288319,-2886.803174,-9422.974625
960.996227,-1258.350101,-1406.391290,-8963.317327
960.996547,-518.144159,1110.308913,-9729.412825
960.996867,592.164754,814.226536,-10648.727422
960.997187,1924.535449,962.267725,-9422.974625
960.997507,1924.535449,444.123565,-10495.508323
960.997827,2220.617826,0.000000,-9576.193725
960.998147,3034.844362,0.000000,-10035.851024
960.998467,1554.432478,-740.205942,-9806.022374
960.998786,444.123565,-1110.308913,-9652.803275
960.999106,-222.061783,-888.247130,-9499.584175
960.999426,1998.556043,296.082377,-10189.070123
960.999746,3701.029710,296.082377,-10572.117872
961.000066,3923.091493,1554.432478,-9729.412825
961.000386,2960.823768,2368.659014,-11031.775171
961.000706,888.247130,1702.473667,-9959.241474
961.001026,296.082377,74.020594,-10035.851024
961.001346,-370.102971,-444.123565,-10725.336972
961.001666,-592.164754,-1702.473667,-9346.365076
961.001986,0.000000,-2220.617826,-10112.460574
961.002305,888.247130,-1110.308913,-10112.460574
961.002625,1110.308913,888.247130,-10342.289223
961.002945,2368.659014,3108.864956,-10801.946522
961.003265,2442.679609,3552.988522,-10112.460574
961.003585,3997.112087,4219.173869,-10495.508323
961.003905,2072.576638,2294.638420,-10801.946522
961.004225,666.185348,-1036.288319,-10189.070123
961.004545,-1554.432478,-1776.494261,-10112.460574
961.004865,-1406.391290,-1332.370696,-9806.022374
961.005185,-1702.473667,148.041188,-9652.803275
961.005505,-1628.453072,1332.370696,-10955.165621
961.005824,-592.164754,1480.411884,-9576.193725
961.006144,-1332.370696,1258.350101,-9729.412825
961.006464,0.000000,740.205942,-10265.679673
961.006784,1332.370696,148.041188,-9959.241474
961.007104,3701.029710,1258.350101,-10418.898773
961.007424,2664.741391,1184.329507,-10189.070123
961.007744,740.205942,1998.556043,-9729.412825
961.008064,-962.267725,2146.597232,-10342.289223
961.008384,-1480.411884,1702.473667,-9729.412825
961.008704,-518.144159,1480.411884,-10189.070123
961.009024,-370.102971,1554.432478,-10418.898773
961.009344,-1628.453072,370.102971,-9806.022374
961.009663,-4071.132681,-1702.473667,-9729.412825
961.009983,-4663.297435,-1258.350101,-9116.536426
961.010303,-2146.597232,-2072.576638,-9193.145976
961.010623,1850.514855,-888.247130,-9882.631924
961.010943,2960.823768,1554.432478,-9959.241474
961.011263,1924.535449,3256.906145,-10342.289223
961.011583,962.267725,3701.029710,-9806.022374
961.011903,814.226536,1850.514855,-10112.460574
961.012223,1850.514855,0.000000,-9806.022374
961.012543,2368.659014,-2368.659014,-10342.289223
961.012863,1258.350101,-2664.741391,-9959.241474
961.013182,296.082377,-1258.350101,-10572.117872
961.013502,-1628.453072,2960.823768,-10572.117872
961.013822,-1406.391290,5625.565159,-10878.556072
961.014142,1184.329507,6069.688724,-10648.727422
961.014462,888.247130,1850.514855,-10265.679673
961.014782,1554.432478,-2220.617826,-10035.851024
961.015102,2664.741391,-4737.318029,-10189.070123
961.015422,2738.761985,-5033.400406,-9729.412825
961.015742,3701.029710,-1184.329507,-10035.851024
961.016062,4811.338623,1480.411884,-10495.508323
961.016382,3330.926739,2442.679609,-9882.631924
961.016701,1850.514855,2368.659014,-10265.679673
961.017021,2664.741391,1628.453072,-10495.508323
961.017341,2220.617826,0.000000,-10035.851024
961.017661,2368.659014,-1406.391290,-10265.679673
961.017981,222.061783,-1850.514855,-9806.022374
961.018301,1110.308913,-3034.844362,-9729.412825
961.018621,2294.638420,-3330.926739,-9193.145976
961.018941,2368.659014,-1628.453072,-9499.584175
961.019261,-148.041188,814.226536,-9806.022374
961.019581,-592.164754,1776.494261,-10112.460574
961.019901,-814.226536,3404.947333,-9652.803275
961.020220,-666.185348,370.102971,-9882.631924
961.020540,-518.144159,-2516.700203,-9039.926876
961.020860,370.102971,-3775.050304,-9959.241474
961.021180,370.102971,-2294.638420,-9729.412825
961.021500,-2886.803174,1036.288319,-9576.193725
961.021820,-3849.070898,2590.720797,-10955.165621
961.022140,-2220.617826,1480.411884,-10572.117872
961.022460,-222.061783,-296.082377,-10035.851024
961.022780,-1406.391290,-1554.432478,-10418.898773
961.023100,-3182.885551,0.000000,-10112.460574
961.023420,-2442.679609,1258.350101,-10801.946522
961.023739,-2368.659014,1850.514855,-10801.946522
961.024059,888.247130,-962.267725,-10418.898773
961.024379,1628.453072,-1406.391290,-9959.241474
961.024699,518.144159,-2590.720797,-10112.460574
961.025019,-1110.308913,-1702.473667,-9959.241474
961.025339,-5107.421000,2072.576638,-11414.822920
961.025659,-3997.112087,2368.659014,-9806.022374
961.025979,-4367.215058,1036.288319,-9806.022374
961.026299,-962.267725,74.020594,-9882.631924
961.026619,2368.659014,-1110.308913,-9959.241474
961.026939,3108.864956,-1554.432478,-10648.727422
961.027259,3108.864956,-1332.370696,-10265.679673
961.027578,0.000000,-814.226536,-9882.631924
961.027898,-1110.308913,-740.205942,-9346.365076
961.028218,-2220.617826,370.102971,-9193.145976
961.028538,1554.432478,888.247130,-10035.851024
961.028858,4737.318029,1480.411884,-10112.460574
961.029178,7105.977043,222.061783,-10342.289223
961.029498,6439.791695,-444.123565,-9193.145976
961.029818,4737.318029,-962.267725,-9576.193725
961.030138,3108.864956,444.123565,-9959.241474
961.030458,3627.009116,1110.308913,-10035.851024
961.030778,3108.864956,1924.535449,-10189.070123
961.031097,3108.864956,1554.432478,-9882.631924
961.031417,1850.514855,2072.576638,-9499.584175
961.031737,1850.514855,1332.370696,-10878.556072
961.032057,1332.370696,814.226536,-10112.460574
961.032377,1628.453072,888.247130,-9959.241474
961.032697,1850.514855,444.123565,-10418.898773
961.033017,1998.556043,1258.350101,-10112.460574
961.033337,148.041188,1924.535449,-11184.994271
961.033657,0.000000,2220.617826,-9959.241474
961.033977,74.020594,1924.535449,-10112.460574
961.034297,-592.164754,1628.453072,-11874.480219
961.034616,-1110.308913,518.144159,-9269.755526
961.034936,-518.144159,814.226536,-9576.193725
961.035256,1258.350101,1554.432478,-10495.508323
961.035576,3256.906145,1628.453072,-9039.926876
961.035896,2220.617826,2072.576638,-10342.289223
961.036216,-1110.308913,1628.453072,-10572.117872
961.036536,-3775.050304,666.185348,-8963.317327
961.036856,-6587.832884,740.205942,-9806.022374
961.037176,-3404.947333,-592.164754,-8886.707777
961.037496,-1998.556043,148.041188,-8886.707777
961.037816,-148.041188,-888.247130,-9959.241474
961.038135,666.185348,-1036.288319,-9576.193725
961.038455,0.000000,74.020594,-9882.631924
961.038775,-148.041188,1332.370696,-10189.070123
961.039095,-370.102971,1702.473667,-9806.022374
961.039415,-1036.288319,1258.350101,-9499.584175
961.039735,-2368.659014,148.041188,-9193.145976
961.040055,-592.164754,0.000000,-9882.631924
961.040375,-1258.350101,296.082377,-10878.556072
961.040695,-1406.391290,148.041188,-9959.241474
961.041015,-3034.844362,-962.267725,-9959.241474
961.041335,-814.226536,-962.267725,-9806.022374
961.041654,148.041188,-1628.453072,-10112.460574
961.041974,-2146.597232,-2516.700203,-9806.022374
961.042294,-1850.514855,-1036.288319,-10265.679673
961.042614,222.061783,740.205942,-10878.556072
961.042934,3849.070898,2368.659014,-11184.994271
961.043254,6291.750507,1480.411884,-11414.822920
961.043574,5921.647536,1702.473667,-11108.384721
961.043894,4737.318029,1998.556043,-11338.213370
961.044214,3034.844362,2368.659014,-10648.727422
961.044534,1850.514855,2738.761985,-11261.603821
961.044854,1110.308913,2220.617826,-10801.946522
961.045173,814.226536,-1258.350101,-9576.193725
961.045493,518.144159,-4071.132681,-10265.679673
961.045813,1480.411884,-5255.462188,-9806.022374
961.046133,888.247130,-4737.318029,-9652.803275
961.046453,1110.308913,-592.164754,-10342.289223
961.046773,2072.576638,2294.638420,-10265.679673
961.047093,2590.720797,2664.741391,-9806.022374
961.047413,1850.514855,1332.370696,-10265.679673
961.047733,2590.720797,148.041188,-10189.070123
961.048053,2664.741391,-1258.350101,-9499.584175
961.048373,2516.700203,-740.205942,-9806.022374
961.048693,1998.556043,-1258.350101,-9346.365076
961.049012,0.000000,-2294.638420,-9346.365076
961.049332,-1406.391290,-1110.308913,-9882.631924
961.049652,148.041188,-1628.453072,-9346.365076
961.049972,888.247130,962.267725,-8656.879127
961.050292,-1628.453072,-740.205942,-9729.412825
961.050612,-1480.411884,-962.267725,-9346.365076
961.050932,444.123565,-1628.453072,-9806.022374
961.051252,1480.411884,-518.144159,-11031.775171
961.051572,-444.123565,888.247130,-10265.679673
961.051892,-1184.329507,2368.659014,-10878.556072
961.052212,-1258.350101,2886.803174,-10725.336972
961.052531,-1554.432478,2072.576638,-10572.117872
961.052851,-2590.720797,-592.164754,-10189.070123
961.053171,-3701.029710,-2072.576638,-10265.679673
961.053491,-3478.967927,-2220.617826,-9959.241474
961.053811,-2886.803174,-296.082377,-10572.117872
961.054131,-2516.700203,1702.473667,-10112.460574
961.054451,296.082377,1258.350101,-10265.679673
961.054771,3404.947333,0.000000,-10725.336972
961.055091,3775.050304,370.102971,-10572.117872
961.055411,0.000000,2442.679609,-11721.261119
961.055731,-1406.391290,3108.864956,-10112.460574
961.056050,222.061783,2146.597232,-10265.679673
961.056370,3849.070898,-222.061783,-10495.508323
961.056690,3478.967927,-3182.885551,-10035.851024
961.057010,0.000000,-3182.885551,-9193.145976
961.057330,-2368.659014,592.164754,-10112.460574
961.057650,-444.123565,962.267725,-9882.631924
961.057970,1998.556043,3849.070898,-9652.803275
961.058290,2590.720797,2812.782580,-10265.679673
961.058610,962.267725,518.144159,-8656.879127
961.058930,296.082377,-1036.288319,-9959.241474
961.059250,2368.659014,-814.226536,-10189.070123
961.059569,3552.988522,1332.370696,-9882.631924
961.059889,3256.906145,1406.391290,-8886.707777
961.060209,3478.967927,1924.535449,-9576.193725
961.060529,814.226536,1850.514855,-9959.241474
961.060849,1480.411884,1776.494261,-10342.289223
961.061169,2220.617826,2072.576638,-10035.851024
961.061489,1554.432478,1258.350101,-10572.117872
961.061809,444.123565,74.020594,-9806.022374
961.062129,0.000000,0.000000,-9959.241474
961.062449,74.020594,-222.061783,-10342.289223
961.062769,1184.329507,814.226536,-10801.946522
961.063088,740.205942,1258.350101,-9959.241474
961.063408,740.205942,2442.679609,-11184.994271
961.063728,962.267725,3108.864956,-10342.289223
961.064048,962.267725,3034.844362,-11414.822920
961.064368,1110.308913,1702.473667,-11031.775171
961.064688,0.000000,-1998.556043,-9269.755526
961.065008,0.000000,-1480.411884,-10035.851024
961.065328,-592.164754,-1776.494261,-9729.412825
961.065648,1554.432478,-518.144159,-9269.755526
961.065968,-1924.535449,666.185348,-9729.412825
961.066288,-1850.514855,1184.329507,-10112.460574
961.066608,-1184.329507,-370.102971,-9422.974625
961.066927,592.164754,592.164754,-10801.946522
961.067247,-2368.659014,0.000000,-9499.584175
961.067567,-3108.864956,148.041188,-9806.022374
961.067887,-1110.308913,370.102971,-10035.851024
961.068207,1850.514855,-740.205942,-9806.022374
961.068527,2368.659014,-1628.453072,-9806.022374
961.068847,2590.720797,0.000000,-9959.241474
961.069167,-4145.153275,0.000000,-9806.022374
961.069487,-3108.864956,222.061783,-9806.022374
961.069807,1776.494261,1480.411884,-10342.289223
961.070127,888.247130,370.102971,-10572.117872
961.070446,-2368.659014,-1776.494261,-9346.365076
961.070766,814.226536,-3256.906145,-10265.679673
961.071086,3108.864956,-2516.700203,-9806.022374
961.071406,2368.659014,-148.041188,-10189.070123
961.071726,0.000000,814.226536,-10265.679673
961.072046,3034.844362,2146.597232,-10801.946522
961.072366,3034.844362,1554.432478,-10725.336972
961.072686,3256.906145,814.226536,-10189.070123
961.073006,2590.720797,-148.041188,-9882.631924
961.073326,1184.329507,148.041188,-10495.508323
961.073646,1998.556043,0.000000,-10725.336972
961.073965,1628.453072,-1332.370696,-10265.679673
961.074285,-1628.453072,-74.020594,-10342.289223
961.074605,-2072.576638,-592.164754,-9882.631924
961.074925,-1184.329507,0.000000,-10035.851024
961.075245,1332.370696,222.061783,-11184.994271
961.075565,3627.009116,0.000000,-11568.042020
961.075885,3182.885551,-1850.514855,-9576.193725
961.076205,814.226536,0.000000,-10495.508323
961.076525,1332.370696,1480.411884,-9806.022374
961.076845,2738.761985,2220.617826,-11031.775171
961.077165,2664.741391,2664.741391,-10955.165621
961.077484,1480.411884,1332.370696,-10495.508323
961.077804,-2368.659014,518.144159,-9806.022374
961.078124,-3923.091493,-74.020594,-10189.070123
961.078444,-2442.679609,518.144159,-9576.193725
961.078764,0.000000,1258.350101,-10495.508323
961.079084,1406.391290,1924.535449,-9882.631924
961.079404,148.041188,0.000000,-9422.974625
961.079724,-1554.432478,-2368.659014,-10648.727422
961.080044,-888.247130,-2886.803174,-9039.926876
961.080364,0.000000,-1332.370696,-9576.193725
961.080684,444.123565,1702.473667,-9882.631924
961.081003,666.185348,1924.535449,-10648.727422
961.081323,-296.082377,1554.432478,-10265.679673
961.081643,-1628.453072,-888.247130,-10189.070123
961.081963,-2146.597232,-1332.370696,-8886.707777
961.082283,74.020594,-962.267725,-9959.241474
961.082603,1850.514855,-370.102971,-10112.460574
961.082923,296.082377,1036.288319,-10342.289223
961.083243,-296.082377,1332.370696,-10801.946522
961.083563,-1110.308913,1628.453072,-9959.241474
961.083883,-518.144159,1332.370696,-10035.851024
961.084203,1332.370696,2220.617826,-10572.117872
961.084523,518.144159,1924.535449,-10955.165621
961.084842,222.061783,2368.659014,-10725.336972
961.085162,-2146.597232,888.247130,-9959.241474
961.085482,-1184.329507,-1332.370696,-9269.755526
961.085802,0.000000,-2368.659014,-10035.851024
961.086122,2368.659014,-1998.556043,-10265.679673
961.086442,5477.523971,-296.082377,-9729.412825
961.086762,5995.668130,2146.597232,-10955.165621
961.087082,5625.565159,3849.070898,-10342.289223
961.087402,2368.659014,3182.885551,-10342.289223
961.087722,1036.288319,2294.638420,-10112.460574
961.088042,444.123565,1110.308913,-10189.070123
961.088361,1628.453072,-1480.411884,-11184.994271
961.088681,2368.659014,-3478.967927,-9806.022374
961.089001,222.061783,-3923.091493,-9729.412825
961.089321,-1480.411884,-1406.391290,-9269.755526
961.089641,-666.185348,296.082377,-10112.460574
961.089961,148.041188,1998.556043,-9806.022374
961.090281,444.123565,2368.659014,-10418.898773
961.090601,370.102971,1924.535449,-10035.851024
961.090921,1998.556043,0.000000,-9806.022374
961.091241,3182.885551,-148.041188,-9959.241474
961.091561,3256.906145,0.000000,-10418.898773
961.091880,-814.226536,666.185348,-9882.631924
961.092200,-1924.535449,1332.370696,-10189.070123
961.092520,-444.123565,1924.535449,-11568.042020
961.092840,-1554.432478,-518.144159,-9652.803275
961.093160,-962.267725,-518.144159,-9959.241474
961.093480,370.102971,-962.267725,-9652.803275
961.093800,2072.576638,-1554.432478,-9806.022374
961.094120,3404.947333,-1776.494261,-10035.851024
961.094440,2072.576638,-518.144159,-9806.022374
961.094760,-222.061783,1480.411884,-10418.898773
961.095079,-1554.432478,3552.988522,-10418.898773
961.095399,-296.082377,4145.153275,-10572.117872
961.095719,-444.123565,3404.947333,-10495.508323
961.096039,-1998.556043,1406.391290,-10725.336972
961.096359,-1702.473667,-1036.288319,-10265.679673
961.096679,-2368.659014,-3404.947333,-9729.412825
961.096999,-1480.411884,-3923.091493,-9806.022374
961.097319,0.000000,-2442.679609,-9422.974625
961.097639,0.000000,-666.185348,-11031.775171
961.097958,1258.350101,2294.638420,-10035.851024
961.098278,3404.947333,4219.173869,-11108.384721
961.098598,1332.370696,4737.318029,-11644.651570
961.098918,-1480.411884,4071.132681,-10572.117872
961.099238,-1850.514855,1702.473667,-10418.898773
961.099558,-888.247130,-1776.494261,-9729.412825
961.099878,1184.329507,-3182.885551,-9116.536426
961.100198,1406.391290,-3923.091493,-9576.193725
961.100518,-666.185348,-2886.803174,-9499.584175
961.100838,814.226536,0.000000,-9269.755526
961.101157,2442.679609,3330.926739,-9729.412825
961.101477,2664.741391,4145.153275,-9959.241474
961.101797,814.226536,3108.864956,-9806.022374
961.102117,1776.494261,370.102971,-9499.584175
961.102437,3182.885551,-3404.947333,-9576.193725
961.102757,3256.906145,-1702.473667,-10189.070123
961.103077,1258.350101,-518.144159,-9959.241474
961.103397,-592.164754,592.164754,-9806.022374
961.103717,962.267725,1776.494261,-9806.022374
961.104036,2738.761985,444.123565,-9882.631924
961.104356,-148.041188,-370.102971,-10112.460574
961.104676,-1480.411884,-592.164754,-9806.022374
961.104996,-518.144159,-592.164754,-10495.508323
961.105316,1036.288319,740.205942,-9959.241474
961.105636,888.247130,814.226536,-10495.508323
961.105956,222.061783,518.144159,-10265.679673
961.106276,-296.082377,518.144159,-10342.289223
961.106596,0.000000,814.226536,-10035.851024
961.106916,3108.864956,2294.638420,-11644.651570
961.107235,2812.782580,2146.597232,-11031.775171
961.107555,1554.432478,962.267725,-10955.165621
961.107875,-666.185348,-592.164754,-9959.241474
961.108195,-1924.535449,-962.267725,-10265.679673
961.108515,-1998.556043,-1036.288319,-10495.508323
961.108835,-3330.926739,370.102971,-10265.679673
961.109155,-814.226536,2812.782580,-11031.775171
961.109475,1110.308913,3256.906145,-10495.508323
961.109795,2368.659014,3330.926739,-10572.117872
961.110114,-888.247130,222.061783,-10112.460574
961.110434,-3404.947333,-2886.803174,-8810.098227
961.110754,-2960.823768,-4219.173869,-9193.145976
961.111074,370.102971,-3701.029710,-8044.002729
961.111394,1406.391290,-962.267725,-9806.022374
961.111714,-222.061783,1850.514855,-9806.022374
961.112034,-148.041188,1850.514855,-9576.193725
961.112354,666.185348,444.123565,-9193.145976
961.112674,1776.494261,-444.123565,-8733.488677
961.112994,888.247130,-1554.432478,-8886.707777
961.113313,-888.247130,-1924.535449,-9576.193725
961.113633,-518.144159,-296.082377,-10112.460574
961.113953,370.102971,0.000000,-9499.584175
961.114273,1480.411884,-296.082377,-9652.803275
961.114593,518.144159,222.061783,-10035.851024
961.114913,1628.453072,296.082377,-10035.851024
961.115233,2960.823768,0.000000,-10725.336972
961.115553,3701.029710,-222.061783,-10495.508323
961.115873,2220.617826,-814.226536,-10035.851024
961.116192,1480.411884,0.000000,-10648.727422
961.116512,2960.823768,2072.576638,-10801.946522
961.116832,2738.761985,3552.988522,-11414.822920
961.117152,2368.659014,4441.235652,-10878.556072
961.117472,740.205942,3552.988522,-11031.775171
961.117792,1184.329507,888.247130,-10648.727422
961.118112,2146.597232,222.061783,-11031.775171
961.118432,1554.432478,-592.164754,-10495.508323
961.118752,814.226536,-444.123565,-9882.631924
961.119072,814.226536,-222.061783,-10112.460574
961.119391,814.226536,1184.329507,-10112.460574
961.119711,444.123565,2812.782580,-11491.432470
961.120031,-222.061783,2664.741391,-10112.460574
961.120351,-444.123565,2146.597232,-9882.631924
961.120671,666.185348,1554.432478,-9576.193725
961.120991,2146.597232,444.123565,-10112.460574
961.121311,1036.288319,222.061783,-9806.022374
961.121631,-2294.638420,222.061783,-9576.193725
961.121951,-2590.720797,-222.061783,-8656.879127
961.122270,-1480.411884,222.061783,-8427.050478
961.122590,-962.267725,74.020594,-9116.536426
961.122910,-1406.391290,-444.123565,-8810.098227
961.123230,-666.185348,-1924.535449,-9116.536426
961.123550,962.267725,-1998.556043,-8810.098227
961.123870,814.226536,-592.164754,-8656.879127
961.124190,1332.370696,2294.638420,-10418.898773
961.124510,-592.164754,3849.070898,-10265.679673
961.124830,-1998.556043,5107.421000,-9806.022374
961.125150,-2146.597232,4589.276840,-10878.556072
961.125469,1036.288319,2072.576638,-9806.022374
961.125789,1628.453072,-1702.473667,-10572.117872
961.126109,-1110.308913,-4367.215058,-10112.460574
961.126429,-1332.370696,-2960.823768,-10189.070123
961.126749,-962.267725,592.164754,-11108.384721
