#time,accel_x,accel_y,accel_z
963.506969,888.247130,0.000000,-10035.851024
963.507289,666.185348,148.041188,-10112.460574
963.507609,370.102971,666.185348,-10035.851024
963.507929,222.061783,370.102971,-10112.460574
963.508249,444.123565,296.082377,-10112.460574
963.508569,370.102971,222.061783,-10265.679673
963.508889,592.164754,74.020594,-10035.851024
963.509209,666.185348,0.000000,-9959.241474
963.509529,888.247130,0.000000,-9959.241474
963.509850,592.164754,222.061783,-9499.584175
963.510170,444.123565,148.041188,-10112.460574
963.510490,740.205942,296.082377,-10112.460574
963.510810,666.185348,296.082377,-9882.631924
963.511130,296.082377,370.102971,-9116.536426
963.511450,-74.020594,0.000000,-10035.851024
963.511770,0.000000,-222.061783,-10112.460574
963.512090,666.185348,0.000000,-10189.070123
963.512410,74.020594,370.102971,-10112.460574
963.512730,74.020594,74.020594,-9959.241474
963.513050,592.164754,444.123565,-9959.241474
963.513370,1332.370696,296.082377,-10189.070123
963.513690,814.226536,296.082377,-10189.070123
963.514010,370.102971,0.000000,-10112.460574
963.514330,-148.041188,-370.102971,-10035.851024
963.514651,148.041188,-370.102971,-9806.022374
963.514971,0.000000,0.000000,-10035.851024
963.515291,-888.247130,-222.061783,-9806.022374
963.515611,-888.247130,-444.123565,-10035.851024
963.515931,-222.061783,-592.164754,-10189.070123
963.516251,0.000000,-518.144159,-9806.022374
963.516571,-518.144159,-222.061783,-9882.631924
963.516891,-296.082377,-370.102971,-9729.412825
963.517211,74.020594,-666.185348,-9882.631924
963.517531,0.000000,-888.247130,-9806.022374
963.517851,-1036.288319,-1406.391290,-10035.851024
963.518171,-1036.288319,-1554.432478,-8580.269578
963.518491,-592.164754,-1998.556043,-10035.851024
963.518811,-1036.288319,-1628.453072,-9499.584175
963.519131,-1924.535449,-2220.617826,-9806.022374
963.519452,-1924.535449,-2368.659014,-9729.412825
963.519772,-666.185348,-2812.782580,-9806.022374
963.520092,-740.205942,-1702.473667,-10112.460574
963.520412,-962.267725,-1480.411884,-9806.022374
963.520732,-1554.432478,-1554.432478,-9959.241474
963.521052,-592.164754,-1554.432478,-9882.631924
963.521372,222.061783,-1850.514855,-9959.241474
963.521692,-814.226536,-1702.473667,-10035.851024
963.522012,-2146.597232,-2146.597232,-10342.289223
963.522332,-2812.782580,-2664.741391,-9959.241474
963.522652,-2146.597232,-2886.803174,-9959.241474
963.522972,-2368.659014,-3034.844362,-10189.070123
963.523292,-1998.556043,-3034.844362,-9882.631924
963.523612,-2590.720797,-3330.926739,-9959.241474
963.523932,-2368.659014,-2886.803174,-9959.241474
963.524252,0.000000,-2220.617826,-10265.679673
963.524573,1184.329507,-1184.329507,-10572.117872
963.524893,666.185348,-888.247130,-10801.946522
963.525213,-1110.308913,-518.144159,-10495.508323
963.525533,-1850.514855,-1480.411884,-10265.679673
963.525853,-3256.906145,-2590.720797,-10265.679673
963.526173,-4663.297435,-3552.988522,-9882.631924
963.526493,-5551.544565,-4737.318029,-9652.803275
963.526813,-4219.173869,-4737.318029,-8963.317327
963.527133,-1850.514855,-4885.359217,-9729.412825
963.527453,296.082377,-3849.070898,-9882.631924
963.527773,814.226536,-1924.535449,-10265.679673
963.528093,666.185348,444.123565,-10801.946522
963.528413,1924.535449,888.247130,-10342.289223
963.528733,2294.638420,1776.494261,-10572.117872
963.529053,1554.432478,592.164754,-10495.508323
963.529374,-666.185348,-1036.288319,-10112.460574
963.529694,-2146.597232,-2664.741391,-10035.851024
963.530014,-3923.091493,-3552.988522,-10112.460574
963.530334,-5403.503377,-3849.070898,-9346.365076
963.530654,-5699.585753,-4367.215058,-9576.193725
963.530974,-3997.112087,-4737.318029,-9346.365076
963.531294,-518.144159,-4737.318029,-9806.022374
963.531614,1480.411884,-3034.844362,-9576.193725
963.531934,2886.803174,-592.164754,-10189.070123
963.532254,3627.009116,2294.638420,-10342.289223
963.532574,4367.215058,3849.070898,-9882.631924
963.532894,3108.864956,3552.988522,-11414.822920
963.533214,-592.164754,2294.638420,-10878.556072
963.533534,-4737.318029,-740.205942,-10189.070123
963.533854,-6217.729913,-3997.112087,-9729.412825
963.534175,-5551.544565,-6291.750507,-9422.974625
963.534495,-3997.112087,-7031.956449,-9576.193725
963.534815,-3330.926739,-6217.729913,-9346.365076
963.535135,-2146.597232,-3182.885551,-9422.974625
963.535455,296.082377,740.205942,-10112.460574
963.535775,2072.576638,3552.988522,-10801.946522
963.536095,2294.638420,4589.276840,-10572.117872
963.536415,2442.679609,3404.947333,-10418.898773
963.536735,2664.741391,1036.288319,-11338.213370
963.537055,1110.308913,-888.247130,-10418.898773
963.537375,-2294.638420,-2146.597232,-10189.070123
963.537695,-4737.318029,-2442.679609,-9806.022374
963.538015,-5403.503377,-2294.638420,-9882.631924
963.538335,-6439.791695,-3256.906145,-9422.974625
963.538655,-6957.935855,-4515.256246,-9116.536426
963.538976,-5181.441594,-5107.421000,-9039.926876
963.539296,-1480.411884,-5033.400406,-9806.022374
963.539616,3108.864956,-2886.803174,-9806.022374
963.539936,4663.297435,740.205942,-10189.070123
963.540256,3108.864956,3182.885551,-10418.898773
963.540576,1332.370696,4367.215058,-10495.508323
963.540896,1332.370696,2960.823768,-10418.898773
963.541216,740.205942,222.061783,-10112.460574
963.541536,-1850.514855,-2886.803174,-10189.070123
963.541856,-4959.379811,-5181.441594,-9959.241474
963.542176,-7550.100608,-5699.585753,-9652.803275
963.542496,-9030.512492,-4367.215058,-8733.488677
963.542816,-7846.182985,-3552.988522,-8963.317327
963.543136,-3923.091493,-4219.173869,-9499.584175
963.543456,370.102971,-4811.338623,-10035.851024
963.543777,3330.926739,-3478.967927,-11338.213370
963.544097,3182.885551,-1480.411884,-10725.336972
963.544417,2886.803174,1776.494261,-10725.336972
963.544737,4145.153275,3849.070898,-10878.556072
963.545057,3997.112087,3923.091493,-11108.384721
963.545377,1332.370696,962.267725,-11184.994271
963.545697,-3478.967927,-2220.617826,-10495.508323
963.546017,-6735.874072,-5107.421000,-9959.241474
963.546337,-7328.038826,-7698.141797,-9499.584175
963.546657,-6069.688724,-9252.574275,-9039.926876
963.546977,-5329.482782,-9548.656652,-8886.707777
963.547297,-4589.276840,-8142.265362,-9116.536426
963.547617,-2516.700203,-4811.338623,-9116.536426
963.547937,888.247130,-1184.329507,-9729.412825
963.548257,4737.318029,2146.597232,-10572.117872
963.548578,5921.647536,3775.050304,-10801.946522
963.548898,3404.947333,1998.556043,-10955.165621
963.549218,370.102971,0.000000,-9959.241474
963.549538,-1406.391290,-2590.720797,-9806.022374
963.549858,-2368.659014,-4219.173869,-9882.631924
963.550178,-4071.132681,-5699.585753,-10189.070123
963.550498,-6735.874072,-6809.894666,-9116.536426
963.550818,-7179.997637,-7624.121203,-8963.317327
963.551138,-4441.235652,-6587.832884,-9422.974625
963.551458,-1776.494261,-4663.297435,-9882.631924
963.551778,-74.020594,-1628.453072,-10572.117872
963.552098,-962.267725,148.041188,-10189.070123
963.552418,-148.041188,1924.535449,-9882.631924
963.552738,3478.967927,1776.494261,-10648.727422
963.553058,3923.091493,814.226536,-10955.165621
963.553379,1554.432478,-148.041188,-10801.946522
963.553699,-2220.617826,-2220.617826,-10342.289223
963.554019,-4589.276840,-3108.864956,-10189.070123
963.554339,-4811.338623,-4441.235652,-10112.460574
963.554659,-5921.647536,-4219.173869,-9806.022374
963.554979,-4959.379811,-3923.091493,-10035.851024
963.555299,-3478.967927,-2812.782580,-9806.022374
963.555619,-1406.391290,-1924.535449,-9729.412825
963.555939,666.185348,-1184.329507,-9959.241474
963.556259,2738.761985,-296.082377,-10265.679673
963.556579,3775.050304,222.061783,-10418.898773
963.556899,1924.535449,1110.308913,-10572.117872
963.557219,222.061783,1332.370696,-9959.241474
963.557539,148.041188,370.102971,-9959.241474
963.557859,666.185348,0.000000,-10418.898773
963.558180,-1628.453072,-888.247130,-9422.974625
963.558500,-4145.153275,-3404.947333,-9806.022374
963.558820,-5403.503377,-3478.967927,-9806.022374
963.559140,-4959.379811,-3552.988522,-9806.022374
963.559460,-3404.947333,-3182.885551,-9806.022374
963.559780,-2368.659014,-2368.659014,-8963.317327
963.560100,-666.185348,-1406.391290,-9806.022374
963.560420,1554.432478,-740.205942,-10112.460574
963.560740,4145.153275,222.061783,-10418.898773
963.561060,3256.906145,2368.659014,-10342.289223
963.561380,1702.473667,2220.617826,-10878.556072
963.561700,-592.164754,1480.411884,-10418.898773
963.562020,-444.123565,-592.164754,-10265.679673
963.562340,-2590.720797,-2812.782580,-9882.631924
963.562660,-2072.576638,-4441.235652,-10495.508323
963.562980,-3997.112087,-4811.338623,-10112.460574
963.563300,-5921.647536,-3478.967927,-9729.412825
963.563620,-6143.709319,-1850.514855,-9346.365076
963.563940,-1998.556043,-1110.308913,-9346.365076
963.564260,444.123565,-1110.308913,-9806.022374
963.564580,296.082377,0.000000,-10801.946522
963.564900,518.144159,-222.061783,-10418.898773
963.565219,1406.391290,888.247130,-10112.460574
963.565539,1406.391290,1036.288319,-10265.679673
963.565859,518.144159,518.144159,-10035.851024
963.566179,0.000000,-2146.597232,-10035.851024
963.566499,-1628.453072,-4219.173869,-9652.803275
963.566819,-1924.535449,-5995.668130,-9806.022374
963.567139,-3256.906145,-5181.441594,-9652.803275
963.567459,-5625.565159,-4145.153275,-9116.536426
963.567779,-5107.421000,-3552.988522,-9652.803275
963.568098,-888.247130,-3923.091493,-9116.536426
963.568418,1258.350101,-3775.050304,-9729.412825
963.568738,0.000000,-2516.700203,-10265.679673
963.569058,-2294.638420,-518.144159,-9959.241474
963.569378,-1258.350101,888.247130,-10648.727422
963.569698,518.144159,2146.597232,-10265.679673
963.570018,518.144159,-666.185348,-10648.727422
963.570338,296.082377,-2812.782580,-10265.679673
963.570658,-2072.576638,-4071.132681,-10189.070123
963.570978,-5033.400406,-4071.132681,-9116.536426
963.571297,-6143.709319,-4071.132681,-10189.070123
963.571617,-5033.400406,-5107.421000,-9882.631924
963.571937,-1776.494261,-5033.400406,-9959.241474
963.572257,1258.350101,-2442.679609,-10189.070123
963.572577,-740.205942,-518.144159,-10878.556072
963.572897,-1924.535449,592.164754,-11338.213370
963.573217,-1850.514855,592.164754,-10648.727422
963.573537,370.102971,-1924.535449,-10035.851024
963.573857,888.247130,-2960.823768,-10878.556072
963.574176,-1036.288319,-4071.132681,-10801.946522
963.574496,-3034.844362,-4589.276840,-10342.289223
963.574816,-4367.215058,-3108.864956,-9806.022374
963.575136,-3627.009116,-1776.494261,-9269.755526
963.575456,-2516.700203,-2146.597232,-9806.022374
963.575776,-1998.556043,-3256.906145,-9959.241474
963.576096,-1924.535449,-4737.318029,-9806.022374
963.576416,-1924.535449,-3775.050304,-9959.241474
963.576736,-592.164754,-2886.803174,-9576.193725
963.577056,1036.288319,-2220.617826,-9806.022374
963.577375,592.164754,-1776.494261,-9806.022374
963.577695,-444.123565,-1184.329507,-9959.241474
963.578015,-2220.617826,-1184.329507,-9652.803275
963.578335,-2294.638420,-1998.556043,-9806.022374
963.578655,-888.247130,-2146.597232,-9729.412825
963.578975,-1850.514855,-1850.514855,-10265.679673
963.579295,-3404.947333,-1850.514855,-9959.241474
963.579615,-2072.576638,-4293.194464,-10112.460574
963.579935,-1628.453072,-4811.338623,-9959.241474
963.580254,-222.061783,-1406.391290,-10725.336972
963.580574,148.041188,0.000000,-10648.727422
963.580894,2442.679609,1480.411884,-10189.070123
963.581214,3627.009116,3330.926739,-10725.336972
963.581534,2294.638420,3775.050304,-10955.165621
963.581854,2146.597232,1036.288319,-11261.603821
963.582174,4293.194464,-1924.535449,-10648.727422
963.582494,1036.288319,-3182.885551,-9882.631924
963.582814,-2294.638420,-4071.132681,-9193.145976
963.583133,-3627.009116,-2294.638420,-9806.022374
963.583453,-4959.379811,-740.205942,-10035.851024
963.583773,-3552.988522,-1628.453072,-10955.165621
963.584093,-962.267725,-888.247130,-9576.193725
963.584413,370.102971,-2220.617826,-9652.803275
963.584733,3627.009116,-2368.659014,-9729.412825
963.585053,2664.741391,-1110.308913,-9806.022374
963.585373,888.247130,370.102971,-10418.898773
963.585693,0.000000,962.267725,-9193.145976
963.586013,-814.226536,74.020594,-10648.727422
963.586332,296.082377,-592.164754,-9729.412825
963.586652,1554.432478,370.102971,-9806.022374
963.586972,-666.185348,3552.988522,-10189.070123
963.587292,-2368.659014,2516.700203,-10955.165621
963.587612,148.041188,444.123565,-10112.460574
963.587932,444.123565,962.267725,-10495.508323
963.588252,592.164754,-1110.308913,-10189.070123
963.588572,-1406.391290,740.205942,-10112.460574
963.588892,-1628.453072,0.000000,-10495.508323
963.589211,-2368.659014,2812.782580,-9806.022374
963.589531,-370.102971,5255.462188,-11721.261119
963.589851,1850.514855,3478.967927,-10572.117872
963.590171,2442.679609,-814.226536,-10265.679673
963.590491,666.185348,-2294.638420,-10265.679673
963.590811,74.020594,-222.061783,-9806.022374
963.591131,0.000000,1776.494261,-10495.508323
963.591451,2220.617826,2590.720797,-9882.631924
963.591771,-1036.288319,1554.432478,-10035.851024
963.592090,-1184.329507,1036.288319,-9882.631924
963.592410,-1258.350101,962.267725,-9959.241474
963.592730,1406.391290,-1110.308913,-10189.070123
963.593050,2738.761985,-1036.288319,-9882.631924
963.593370,3552.988522,0.000000,-9346.365076
963.593690,4293.194464,-1406.391290,-9269.755526
963.594010,1332.370696,-148.041188,-9346.365076
963.594330,1332.370696,0.000000,-9882.631924
963.594650,0.000000,1332.370696,-9959.241474
963.594970,2664.741391,666.185348,-9193.145976
963.595289,5551.544565,1702.473667,-10112.460574
963.595609,5329.482782,3552.988522,-10648.727422
963.595929,2368.659014,3775.050304,-11031.775171
963.596249,740.205942,1702.473667,-10801.946522
963.596569,-592.164754,1332.370696,-9116.536426
963.596889,-1776.494261,-1776.494261,-9729.412825
963.597209,-2146.597232,-2442.679609,-8963.317327
963.597529,-962.267725,-1998.556043,-9959.241474
963.597849,444.123565,0.000000,-10265.679673
963.598168,1776.494261,0.000000,-10878.556072
963.598488,1998.556043,1184.329507,-10342.289223
963.598808,-1258.350101,0.000000,-9959.241474
963.599128,148.041188,-74.020594,-9882.631924
963.599448,666.185348,444.123565,-10955.165621
963.599768,222.061783,-1480.411884,-11031.775171
963.600088,0.000000,-148.041188,-9652.803275
963.600408,-518.144159,-2146.597232,-10955.165621
963.600728,1554.432478,-2294.638420,-8350.440928
963.601047,370.102971,-2368.659014,-10801.946522
963.601367,-1628.453072,-148.041188,-10572.117872
963.601687,-4441.235652,518.144159,-10265.679673
963.602007,-2960.823768,1036.288319,-10801.946522
963.602327,-370.102971,666.185348,-10112.460574
963.602647,-666.185348,-2368.659014,-10035.851024
963.602967,-1406.391290,-1554.432478,-9576.193725
963.603287,-444.123565,-1332.370696,-10495.508323
963.603607,1258.350101,814.226536,-10801.946522
963.603927,1850.514855,2146.597232,-11261.603821
963.604246,0.000000,1998.556043,-9806.022374
963.604566,-2516.700203,592.164754,-10189.070123
963.604886,-2886.803174,-1702.473667,-9806.022374
963.605206,-2738.761985,-3330.926739,-9269.755526
963.605526,-444.123565,-2294.638420,-9422.974625
963.605846,814.226536,-1036.288319,-10112.460574
963.606166,1258.350101,-592.164754,-10035.851024
963.606486,-666.185348,-518.144159,-9422.974625
963.606806,-740.205942,-1258.350101,-9193.145976
963.607125,1998.556043,370.102971,-9806.022374
963.607445,4441.235652,74.020594,-10648.727422
963.607765,2516.700203,-370.102971,-10265.679673
963.608085,592.164754,-1406.391290,-9959.241474
963.608405,1036.288319,-962.267725,-9882.631924
963.608725,1776.494261,1110.308913,-9959.241474
963.609045,1776.494261,2442.679609,-10955.165621
963.609365,370.102971,1776.494261,-11031.775171
963.609685,-148.041188,-740.205942,-9729.412825
963.610005,222.061783,-2072.576638,-10035.851024
963.610324,1924.535449,-2072.576638,-9806.022374
963.610644,1924.535449,-1332.370696,-10572.117872
963.610964,1554.432478,740.205942,-11031.775171
963.611284,2220.617826,3108.864956,-10342.289223
963.611604,3552.988522,3775.050304,-11031.775171
963.611924,4811.338623,3701.029710,-11184.994271
963.612244,3478.967927,2368.659014,-10189.070123
963.612564,4071.132681,-296.082377,-10189.070123
963.612884,2442.679609,-592.164754,-10342.289223
963.613203,-1110.308913,-740.205942,-9806.022374
963.613523,-2960.823768,296.082377,-10955.165621
963.613843,-2960.823768,-962.267725,-8886.707777
963.614163,1776.494261,74.020594,-9959.241474
963.614483,2960.823768,-666.185348,-10725.336972
963.614803,-296.082377,-2294.638420,-10265.679673
963.615123,-1628.453072,-2516.700203,-9422.974625
963.615443,-222.061783,222.061783,-9116.536426
963.615763,2294.638420,5699.585753,-10495.508323
963.616082,1554.432478,5921.647536,-11797.870669
963.616402,666.185348,6957.935855,-10725.336972
963.616722,1258.350101,5255.462188,-10265.679673
963.617042,1480.411884,4811.338623,-9882.631924
963.617362,-740.205942,4589.276840,-10801.946522
963.617682,-4219.173869,3108.864956,-9422.974625
963.618002,-4589.276840,-1110.308913,-9269.755526
963.618322,-1480.411884,-3923.091493,-9193.145976
963.618642,444.123565,-5329.482782,-9116.536426
963.618962,-2072.576638,-3701.029710,-8656.879127
963.619281,-2960.823768,-370.102971,-8427.050478
963.619601,444.123565,3330.926739,-9729.412825
963.619921,3849.070898,5107.421000,-10189.070123
963.620241,3478.967927,2812.782580,-10801.946522
963.620561,1776.494261,222.061783,-9959.241474
963.620881,-444.123565,-1480.411884,-9422.974625
963.621201,2072.576638,-370.102971,-9346.365076
963.621521,2516.700203,444.123565,-10265.679673
963.621841,222.061783,592.164754,-9882.631924
963.622160,-1184.329507,888.247130,-10342.289223
963.622480,-2664.741391,-1406.391290,-9806.022374
963.622800,-2146.597232,-2664.741391,-9499.584175
963.623120,-1332.370696,-740.205942,-9652.803275
963.623440,-1554.432478,2738.761985,-9499.584175
963.623760,1184.329507,3478.967927,-10801.946522
963.624080,6365.771101,2590.720797,-10189.070123
963.624400,4959.379811,-370.102971,-10572.117872
963.624720,1628.453072,-666.185348,-10035.851024
963.625039,1924.535449,-666.185348,-9116.536426
963.625359,5033.400406,1776.494261,-10801.946522
963.625679,4811.338623,2738.761985,-10572.117872
963.625999,2072.576638,1776.494261,-10801.946522
963.626319,-962.267725,-592.164754,-10035.851024
963.626639,-1110.308913,-3034.844362,-9346.365076
963.626959,222.061783,-3256.906145,-9959.241474
963.627279,1480.411884,-888.247130,-10955.165621
963.627599,-1258.350101,1924.535449,-10265.679673
963.627919,-1998.556043,888.247130,-11338.213370
963.628238,-444.123565,-1332.370696,-10265.679673
963.628558,-296.082377,-1480.411884,-10801.946522
963.628878,1702.473667,-1184.329507,-9882.631924
963.629198,2516.700203,814.226536,-10878.556072
963.629518,4515.256246,148.041188,-11108.384721
963.629838,3330.926739,370.102971,-11108.384721
963.630158,-814.226536,-370.102971,-10418.898773
963.630478,-5033.400406,-962.267725,-8580.269578
963.630798,-1406.391290,-148.041188,-10265.679673
963.631117,1332.370696,1702.473667,-9882.631924
963.631437,1850.514855,1850.514855,-10725.336972
963.631757,1998.556043,1110.308913,-9652.803275
963.632077,-222.061783,-1332.370696,-8656.879127
963.632397,814.226536,-2664.741391,-9806.022374
963.632717,518.144159,-2146.597232,-9269.755526
963.633037,-1480.411884,-222.061783,-9193.145976
963.633357,-1480.411884,1332.370696,-9729.412825
963.633677,-666.185348,1332.370696,-9729.412825
963.633996,-1850.514855,74.020594,-9806.022374
963.634316,-2812.782580,-444.123565,-9729.412825
963.634636,-1184.329507,0.000000,-9346.365076
963.634956,148.041188,888.247130,-9882.631924
963.635276,2886.803174,814.226536,-10342.289223
963.635596,592.164754,666.185348,-10418.898773
963.635916,-814.226536,74.020594,-9729.412825
963.636236,-888.247130,0.000000,-10725.336972
963.636556,592.164754,518.144159,-9499.584175
963.636876,-1036.288319,888.247130,-10495.508323
963.637195,1258.350101,1184.329507,-10572.117872
963.637515,2812.782580,814.226536,-10265.679673
963.637835,1776.494261,0.000000,-10648.727422
963.638155,1332.370696,962.267725,-10342.289223
963.638475,74.020594,370.102971,-10418.898773
963.638795,888.247130,1702.473667,-10112.460574
963.639115,740.205942,3552.988522,-10801.946522
963.639435,444.123565,2146.597232,-9806.022374
963.639755,74.020594,666.185348,-10189.070123
963.640074,1332.370696,0.000000,-10112.460574
963.640394,1776.494261,444.123565,-9576.193725
963.640714,3256.906145,370.102971,-9499.584175
963.641034,592.164754,-962.267725,-8810.098227
963.641354,-1036.288319,-1110.308913,-9729.412825
963.641674,-814.226536,-814.226536,-9576.193725
963.641994,0.000000,518.144159,-9422.974625
963.642314,-296.082377,1258.350101,-9729.412825
963.642634,1184.329507,2220.617826,-10189.070123
963.642954,1998.556043,888.247130,-9806.022374
963.643273,3108.864956,-666.185348,-10035.851024
963.643593,1850.514855,-666.185348,-9652.803275
963.643913,148.041188,-740.205942,-10418.898773
963.644233,-1406.391290,0.000000,-10265.679673
963.644553,-1776.494261,1406.391290,-9576.193725
963.644873,-1628.453072,3108.864956,-11491.432470
963.645193,-1258.350101,4145.153275,-11491.432470
963.645513,-666.185348,3256.906145,-11338.213370
963.645833,1702.473667,2368.659014,-10725.336972
963.646152,1480.411884,2368.659014,-10648.727422
963.646472,3182.885551,1776.494261,-11031.775171
963.646792,2072.576638,2294.638420,-10418.898773
963.647112,444.123565,1258.350101,-10265.679673
963.647432,1184.329507,962.267725,-11108.384721
963.647752,2738.761985,222.061783,-10955.165621
963.648072,2072.576638,0.000000,-10189.070123
963.648392,1258.350101,740.205942,-10572.117872
963.648712,0.000000,3256.906145,-9959.241474
963.649031,-1184.329507,3182.885551,-10495.508323
963.649351,370.102971,1776.494261,-10035.851024
963.649671,-1110.308913,-296.082377,-8886.707777
963.649991,148.041188,-4441.235652,-8810.098227
963.650311,1406.391290,-5107.421000,-9116.536426
963.650631,1998.556043,-5921.647536,-8886.707777
963.650951,3182.885551,-1776.494261,-8656.879127
963.651271,5181.441594,740.205942,-9652.803275
963.651591,5403.503377,3552.988522,-8427.050478
963.651911,5033.400406,5625.565159,-10189.070123
963.652230,3256.906145,4811.338623,-9959.241474
963.652550,1258.350101,2220.617826,-9729.412825
963.652870,1480.411884,-1998.556043,-9959.241474
963.653190,-740.205942,-5107.421000,-8810.098227
963.653510,-1258.350101,-5255.462188,-8656.879127
963.653830,-2072.576638,-1998.556043,-9422.974625
963.654150,-2220.617826,962.267725,-9959.241474
963.654470,-1184.329507,3923.091493,-10572.117872
963.654790,-222.061783,3256.906145,-11261.603821
963.655109,0.000000,2368.659014,-10189.070123
963.655429,0.000000,1184.329507,-11797.870669
963.655749,1406.391290,1332.370696,-11184.994271
963.656069,-370.102971,1406.391290,-11338.213370
963.656389,-1628.453072,-296.082377,-10955.165621
963.656709,0.000000,370.102971,-10189.070123
963.657029,-814.226536,1184.329507,-11721.261119
963.657349,-148.041188,1776.494261,-10955.165621
963.657669,962.267725,1850.514855,-11031.775171
963.657988,74.020594,666.185348,-11797.870669
963.658308,-962.267725,-2590.720797,-10035.851024
963.658628,-1998.556043,-1110.308913,-10112.460574
963.658948,-4441.235652,1702.473667,-10495.508323
963.659268,-2812.782580,3404.947333,-10572.117872
963.659588,962.267725,3849.070898,-11261.603821
963.659908,2812.782580,2368.659014,-9422.974625
963.660228,2812.782580,1036.288319,-10189.070123
963.660548,0.000000,-3256.906145,-9116.536426
963.660868,-740.205942,-4811.338623,-9039.926876
963.661187,-2146.597232,-3478.967927,-8503.660028
963.661507,-3404.947333,1036.288319,-9039.926876
963.661827,-1406.391290,3775.050304,-9116.536426
963.662147,2072.576638,2664.741391,-9652.803275
963.662467,1776.494261,814.226536,-9729.412825
963.662787,740.205942,-2072.576638,-9422.974625
963.663107,-1184.329507,-3478.967927,-8963.317327
963.663427,-814.226536,-2368.659014,-8350.440928
963.663747,4219.173869,0.000000,-10189.070123
963.664067,7476.080014,1628.453072,-10112.460574
963.664387,5625.565159,2220.617826,-9959.241474
963.664707,1554.432478,3478.967927,-10878.556072
963.665027,-1184.329507,3182.885551,-10801.946522
963.665347,-962.267725,2368.659014,-10648.727422
963.665667,1110.308913,-1258.350101,-10265.679673
963.665986,3256.906145,-3552.988522,-9959.241474
963.666306,3552.988522,-4441.235652,-9652.803275
963.666626,2072.576638,-1110.308913,-11261.603821
963.666946,962.267725,1702.473667,-11491.432470
963.667266,444.123565,4293.194464,-11108.384721
963.667586,962.267725,6513.812290,-11644.651570
963.667906,3256.906145,4145.153275,-10725.336972
963.668226,3108.864956,888.247130,-11031.775171
963.668546,4219.173869,-1776.494261,-10801.946522
963.668866,1332.370696,-4145.153275,-9346.365076
963.669186,1406.391290,-3478.967927,-10342.289223
963.669506,1332.370696,-1258.350101,-9652.803275
963.669826,888.247130,740.205942,-9729.412825
963.670146,0.000000,2294.638420,-10342.289223
963.670466,-1998.556043,3256.906145,-9959.241474
963.670786,-2960.823768,1702.473667,-9576.193725
963.671106,-1924.535449,-962.267725,-9806.022374
963.671426,-444.123565,-2368.659014,-8656.879127
963.671745,296.082377,-1406.391290,-9576.193725
963.672065,-1776.494261,-1406.391290,-9499.584175
963.672385,-814.226536,-666.185348,-9346.365076
963.672705,-1184.329507,-1480.411884,-9652.803275
963.673025,-2960.823768,1702.473667,-9269.755526
963.673345,-2368.659014,3182.885551,-10342.289223
963.673665,-1480.411884,2220.617826,-10265.679673
963.673985,-518.144159,74.020594,-9882.631924
963.674305,74.020594,-222.061783,-10572.117872
963.674625,-1258.350101,-666.185348,-9882.631924
963.674945,-2072.576638,-592.164754,-11261.603821
963.675265,-518.144159,0.000000,-10572.117872
963.675585,1110.308913,2442.679609,-10189.070123
963.675905,0.000000,4441.235652,-11721.261119
963.676225,-2220.617826,4071.132681,-11721.261119
963.676545,-3034.844362,2738.761985,-11108.384721
963.676865,1036.288319,0.000000,-10418.898773
963.677184,2738.761985,-1480.411884,-10725.336972
963.677504,2738.761985,-1258.350101,-10648.727422
963.677824,2146.597232,1258.350101,-11874.480219
963.678144,74.020594,3478.967927,-10878.556072
963.678464,2442.679609,5107.421000,-10878.556072
963.678784,2664.741391,4219.173869,-10648.727422
963.679104,3034.844362,1184.329507,-9116.536426
963.679424,2368.659014,-2812.782580,-9652.803275
963.679744,3108.864956,-5773.606348,-9346.365076
963.680064,2664.741391,-4071.132681,-9652.803275
963.680384,2294.638420,-1036.288319,-9422.974625
963.680704,1406.391290,888.247130,-8886.707777
963.681024,370.102971,2368.659014,-9806.022374
963.681344,296.082377,3182.885551,-9116.536426
963.681664,-592.164754,1258.350101,-9193.145976
963.681984,222.061783,-1036.288319,-9346.365076
963.682304,3775.050304,-2516.700203,-9116.536426
963.682623,5773.606348,-3478.967927,-8503.660028
963.682943,5773.606348,-2960.823768,-8886.707777
963.683263,3330.926739,-1924.535449,-9116.536426
963.683583,1480.411884,296.082377,-9806.022374
963.683903,-1924.535449,2886.803174,-10189.070123
963.684223,-3701.029710,3256.906145,-9806.022374
963.684543,-2146.597232,1850.514855,-10495.508323
963.684863,-518.144159,-2886.803174,-9499.584175
963.685183,814.226536,-5329.482782,-10189.070123
963.685503,-518.144159,-3404.947333,-10572.117872
963.685823,-1184.329507,370.102971,-11031.775171
963.686143,0.000000,5255.462188,-12257.527968
963.686463,444.123565,7179.997637,-12257.527968
963.686783,-1184.329507,4145.153275,-11644.651570
963.687103,-2738.761985,148.041188,-10878.556072
963.687423,-2516.700203,-2812.782580,-10725.336972
963.687743,-2294.638420,-2294.638420,-11568.042020
963.688062,-1776.494261,-666.185348,-11414.822920
963.688382,-2738.761985,1406.391290,-11031.775171
963.688702,-4071.132681,1554.432478,-10495.508323
963.689022,-2072.576638,518.144159,-9959.241474
963.689342,-814.226536,148.041188,-9959.241474
963.689662,1110.308913,666.185348,-10725.336972
963.689982,2368.659014,666.185348,-9806.022374
963.690302,1628.453072,-962.267725,-8733.488677
963.690622,2294.638420,-1776.494261,-9269.755526
963.690942,2738.761985,-1850.514855,-9346.365076
963.691262,1702.473667,1184.329507,-8963.317327
963.691582,1406.391290,2738.761985,-9193.145976
963.691902,1480.411884,2516.700203,-9422.974625
963.692222,-1184.329507,0.000000,-9193.145976
963.692542,-3552.988522,-3627.009116,-7890.783629
963.692862,-2664.741391,-5699.585753,-7431.126331
963.693182,666.185348,-3775.050304,-8886.707777
963.693501,3775.050304,-1036.288319,-9652.803275
963.693821,4145.153275,2072.576638,-9652.803275
963.694141,2516.700203,3923.091493,-9729.412825
963.694461,3330.926739,2886.803174,-9882.631924
963.694781,4367.215058,814.226536,-10955.165621
963.695101,3627.009116,296.082377,-11108.384721
963.695421,3775.050304,-296.082377,-10495.508323
963.695741,2516.700203,1110.308913,-11031.775171
963.696061,3627.009116,1332.370696,-11108.384721
963.696381,3034.844362,740.205942,-10725.336972
963.696701,74.020594,1184.329507,-11184.994271
963.697021,-1110.308913,814.226536,-11031.775171
963.697341,888.247130,1036.288319,-11338.213370
963.697661,962.267725,2368.659014,-11184.994271
963.697981,-148.041188,1184.329507,-11644.651570
963.698301,-1036.288319,-814.226536,-9882.631924
963.698621,1406.391290,-1406.391290,-10495.508323
963.698940,1036.288319,-370.102971,-10035.851024
963.699260,-296.082377,2886.803174,-10801.946522
963.699580,-1776.494261,3923.091493,-10801.946522
963.699900,-962.267725,4293.194464,-10265.679673
963.700220,592.164754,1998.556043,-10035.851024
963.700540,222.061783,-592.164754,-8273.831378
963.700860,-1184.329507,-2072.576638,-9422.974625
963.701180,-1332.370696,-3182.885551,-8733.488677
963.701500,-296.082377,592.164754,-9422.974625
963.701820,-1036.288319,1776.494261,-8656.879127
963.702140,-4219.173869,2960.823768,-10112.460574
963.702460,-5773.606348,-962.267725,-8580.269578
963.702780,-444.123565,-2368.659014,-9269.755526
963.703100,740.205942,-1776.494261,-9959.241474
963.703420,1702.473667,-2146.597232,-9039.926876
963.703740,-2442.679609,962.267725,-10265.679673
963.704060,-888.247130,2590.720797,-9729.412825
963.704379,-222.061783,3404.947333,-10189.070123
963.704699,1406.391290,1850.514855,-9882.631924
963.705019,-1184.329507,1332.370696,-10035.851024
963.705339,-2442.679609,-296.082377,-10265.679673
963.705659,-518.144159,-2664.741391,-9959.241474
963.705979,3923.091493,-2368.659014,-10035.851024
963.706299,4367.215058,-1184.329507,-11184.994271
963.706619,1702.473667,814.226536,-10648.727422
963.706939,-1554.432478,3849.070898,-11184.994271
963.707259,666.185348,3775.050304,-10878.556072
963.707579,2812.782580,2664.741391,-10572.117872
963.707899,4589.276840,592.164754,-11031.775171
963.708219,3923.091493,0.000000,-9959.241474
963.708539,3256.906145,0.000000,-10725.336972
963.708859,2516.700203,74.020594,-10189.070123
963.709179,2368.659014,0.000000,-10342.289223
963.709499,1332.370696,888.247130,-9652.803275
963.709819,0.000000,1110.308913,-10189.070123
963.710138,444.123565,370.102971,-9959.241474
963.710458,3182.885551,-1110.308913,-10801.946522
963.710778,5551.544565,-1258.350101,-10725.336972
963.711098,2886.803174,222.061783,-8963.317327
963.711418,74.020594,1406.391290,-9806.022374
963.711738,1628.453072,1036.288319,-9422.974625
963.712058,2368.659014,-2072.576638,-9346.365076
963.712378,1924.535449,-2220.617826,-10112.460574
963.712698,-296.082377,-3108.864956,-9193.145976
963.713018,-888.247130,-2960.823768,-8733.488677
963.713338,-222.061783,-1924.535449,-9806.022374
963.713658,-2368.659014,518.144159,-9652.803275
963.713978,-3330.926739,2146.597232,-10265.679673
963.714298,-1480.411884,-148.041188,-10112.460574
963.714618,1776.494261,-1332.370696,-10112.460574
963.714938,1554.432478,-1332.370696,-10955.165621
963.715258,-1850.514855,666.185348,-10342.289223
963.715577,-3997.112087,1036.288319,-10342.289223
963.715897,-1776.494261,1258.350101,-11031.775171
963.716217,1036.288319,-666.185348,-10572.117872
963.716537,1110.308913,-1406.391290,-11031.775171
963.716857,-518.144159,370.102971,-11108.384721
963.717177,518.144159,1998.556043,-11568.042020
963.717497,814.226536,4737.318029,-11184.994271
963.717817,-1258.350101,4737.318029,-11951.089769
963.718137,-3552.988522,2442.679609,-10342.289223
963.718457,-5033.400406,-814.226536,-9806.022374
963.718777,-3256.906145,-2664.741391,-9729.412825
963.719097,-814.226536,-2738.761985,-9346.365076
963.719417,0.000000,-1702.473667,-9959.241474
963.719737,-1702.473667,592.164754,-9806.022374
963.720057,-1924.535449,666.185348,-9499.584175
963.720377,-740.205942,592.164754,-9806.022374
963.720697,518.144159,0.000000,-8963.317327
963.721016,1554.432478,1184.329507,-9422.974625
963.721336,5033.400406,222.061783,-9652.803275
963.721656,7328.038826,148.041188,-8963.317327
963.721976,7105.977043,-2072.576638,-9652.803275
963.722296,4515.256246,-3034.844362,-8886.707777
963.722616,1554.432478,-2368.659014,-9269.755526
963.722936,-518.144159,666.185348,-9499.584175
963.723256,1406.391290,3701.029710,-10648.727422
963.723576,2072.576638,4145.153275,-9959.241474
963.723896,1776.494261,3182.885551,-9882.631924
963.724216,962.267725,0.000000,-10112.460574
963.724536,-370.102971,-3775.050304,-10035.851024
963.724856,-666.185348,-3182.885551,-10035.851024
963.725176,-518.144159,-1258.350101,-10112.460574
963.725496,592.164754,1628.453072,-10418.898773
963.725816,1924.535449,3256.906145,-11491.432470
963.726136,3997.112087,2442.679609,-11338.213370
963.726455,2738.761985,1406.391290,-10648.727422
963.726775,2220.617826,1628.453072,-11338.213370
963.727095,1110.308913,666.185348,-10801.946522
963.727415,592.164754,444.123565,-11644.651570
963.727735,444.123565,-888.247130,-10572.117872
963.728055,0.000000,-1850.514855,-9729.412825
963.728375,1184.329507,-592.164754,-10342.289223
963.728695,74.020594,1850.514855,-10112.460574
963.729015,-740.205942,3478.967927,-11031.775171
963.729335,-1850.514855,4811.338623,-9806.022374
963.729655,-2294.638420,1258.350101,-9882.631924
963.729975,0.000000,-518.144159,-8963.317327
963.730295,-1406.391290,-2294.638420,-9729.412825
963.730615,-1036.288319,-2368.659014,-9499.584175
963.730935,-2072.576638,-1776.494261,-9039.926876
963.731255,-2516.700203,0.000000,-9193.145976
963.731575,-2590.720797,0.000000,-8963.317327
963.731894,-888.247130,-1110.308913,-9116.536426
963.732214,2146.597232,-666.185348,-10189.070123
963.732534,3849.070898,370.102971,-10189.070123
963.732854,518.144159,2664.741391,-10878.556072
963.733174,-1628.453072,3627.009116,-10572.117872
963.733494,74.020594,2368.659014,-9499.584175
963.733814,962.267725,1036.288319,-10342.289223
963.734134,666.185348,-2368.659014,-9652.803275
963.734454,-370.102971,-2146.597232,-9806.022374
963.734774,296.082377,-3701.029710,-10342.289223
963.735094,1258.350101,592.164754,-9806.022374
963.735414,370.102971,2368.659014,-11108.384721
963.735734,-444.123565,2590.720797,-10112.460574
963.736054,-1332.370696,2516.700203,-9806.022374
963.736374,888.247130,1702.473667,-10648.727422
963.736694,2516.700203,0.000000,-10342.289223
963.737014,4811.338623,-592.164754,-10572.117872
963.737333,4145.153275,-1332.370696,-10112.460574
963.737653,3627.009116,592.164754,-10112.460574
963.737973,2442.679609,1332.370696,-10495.508323
963.738293,2220.617826,2146.597232,-10265.679673
963.738613,2294.638420,2072.576638,-10495.508323
963.738933,2072.576638,518.144159,-9882.631924
963.739253,1258.350101,518.144159,-9576.193725
963.739573,1184.329507,592.164754,-10342.289223
963.739893,-222.061783,-148.041188,-9269.755526
963.740213,0.000000,-592.164754,-10342.289223
963.740533,518.144159,-1998.556043,-9422.974625
963.740853,-370.102971,-3552.988522,-9116.536426
963.741173,0.000000,-3552.988522,-9039.926876
963.741493,0.000000,0.000000,-9269.755526
963.741813,1850.514855,2960.823768,-10342.289223
963.742133,3034.844362,4071.132681,-10495.508323
963.742453,3108.864956,2442.679609,-11261.603821
963.742773,1554.432478,-1184.329507,-10035.851024
963.743092,518.144159,-1332.370696,-9652.803275
963.743412,-296.082377,222.061783,-9959.241474
963.743732,-370.102971,2442.679609,-10878.556072
963.744052,-1184.329507,3627.009116,-10648.727422
963.744372,-1480.411884,3034.844362,-10648.727422
963.744692,0.000000,444.123565,-10265.679673
963.745012,-1184.329507,-1924.535449,-9806.022374
963.745332,-3997.112087,-4219.173869,-9652.803275
963.745652,-3923.091493,-2368.659014,-9576.193725
963.745972,-666.185348,1036.288319,-9959.241474
963.746292,296.082377,3330.926739,-11414.822920
963.746612,296.082377,3701.029710,-9806.022374
963.746932,0.000000,3034.844362,-10725.336972
963.747252,2368.659014,1406.391290,-10189.070123
963.747572,4589.276840,-1258.350101,-10035.851024
963.747892,1628.453072,-1184.329507,-10265.679673
963.748212,-2368.659014,-1702.473667,-9346.365076
963.748531,-3330.926739,-2886.803174,-9269.755526
963.748851,-296.082377,-2368.659014,-9652.803275
963.749171,1184.329507,-1406.391290,-9193.145976
963.749491,74.020594,518.144159,-10265.679673
963.749811,-370.102971,518.144159,-9959.241474
963.750131,1332.370696,1480.411884,-10189.070123
963.750451,2960.823768,814.226536,-10112.460574
963.750771,1258.350101,-296.082377,-9806.022374
963.751091,518.144159,-1110.308913,-9959.241474
963.751411,814.226536,-1258.350101,-9652.803275
963.751731,74.020594,370.102971,-9729.412825
963.752051,1332.370696,888.247130,-10342.289223
963.752371,1924.535449,518.144159,-9959.241474
963.752691,2590.720797,518.144159,-10265.679673
963.753011,2812.782580,1258.350101,-10648.727422
963.753331,1998.556043,1776.494261,-10495.508323
963.753651,1258.350101,962.267725,-10878.556072
963.753970,1702.473667,-1480.411884,-9576.193725
963.754290,2442.679609,-3108.864956,-10035.851024
963.754610,2664.741391,-2146.597232,-10495.508323
963.754930,296.082377,518.144159,-9652.803275
963.755250,-814.226536,3256.906145,-10801.946522
963.755570,1110.308913,5181.441594,-10878.556072
963.755890,3701.029710,3256.906145,-11721.261119
963.756210,2294.638420,-222.061783,-10878.556072
963.756530,-1554.432478,-2442.679609,-9806.022374
963.756850,-2516.700203,-3034.844362,-9729.412825
963.757170,-1924.535449,518.144159,-10342.289223
963.757490,-2812.782580,1998.556043,-10648.727422
963.757810,-2664.741391,2072.576638,-10572.117872
963.758130,-1554.432478,-148.041188,-9729.412825
963.758450,-222.061783,-1258.350101,-9652.803275
963.758770,740.205942,-1628.453072,-9959.241474
963.759090,1110.308913,-1110.308913,-10725.336972
963.759409,2072.576638,1924.535449,-9269.755526
963.759729,1850.514855,3627.009116,-9806.022374
963.760049,3182.885551,4441.235652,-9422.974625
963.760369,2442.679609,2220.617826,-10878.556072
963.760689,1184.329507,1406.391290,-9882.631924
963.761009,-1036.288319,444.123565,-9269.755526
963.761329,-1110.308913,0.000000,-9499.584175
963.761649,-1406.391290,-1110.308913,-9729.412825
963.761969,-1258.350101,-4293.194464,-8656.879127
963.762289,-2294.638420,-3849.070898,-8886.707777
963.762609,-3108.864956,-1036.288319,-9576.193725
963.762929,-3182.885551,1184.329507,-9576.193725
963.763249,-444.123565,3182.885551,-9576.193725
963.763569,1554.432478,3330.926739,-10035.851024
963.763889,6365.771101,1924.535449,-10648.727422
963.764209,7328.038826,0.000000,-11184.994271
963.764529,3552.988522,-1184.329507,-9882.631924
963.764849,1110.308913,74.020594,-10112.460574
963.765169,-444.123565,3256.906145,-10112.460574
963.765489,1480.411884,3627.009116,-10648.727422
963.765809,592.164754,3034.844362,-11338.213370
963.766129,-962.267725,1702.473667,-10265.679673
963.766449,-2368.659014,-1480.411884,-9882.631924
963.766769,-962.267725,-2220.617826,-9806.022374
963.767090,888.247130,-592.164754,-10418.898773
963.767410,962.267725,-222.061783,-9882.631924
963.767730,1036.288319,1628.453072,-9806.022374
963.768050,1850.514855,2368.659014,-10342.289223
963.768370,2368.659014,2368.659014,-10342.289223
963.768690,-222.061783,2146.597232,-10342.289223
963.769010,-1702.473667,-740.205942,-8350.440928
963.769330,-444.123565,-3701.029710,-8810.098227
963.769650,2442.679609,-4367.215058,-9576.193725
963.769970,2146.597232,-3627.009116,-9499.584175
963.770290,-962.267725,370.102971,-9576.193725
963.770611,-3182.885551,3775.050304,-9806.022374
963.770931,-1702.473667,4367.215058,-9882.631924
963.771251,-1184.329507,2442.679609,-10878.556072
963.771571,-222.061783,-666.185348,-10112.460574
963.771891,-2590.720797,-3627.009116,-9499.584175
963.772211,-1998.556043,-2220.617826,-9729.412825
963.772531,-1554.432478,0.000000,-10801.946522
963.772851,666.185348,1258.350101,-10342.289223
963.773171,1036.288319,1850.514855,-9882.631924
963.773491,1406.391290,-518.144159,-10265.679673
963.773811,666.185348,-2294.638420,-9729.412825
963.774132,1998.556043,-1850.514855,-10648.727422
963.774452,3627.009116,-814.226536,-10878.556072
963.774772,3034.844362,-518.144159,-11031.775171
963.775092,1036.288319,814.226536,-10648.727422
963.775412,74.020594,2146.597232,-10342.289223
963.775732,-740.205942,2812.782580,-10725.336972
963.776052,-222.061783,2516.700203,-10801.946522
963.776372,444.123565,666.185348,-10418.898773
963.776692,592.164754,-2368.659014,-9346.365076
963.777012,-888.247130,-5329.482782,-9422.974625
963.777332,-2664.741391,-7254.018232,-8810.098227
963.777653,-1850.514855,-4589.276840,-9039.926876
963.777973,0.000000,-370.102971,-9806.022374
963.778293,3997.112087,3034.844362,-10265.679673
963.778613,4959.379811,4071.132681,-10725.336972
963.778933,4367.215058,3182.885551,-9193.145976
963.779253,3182.885551,444.123565,-9959.241474
963.779573,3552.988522,-1110.308913,-10265.679673
963.779893,2590.720797,-2072.576638,-10265.679673
963.780213,518.144159,-1998.556043,-9116.536426
963.780533,-592.164754,-1406.391290,-9269.755526
963.780853,962.267725,-222.061783,-9806.022374
963.781174,296.082377,518.144159,-10035.851024
963.781494,-888.247130,1406.391290,-9959.241474
963.781814,-888.247130,2442.679609,-11338.213370
963.782134,296.082377,1998.556043,-10035.851024
963.782454,1998.556043,74.020594,-10801.946522
963.782774,2368.659014,-1554.432478,-9959.241474
963.783094,740.205942,-2072.576638,-8963.317327
963.783414,-1554.432478,-888.247130,-10342.289223
963.783734,-888.247130,2146.597232,-10495.508323
963.784054,-444.123565,3552.988522,-10878.556072
963.784374,1036.288319,3256.906145,-10342.289223
963.784695,888.247130,2516.700203,-9959.241474
963.785015,1776.494261,-740.205942,-10955.165621
963.785335,2664.741391,-1406.391290,-10342.289223
963.785655,1776.494261,0.000000,-11184.994271
963.785975,-1628.453072,2220.617826,-9882.631924
963.786295,-3330.926739,3849.070898,-10035.851024
963.786615,-2738.761985,3256.906145,-10495.508323
963.786935,-1406.391290,1554.432478,-9729.412825
963.787255,296.082377,-296.082377,-10572.117872
963.787575,1406.391290,-666.185348,-10495.508323
963.787895,888.247130,222.061783,-9499.584175
963.788216,-1850.514855,1924.535449,-9959.241474
963.788536,-1554.432478,2886.803174,-8963.317327
963.788856,666.185348,2590.720797,-9806.022374
963.789176,1184.329507,3997.112087,-9652.803275
963.789496,1554.432478,3923.091493,-9652.803275
963.789816,2368.659014,2220.617826,-9806.022374
963.790136,3552.988522,74.020594,-9499.584175
963.790456,2368.659014,-3034.844362,-9193.145976
963.790776,1110.308913,-3478.967927,-8733.488677
963.791096,666.185348,-1258.350101,-9576.193725
963.791416,444.123565,1998.556043,-9422.974625
963.791737,888.247130,6291.750507,-10342.289223
963.792057,2368.659014,5625.565159,-11031.775171
963.792377,1776.494261,2220.617826,-9729.412825
963.792697,1036.288319,-1850.514855,-10572.117872
963.793017,740.205942,-6069.688724,-9806.022374
963.793337,740.205942,-4441.235652,-9652.803275
963.793657,814.226536,-296.082377,-9959.241474
963.793977,888.247130,4071.132681,-10189.070123
963.794297,3256.906145,4811.338623,-11414.822920
963.794617,5033.400406,5181.441594,-12104.308868
963.794938,2368.659014,1480.411884,-10801.946522
963.795258,-74.020594,74.020594,-9882.631924
963.795578,-222.061783,0.000000,-10955.165621
963.795898,2220.617826,-666.185348,-10189.070123
963.796218,3478.967927,-1702.473667,-10572.117872
963.796538,1406.391290,-370.102971,-10189.070123
963.796858,-518.144159,296.082377,-10112.460574
963.797178,-1924.535449,2442.679609,-10342.289223
963.797498,-666.185348,4293.194464,-10265.679673
963.797818,888.247130,2664.741391,-10878.556072
963.798138,-1332.370696,-518.144159,-9576.193725
963.798459,-1258.350101,-4293.194464,-9806.022374
963.798779,-666.185348,-5107.421000,-9269.755526
963.799099,-296.082377,-4219.173869,-9039.926876
963.799419,444.123565,-222.061783,-9729.412825
963.799739,-1110.308913,1850.514855,-9882.631924
963.800059,-1850.514855,1776.494261,-10189.070123
963.800379,-2442.679609,740.205942,-8580.269578
963.800699,-2072.576638,592.164754,-10342.289223
963.801019,-1258.350101,-148.041188,-10648.727422
963.801339,-148.041188,-444.123565,-10265.679673
963.801659,-962.267725,-814.226536,-9729.412825
963.801980,-444.123565,-2812.782580,-9729.412825
963.802300,-444.123565,-3701.029710,-9499.584175
963.802620,-2072.576638,-2886.803174,-10112.460574
963.802940,-2664.741391,-814.226536,-9576.193725
963.803260,-1628.453072,1776.494261,-10418.898773
963.803580,740.205942,1924.535449,-10495.508323
963.803900,-222.061783,296.082377,-10342.289223
963.804220,-1110.308913,-1406.391290,-10342.289223
963.804540,814.226536,-1406.391290,-9959.241474
963.804860,1628.453072,-888.247130,-10648.727422
963.805180,2664.741391,1628.453072,-11031.775171
963.805501,1554.432478,1850.514855,-10878.556072
963.805821,1776.494261,1110.308913,-10342.289223
963.806141,3034.844362,-740.205942,-10495.508323
963.806461,3330.926739,-2220.617826,-9959.241474
963.806781,1480.411884,0.000000,-10495.508323
963.807101,-814.226536,1332.370696,-10265.679673
963.807421,1184.329507,2738.761985,-10112.460574
963.807741,4515.256246,1628.453072,-10495.508323
963.808061,4071.132681,-814.226536,-9806.022374
963.808381,2368.659014,-3182.885551,-9959.241474
963.808701,888.247130,-1554.432478,-9806.022374
963.809022,1036.288319,-370.102971,-9652.803275
963.809342,0.000000,2886.803174,-9576.193725
963.809662,2220.617826,2516.700203,-10189.070123
963.809982,3478.967927,1628.453072,-9882.631924
963.810302,3775.050304,592.164754,-10342.289223
963.810622,3552.988522,814.226536,-10112.460574
963.810942,1406.391290,518.144159,-10495.508323
963.811262,-444.123565,888.247130,-9652.803275
963.811582,-1998.556043,518.144159,-9652.803275
963.811902,-888.247130,-444.123565,-9346.365076
963.812222,1110.308913,74.020594,-10035.851024
963.812543,592.164754,-592.164754,-10572.117872
963.812863,-1554.432478,-962.267725,-9346.365076
963.813183,-2442.679609,-444.123565,-9882.631924
963.813503,-1628.453072,444.123565,-9422.974625
963.813823,-1332.370696,444.123565,-10418.898773
963.814143,-370.102971,1702.473667,-10648.727422
963.814463,-370.102971,1850.514855,-10648.727422
963.814783,-1628.453072,2146.597232,-10265.679673
963.815103,-2368.659014,1184.329507,-10265.679673
963.815423,-2812.782580,888.247130,-9652.803275
963.815743,-1110.308913,1110.308913,-10495.508323
963.816064,296.082377,0.000000,-9882.631924
963.816384,0.000000,962.267725,-10418.898773
963.816704,592.164754,1702.473667,-10418.898773
963.817024,-148.041188,2294.638420,-9499.584175
963.817344,-814.226536,2590.720797,-10035.851024
963.817664,-1554.432478,3034.844362,-10189.070123
963.817984,-2220.617826,2516.700203,-10189.070123
963.818304,-1332.370696,1702.473667,-10189.070123
963.818624,1554.432478,-1702.473667,-9806.022374
963.818944,4441.235652,-2368.659014,-10495.508323
963.819264,3701.029710,-2146.597232,-10418.898773
963.819585,1850.514855,-1332.370696,-10189.070123
963.819905,-888.247130,740.205942,-9269.755526
963.820225,-1406.391290,2442.679609,-9116.536426
963.820545,222.061783,2812.782580,-9652.803275
963.820865,2590.720797,888.247130,-10572.117872
963.821185,3923.091493,-1406.391290,-10342.289223
963.821505,3775.050304,-2516.700203,-9959.241474
963.821825,3404.947333,-1480.411884,-9882.631924
963.822145,1924.535449,518.144159,-10265.679673
963.822465,0.000000,1258.350101,-10189.070123
963.822785,-370.102971,1036.288319,-9269.755526
963.823106,2220.617826,814.226536,-10801.946522
963.823426,4737.318029,962.267725,-10648.727422
963.823746,2738.761985,-444.123565,-10495.508323
963.824066,3256.906145,-666.185348,-10265.679673
963.824386,2886.803174,148.041188,-9806.022374
963.824706,2664.741391,1258.350101,-10648.727422
963.825026,3404.947333,2368.659014,-10189.070123
963.825346,-592.164754,2220.617826,-10495.508323
963.825666,-1110.308913,1036.288319,-10572.117872
963.825986,518.144159,-222.061783,-10418.898773
963.826306,1480.411884,-518.144159,-10112.460574
963.826627,-1332.370696,-962.267725,-9882.631924
963.826947,-3034.844362,-296.082377,-9499.584175
963.827267,-814.226536,1036.288319,-10035.851024
963.827587,3404.947333,1036.288319,-10418.898773
963.827907,1998.556043,666.185348,-10955.165621
963.828227,-1924.535449,-1110.308913,-10112.460574
963.828547,-2886.803174,-1850.514855,-9806.022374
963.828867,74.020594,-1702.473667,-9729.412825
963.829187,666.185348,370.102971,-9882.631924
963.829507,-814.226536,1332.370696,-10265.679673
963.829827,-2664.741391,888.247130,-9499.584175
963.830148,-370.102971,666.185348,-9806.022374
963.830468,2294.638420,296.082377,-10342.289223
963.830788,2590.720797,-444.123565,-10572.117872
963.831108,-740.205942,-1258.350101,-10342.289223
963.831428,-4293.194464,-1110.308913,-9422.974625
963.831748,-2072.576638,-666.185348,-9193.145976
963.832068,-2146.597232,-74.020594,-10189.070123
963.832388,-3775.050304,-814.226536,-10112.460574
963.832708,-2368.659014,-222.061783,-9959.241474
963.833028,0.000000,0.000000,-9806.022374
963.833348,2590.720797,814.226536,-10725.336972
963.833669,1998.556043,1850.514855,-10035.851024
963.833989,-1850.514855,740.205942,-9346.365076
963.834309,1332.370696,444.123565,-9882.631924
963.834629,4737.318029,-444.123565,-11031.775171
963.834949,4367.215058,-370.102971,-10648.727422
963.835269,740.205942,888.247130,-10495.508323
963.835589,-1036.288319,2516.700203,-10189.070123
963.835909,-962.267725,3330.926739,-10725.336972
963.836229,1110.308913,2368.659014,-10648.727422
963.836549,1776.494261,888.247130,-10801.946522
963.836869,2072.576638,-592.164754,-10189.070123
963.837190,3552.988522,-1776.494261,-10189.070123
963.837510,3552.988522,-888.247130,-9959.241474
963.837830,74.020594,-518.144159,-9729.412825
963.838150,592.164754,740.205942,-10342.289223
963.838470,888.247130,1776.494261,-9576.193725
963.838790,2220.617826,740.205942,-9882.631924
963.839110,2886.803174,0.000000,-9882.631924
963.839430,3182.885551,-1332.370696,-10035.851024
963.839750,3034.844362,-1998.556043,-9806.022374
963.840070,1406.391290,-148.041188,-9652.803275
963.840390,-2516.700203,814.226536,-9269.755526
963.840711,-3330.926739,444.123565,-10112.460574
963.841031,-962.267725,-222.061783,-8656.879127
963.841351,-1036.288319,-666.185348,-10112.460574
963.841671,-888.247130,-2146.597232,-9116.536426
963.841991,1554.432478,-1998.556043,-10035.851024
963.842311,2960.823768,-592.164754,-9882.631924
963.842631,2146.597232,1850.514855,-10495.508323
963.842951,1702.473667,2960.823768,-10648.727422
963.843271,0.000000,2516.700203,-10189.070123
963.843591,-962.267725,1110.308913,-9882.631924
963.843911,444.123565,1258.350101,-10878.556072
963.844232,2812.782580,1332.370696,-10801.946522
963.844552,2220.617826,1332.370696,-10648.727422
963.844872,296.082377,962.267725,-11031.775171
963.845192,-1406.391290,1554.432478,-10342.289223
963.845512,-4811.338623,1924.535449,-10035.851024
963.845832,-4663.297435,3256.906145,-10495.508323
963.846152,-2960.823768,3627.009116,-9499.584175
963.846472,-1702.473667,2294.638420,-10725.336972
963.846792,-1924.535449,296.082377,-9729.412825
963.847112,-1776.494261,-3775.050304,-9729.412825
963.847432,1258.350101,-3923.091493,-8733.488677
963.847753,4663.297435,-2886.803174,-9652.803275
963.848073,5847.626942,74.020594,-10572.117872
963.848393,5107.421000,2960.823768,-9652.803275
963.848713,962.267725,3330.926739,-10189.070123
963.849033,-592.164754,3404.947333,-9729.412825
963.849353,370.102971,592.164754,-10265.679673
963.849673,-1110.308913,-1850.514855,-9806.022374
963.849993,-1036.288319,-2738.761985,-9499.584175
963.850313,1036.288319,-2294.638420,-9499.584175
963.850633,2590.720797,-1998.556043,-10265.679673
963.850953,2146.597232,0.000000,-9806.022374
963.851274,-3034.844362,3256.906145,-9959.241474
963.851594,-4515.256246,4959.379811,-9806.022374
963.851914,1850.514855,3849.070898,-10648.727422
963.852234,4811.338623,2590.720797,-10572.117872
963.852554,3849.070898,-222.061783,-10878.556072
963.852874,2368.659014,-1850.514855,-10035.851024
963.853194,2368.659014,-2516.700203,-9806.022374
963.853514,1480.411884,-296.082377,-10189.070123
963.853834,-814.226536,3034.844362,-9959.241474
963.854154,-1702.473667,3478.967927,-10572.117872
963.854474,222.061783,1776.494261,-9576.193725
963.854795,666.185348,-370.102971,-10495.508323
963.855115,296.082377,-1924.535449,-10189.070123
963.855435,-592.164754,-296.082377,-9806.022374
963.855755,2146.597232,296.082377,-10648.727422
963.856075,4367.215058,1332.370696,-10572.117872
963.856395,2368.659014,1628.453072,-10189.070123
963.856715,-1702.473667,296.082377,-10112.460574
963.857035,-518.144159,-370.102971,-9882.631924
963.857355,740.205942,148.041188,-11414.822920
963.857675,296.082377,148.041188,-10418.898773
963.857995,-740.205942,148.041188,-9729.412825
963.858316,-888.247130,-1184.329507,-9882.631924
963.858636,-740.205942,-2664.741391,-9499.584175
963.858956,592.164754,-3108.864956,-9882.631924
963.859276,-148.041188,-1776.494261,-10189.070123
963.859596,1332.370696,1776.494261,-9882.631924
963.859916,444.123565,2886.803174,-10189.070123
963.860236,1924.535449,2812.782580,-10265.679673
963.860556,1184.329507,2294.638420,-10495.508323
963.860876,444.123565,-444.123565,-10035.851024
963.861196,1036.288319,-1924.535449,-9882.631924
963.861516,370.102971,-1702.473667,-10265.679673
963.861837,518.144159,-1480.411884,-10189.070123
963.862157,-296.082377,444.123565,-9806.022374
963.862477,-1184.329507,2072.576638,-10572.117872
963.862797,-296.082377,1628.453072,-10725.336972
963.863117,518.144159,1628.453072,-10572.117872
963.863437,0.000000,-592.164754,-10035.851024
963.863757,0.000000,-1628.453072,-9806.022374
963.864077,814.226536,-1258.350101,-10955.165621
963.864397,2368.659014,-1702.473667,-10265.679673
963.864717,2368.659014,-1924.535449,-10112.460574
963.865037,2368.659014,0.000000,-10189.070123
963.865357,1258.350101,1924.535449,-10725.336972
963.865677,-296.082377,2294.638420,-10572.117872
963.865997,1332.370696,1776.494261,-10495.508323
963.866317,1480.411884,1406.391290,-10265.679673
963.866637,1036.288319,-592.164754,-9959.241474
963.866957,0.000000,-1036.288319,-9806.022374
963.867277,-592.164754,-518.144159,-11261.603821
963.867597,-1406.391290,-666.185348,-9882.631924
963.867917,-444.123565,0.000000,-9729.412825
963.868237,1110.308913,-370.102971,-10112.460574
963.868557,1776.494261,-740.205942,-9269.755526
963.868877,1332.370696,666.185348,-9806.022374
963.869197,2072.576638,1628.453072,-11031.775171
963.869517,888.247130,814.226536,-9729.412825
963.869837,-2368.659014,1554.432478,-9882.631924
963.870156,-3330.926739,-1036.288319,-8963.317327
963.870476,-1184.329507,-1554.432478,-10189.070123
963.870796,888.247130,-1850.514855,-9806.022374
963.871116,1850.514855,-2886.803174,-9959.241474
963.871436,2146.597232,-592.164754,-10495.508323
963.871756,1850.514855,814.226536,-10801.946522
963.872076,666.185348,3404.947333,-9806.022374
963.872396,-1332.370696,5921.647536,-10801.946522
963.872716,-2146.597232,4663.297435,-11031.775171
963.873036,0.000000,1850.514855,-10035.851024
963.873356,2294.638420,-2738.761985,-11261.603821
963.873676,4959.379811,-4663.297435,-9806.022374
963.873996,1998.556043,-2886.803174,-9959.241474
963.874316,-1998.556043,888.247130,-10265.679673
963.874636,-1036.288319,5033.400406,-9959.241474
963.874956,-2738.761985,6513.812290,-9959.241474
963.875276,592.164754,4441.235652,-11414.822920
963.875596,962.267725,0.000000,-9576.193725
963.875916,1258.350101,-3775.050304,-9806.022374
963.876236,3034.844362,-5625.565159,-8427.050478
963.876556,3775.050304,-3182.885551,-9806.022374
963.876876,2072.576638,1036.288319,-9422.974625
963.877196,-148.041188,4219.173869,-9959.241474
963.877516,-1110.308913,5921.647536,-10725.336972
963.877836,-370.102971,3552.988522,-10495.508323
963.878156,-814.226536,814.226536,-9652.803275
963.878476,-888.247130,-1554.432478,-9499.584175
963.878796,-444.123565,-3478.967927,-9499.584175
963.879116,2146.597232,-3478.967927,-9422.974625
963.879436,2516.700203,-1998.556043,-9806.022374
963.879756,1702.473667,-444.123565,-9193.145976
963.880076,0.000000,2442.679609,-9652.803275
963.880396,814.226536,3108.864956,-10265.679673
963.880716,1924.535449,740.205942,-10112.460574
963.881036,2072.576638,518.144159,-10265.679673
963.881356,1628.453072,1406.391290,-10725.336972
963.881676,-296.082377,-888.247130,-11108.384721
963.881996,888.247130,-1480.411884,-9959.241474
963.882316,0.000000,-148.041188,-10801.946522
963.882636,-370.102971,0.000000,-10189.070123
963.882956,-3182.885551,1110.308913,-11261.603821
963.883276,-3478.967927,1554.432478,-10189.070123
963.883596,-2738.761985,2220.617826,-10648.727422
963.883916,-1554.432478,666.185348,-10112.460574
963.884236,888.247130,-296.082377,-10112.460574
963.884556,1332.370696,-1184.329507,-9959.241474
963.884876,1480.411884,-1554.432478,-9806.022374
963.885196,1332.370696,-2590.720797,-9806.022374
963.885516,3775.050304,-888.247130,-10112.460574
963.885836,2072.576638,0.000000,-9882.631924
963.886155,1036.288319,1258.350101,-10189.070123
963.886475,-740.205942,3404.947333,-9806.022374
963.886795,518.144159,814.226536,-10035.851024
963.887115,1332.370696,-1258.350101,-9806.022374
963.887435,1480.411884,-4071.132681,-9806.022374
963.887755,-296.082377,-3108.864956,-9806.022374
963.888075,-2368.659014,-1702.473667,-9576.193725
963.888395,-2368.659014,0.000000,-9882.631924
963.888715,-666.185348,1036.288319,-8963.317327
963.889035,1258.350101,-370.102971,-10265.679673
963.889355,4441.235652,518.144159,-10342.289223
963.889675,3997.112087,962.267725,-10495.508323
963.889995,3256.906145,2590.720797,-10265.679673
963.890315,3256.906145,2590.720797,-10035.851024
963.890635,3552.988522,1998.556043,-10342.289223
963.890955,1332.370696,-296.082377,-10035.851024
963.891275,296.082377,-1184.329507,-10265.679673
963.891595,370.102971,-296.082377,-10572.117872
963.891915,740.205942,1628.453072,-10495.508323
963.892235,222.061783,4293.194464,-10955.165621
963.892555,518.144159,4663.297435,-10725.336972
963.892875,1924.535449,666.185348,-10801.946522
963.893195,2146.597232,-4663.297435,-9806.022374
963.893515,1628.453072,-3404.947333,-9422.974625
963.893835,2664.741391,-1110.308913,-10265.679673
963.894155,2294.638420,3404.947333,-10495.508323
963.894475,2072.576638,4885.359217,-12027.699319
963.894795,0.000000,4219.173869,-9959.241474
963.895115,888.247130,2220.617826,-10342.289223
963.895435,-2368.659014,-1480.411884,-8733.488677
963.895755,-3627.009116,-4219.173869,-10112.460574
963.896075,-222.061783,-3034.844362,-9116.536426
963.896395,-814.226536,-2072.576638,-9576.193725
963.896715,-1258.350101,-444.123565,-9422.974625
963.897035,-1924.535449,444.123565,-9346.365076
963.897355,-2072.576638,444.123565,-8963.317327
963.897675,-592.164754,1110.308913,-10572.117872
963.897995,-222.061783,-222.061783,-9499.584175
963.898315,148.041188,1480.411884,-10112.460574
963.898635,-1628.453072,-2072.576638,-9269.755526
963.898955,-1258.350101,-1998.556043,-9806.022374
963.899275,-1406.391290,-3627.009116,-9576.193725
963.899595,222.061783,518.144159,-11184.994271
963.899915,-2368.659014,1850.514855,-10112.460574
963.900235,1036.288319,1850.514855,-12180.918418
963.900555,74.020594,3478.967927,-10265.679673
963.900875,0.000000,592.164754,-11108.384721
963.901195,-444.123565,666.185348,-11031.775171
963.901515,-962.267725,444.123565,-10035.851024
963.901835,-1480.411884,-888.247130,-10878.556072
963.902154,2146.597232,-1184.329507,-10189.070123
963.902474,2072.576638,444.123565,-10418.898773
963.902794,-444.123565,1110.308913,-10112.460574
963.903114,1406.391290,444.123565,-9269.755526
963.903434,4145.153275,814.226536,-10265.679673
963.903754,2368.659014,1924.535449,-9959.241474
963.904074,1184.329507,2368.659014,-9806.022374
963.904394,1110.308913,888.247130,-9499.584175
963.904714,2294.638420,222.061783,-10035.851024
963.905034,1406.391290,-2072.576638,-8503.660028
963.905354,3182.885551,-1036.288319,-10112.460574
963.905674,4219.173869,1110.308913,-9652.803275
963.905994,3997.112087,2368.659014,-9959.241474
963.906314,2516.700203,2294.638420,-9576.193725
963.906634,888.247130,1258.350101,-8963.317327
963.906954,2368.659014,592.164754,-9499.584175
963.907274,3775.050304,-222.061783,-10265.679673
963.907594,4441.235652,-888.247130,-10112.460574
963.907914,2072.576638,-2368.659014,-9269.755526
963.908234,2738.761985,-888.247130,-9729.412825
963.908554,1406.391290,740.205942,-9882.631924
963.908874,666.185348,1480.411884,-10418.898773
963.909194,-2442.679609,1554.432478,-9806.022374
963.909514,-1628.453072,1480.411884,-10112.460574
963.909834,888.247130,0.000000,-10112.460574
963.910154,2072.576638,666.185348,-10418.898773
963.910474,370.102971,740.205942,-10495.508323
963.910794,-1998.556043,814.226536,-11108.384721
963.911114,-1184.329507,962.267725,-9959.241474
963.911434,-222.061783,814.226536,-10648.727422
963.911754,-740.205942,-740.205942,-9729.412825
963.912074,-888.247130,0.000000,-10112.460574
963.912394,-1480.411884,-1110.308913,-10572.117872
963.912714,0.000000,1036.288319,-10342.289223
963.913034,-592.164754,444.123565,-10495.508323
963.913354,-1406.391290,2368.659014,-10955.165621
963.913674,-1332.370696,2368.659014,-9499.584175
963.913994,148.041188,2146.597232,-11184.994271
963.914314,-2368.659014,1924.535449,-9959.241474
963.914634,-3701.029710,-1036.288319,-10189.070123
963.914954,-4589.276840,-2812.782580,-9652.803275
963.915274,-3552.988522,-2812.782580,-9499.584175
963.915594,-1406.391290,-1628.453072,-9806.022374
963.915914,0.000000,0.000000,-8810.098227
963.916234,962.267725,1924.535449,-9959.241474
963.916554,1406.391290,2368.659014,-10495.508323
963.916874,2368.659014,1110.308913,-10112.460574
963.917194,1628.453072,-1258.350101,-9806.022374
963.917514,962.267725,-1998.556043,-9346.365076
963.917834,1776.494261,-1184.329507,-9269.755526
963.918153,4885.359217,1258.350101,-10265.679673
963.918473,3404.947333,592.164754,-9959.241474
963.918793,2590.720797,-888.247130,-9806.022374
963.919113,-1036.288319,1776.494261,-10495.508323
963.919433,-1258.350101,1406.391290,-10572.117872
963.919753,1702.473667,1184.329507,-10572.117872
963.920073,962.267725,-1184.329507,-9882.631924
963.920393,0.000000,-2146.597232,-9652.803275
963.920713,296.082377,-1776.494261,-10342.289223
963.921033,3034.844362,-296.082377,-9729.412825
963.921353,4219.173869,-888.247130,-10112.460574
963.921673,5255.462188,2294.638420,-9806.022374
963.921993,5477.523971,3775.050304,-11721.261119
963.922313,5625.565159,2220.617826,-10878.556072
963.922633,4293.194464,2072.576638,-10265.679673
963.922953,518.144159,2812.782580,-10801.946522
963.923273,370.102971,2072.576638,-9959.241474
963.923593,0.000000,814.226536,-10648.727422
963.923913,1110.308913,-2146.597232,-9806.022374
963.924233,222.061783,-3108.864956,-9422.974625
963.924553,-1776.494261,-4071.132681,-9652.803275
963.924873,-1776.494261,-3478.967927,-9346.365076
963.925193,-3552.988522,518.144159,-9422.974625
963.925513,-2812.782580,3627.009116,-10572.117872
963.925833,1110.308913,3552.988522,-9729.412825
963.926153,1480.411884,1924.535449,-9499.584175
963.926473,1258.350101,-1554.432478,-10189.070123
963.926793,1110.308913,-2812.782580,-9576.193725
963.927113,1110.308913,-3182.885551,-9806.022374
963.927433,-814.226536,74.020594,-10035.851024
963.927753,-2812.782580,1628.453072,-10035.851024
963.928073,-2368.659014,2146.597232,-9959.241474
963.928393,-2886.803174,1036.288319,-10648.727422
963.928713,-2738.761985,888.247130,-10265.679673
963.929033,-3627.009116,592.164754,-10342.289223
963.929353,-3108.864956,-592.164754,-9882.631924
963.929673,1258.350101,-1850.514855,-10112.460574
963.929993,3034.844362,-370.102971,-11414.822920
963.930313,-888.247130,1184.329507,-10189.070123
963.930633,-2294.638420,2590.720797,-10572.117872
963.930953,-666.185348,4219.173869,-9652.803275
963.931273,2220.617826,4219.173869,-11184.994271
963.931593,1776.494261,148.041188,-10955.165621
963.931913,1184.329507,-2220.617826,-10035.851024
963.932233,-1332.370696,148.041188,-10572.117872
963.932553,4663.297435,-1332.370696,-9806.022374
963.932873,1702.473667,-444.123565,-10572.117872
963.933193,592.164754,1184.329507,-9652.803275
963.933513,-2294.638420,3552.988522,-10418.898773
963.933833,2368.659014,2072.576638,-9499.584175
963.934152,5625.565159,962.267725,-9882.631924
963.934472,5995.668130,-296.082377,-10265.679673
963.934792,4589.276840,1406.391290,-8810.098227
963.935112,2664.741391,1258.350101,-10342.289223
963.935432,3108.864956,0.000000,-9346.365076
963.935752,444.123565,0.000000,-9652.803275
963.936072,74.020594,962.267725,-9729.412825
963.936392,296.082377,222.061783,-8580.269578
963.936712,2886.803174,1406.391290,-11184.994271
963.937032,2886.803174,-222.061783,-10035.851024
963.937352,0.000000,-518.144159,-10265.679673
963.937672,-2368.659014,-2368.659014,-9576.193725
963.937992,0.000000,-1406.391290,-9806.022374
963.938312,2146.597232,-666.185348,-9959.241474
963.938632,3627.009116,2368.659014,-10801.946522
963.938952,2368.659014,2886.803174,-10955.165621
963.939272,-296.082377,814.226536,-10418.898773
963.939592,-1702.473667,3182.885551,-10572.117872
963.939912,-592.164754,1110.308913,-11108.384721
963.940232,1184.329507,592.164754,-10955.165621
963.940552,-1702.473667,-814.226536,-11031.775171
963.940872,-3330.926739,-1776.494261,-10495.508323
963.941192,-4589.276840,-2516.700203,-9806.022374
963.941512,-3849.070898,-1258.350101,-9806.022374
963.941832,-4663.297435,-370.102971,-9806.022374
963.942152,-3478.967927,1480.411884,-10342.289223
963.942472,-1110.308913,814.226536,-9193.145976
963.942792,1924.535449,740.205942,-10342.289223
963.943112,4219.173869,148.041188,-10648.727422
963.943432,3627.009116,-888.247130,-10035.851024
963.943752,1776.494261,296.082377,-9959.241474
963.944072,370.102971,1258.350101,-9806.022374
963.944392,-2220.617826,1924.535449,-10265.679673
963.944712,-2812.782580,-1332.370696,-10418.898773
963.945032,-1628.453072,-2220.617826,-8810.098227
963.945352,-444.123565,-3478.967927,-9806.022374
963.945672,1480.411884,-814.226536,-9499.584175
963.945992,1036.288319,-518.144159,-9116.536426
963.946312,1628.453072,2146.597232,-11031.775171
963.946632,370.102971,2220.617826,-9806.022374
963.946952,296.082377,1332.370696,-11184.994271
963.947272,0.000000,-2368.659014,-8963.317327
963.947592,1036.288319,-1332.370696,-9806.022374
963.947912,1776.494261,814.226536,-10725.336972
963.948232,5329.482782,962.267725,-10725.336972
963.948552,6143.709319,1480.411884,-10418.898773
963.948872,4293.194464,962.267725,-10265.679673
963.949192,3330.926739,1036.288319,-9959.241474
963.949512,2738.761985,-740.205942,-11184.994271
963.949832,1332.370696,0.000000,-11031.775171
963.950151,-222.061783,74.020594,-9576.193725
963.950471,444.123565,888.247130,-10342.289223
963.950791,2960.823768,0.000000,-9806.022374
963.951111,4737.318029,-888.247130,-9959.241474
963.951431,1406.391290,-666.185348,-9882.631924
963.951751,296.082377,592.164754,-9959.241474
963.952071,222.061783,2812.782580,-10572.117872
963.952391,1702.473667,3849.070898,-11184.994271
963.952711,0.000000,3256.906145,-10112.460574
963.953031,-3256.906145,1110.308913,-10035.851024
963.953351,-2590.720797,-2072.576638,-9652.803275
963.953671,0.000000,-3849.070898,-9346.365076
963.953991,1406.391290,-3849.070898,-9959.241474
963.954311,-518.144159,-2072.576638,-9193.145976
963.954631,-1702.473667,1036.288319,-9806.022374
963.954951,-1480.411884,3627.009116,-10878.556072
963.955271,-2072.576638,3775.050304,-9959.241474
963.955591,-3108.864956,2368.659014,-10112.460574
963.955911,-1850.514855,-296.082377,-9729.412825
963.956231,74.020594,-2072.576638,-9499.584175
963.956551,-1554.432478,-962.267725,-10189.070123
963.956871,-1702.473667,-148.041188,-9806.022374
963.957191,370.102971,1184.329507,-10265.679673
963.957511,1480.411884,1110.308913,-10418.898773
963.957831,1258.350101,2146.597232,-10342.289223
963.958151,-888.247130,2442.679609,-10572.117872
963.958471,-1184.329507,0.000000,-9882.631924
963.958791,-1850.514855,962.267725,-9116.536426
963.959111,888.247130,740.205942,-10189.070123
963.959431,3182.885551,592.164754,-10189.070123
963.959751,3256.906145,222.061783,-10112.460574
963.960071,3108.864956,-74.020594,-9806.022374
963.960391,1406.391290,296.082377,-10189.070123
963.960711,-444.123565,1702.473667,-10035.851024
963.961031,-666.185348,1184.329507,-10189.070123
963.961351,-1332.370696,962.267725,-9193.145976
963.961671,222.061783,-962.267725,-9959.241474
963.961991,296.082377,-1702.473667,-9806.022374
963.962311,592.164754,-1184.329507,-9729.412825
963.962631,3775.050304,814.226536,-10648.727422
963.962951,7179.997637,2590.720797,-10265.679673
963.963271,6291.750507,1628.453072,-9806.022374
963.963591,4219.173869,370.102971,-10342.289223
963.963911,1406.391290,-148.041188,-9422.974625
963.964231,2590.720797,962.267725,-10495.508323
963.964551,3330.926739,666.185348,-9729.412825
963.964871,2368.659014,1036.288319,-10189.070123
963.965191,592.164754,1184.329507,-10801.946522
963.965511,-296.082377,814.226536,-10648.727422
963.965830,-518.144159,444.123565,-10189.070123
963.966150,0.000000,296.082377,-10648.727422
963.966470,-1184.329507,-296.082377,-9806.022374
963.966790,-1998.556043,-74.020594,-10342.289223
963.967110,-2738.761985,-1924.535449,-10035.851024
963.967430,-962.267725,-2516.700203,-9882.631924
963.967750,-1850.514855,-1776.494261,-10112.460574
963.968070,-1554.432478,-592.164754,-9806.022374
963.968390,370.102971,0.000000,-10648.727422
963.968710,1480.411884,740.205942,-11491.432470
963.969029,888.247130,1850.514855,-10878.556072
963.969349,-370.102971,1184.329507,-10955.165621
963.969669,-1332.370696,1110.308913,-10801.946522
963.969989,-3256.906145,1628.453072,-9576.193725
963.970309,-3108.864956,2294.638420,-10495.508323
963.970629,-1850.514855,444.123565,-9959.241474
963.970949,-444.123565,-592.164754,-10265.679673
963.971269,-1258.350101,-1628.453072,-10418.898773
963.971589,-1258.350101,-1628.453072,-9346.365076
963.971909,-888.247130,-2072.576638,-9652.803275
963.972228,-666.185348,148.041188,-9193.145976
963.972548,1184.329507,1998.556043,-10035.851024
963.972868,1480.411884,2516.700203,-10035.851024
963.973188,666.185348,-370.102971,-9346.365076
963.973508,-296.082377,-518.144159,-10265.679673
963.973828,-1776.494261,-888.247130,-9116.536426
963.974148,74.020594,0.000000,-9499.584175
963.974468,814.226536,-370.102971,-7890.783629
963.974788,7698.141797,-592.164754,-10495.508323
963.975107,4811.338623,0.000000,-10265.679673
963.975427,-1702.473667,592.164754,-10418.898773
963.975747,0.000000,3108.864956,-9729.412825
963.976067,4589.276840,3330.926739,-10189.070123
963.976387,3923.091493,888.247130,-9806.022374
963.976707,2886.803174,-444.123565,-10418.898773
963.977027,1406.391290,-1554.432478,-9729.412825
963.977347,1184.329507,-518.144159,-11031.775171
963.977667,3552.988522,666.185348,-11261.603821
963.977987,3256.906145,1998.556043,-10648.727422
963.978306,1332.370696,1406.391290,-10725.336972
963.978626,518.144159,962.267725,-10112.460574
963.978946,1998.556043,1406.391290,-11184.994271
963.979266,2590.720797,2072.576638,-11261.603821
963.979586,444.123565,1850.514855,-10801.946522
963.979906,-1480.411884,296.082377,-10572.117872
963.980226,-444.123565,518.144159,-9576.193725
963.980546,1554.432478,-740.205942,-10495.508323
963.980866,814.226536,-1554.432478,-10572.117872
963.981186,-1702.473667,-2220.617826,-9882.631924
963.981505,-1554.432478,-370.102971,-9652.803275
963.981825,1702.473667,888.247130,-10418.898773
963.982145,3182.885551,1924.535449,-10265.679673
963.982465,-444.123565,1628.453072,-9806.022374
963.982785,-2886.803174,1998.556043,-10189.070123
963.983105,-1702.473667,1258.350101,-10265.679673
963.983425,-296.082377,370.102971,-10572.117872
963.983745,296.082377,-1184.329507,-9806.022374
963.984065,-3552.988522,-1258.350101,-8656.879127
963.984385,-4145.153275,-1480.411884,-9729.412825
963.984704,-3701.029710,-1036.288319,-9576.193725
963.985024,-2146.597232,222.061783,-9729.412825
963.985344,-2516.700203,518.144159,-9576.193725
963.985664,-1110.308913,1406.391290,-9269.755526
963.985984,1776.494261,1184.329507,-9882.631924
963.986304,3256.906145,1702.473667,-10572.117872
963.986624,1998.556043,-962.267725,-9959.241474
963.986944,296.082377,-1998.556043,-9959.241474
963.987264,1110.308913,-1776.494261,-9576.193725
963.987584,1776.494261,-740.205942,-10801.946522
963.987903,518.144159,1258.350101,-10342.289223
963.988223,-2294.638420,2590.720797,-10418.898773
963.988543,-1184.329507,2146.597232,-10265.679673
963.988863,1850.514855,962.267725,-10418.898773
963.989183,1776.494261,-2516.700203,-10418.898773
963.989503,-518.144159,-2146.597232,-10189.070123
963.989823,-962.267725,-2294.638420,-10112.460574
963.990143,-148.041188,-592.164754,-9576.193725
963.990463,296.082377,814.226536,-10265.679673
963.990782,1702.473667,3552.988522,-10725.336972
963.991102,3627.009116,2072.576638,-10342.289223
963.991422,6957.935855,1998.556043,-10878.556072
963.991742,6587.832884,1406.391290,-10648.727422
963.992062,3849.070898,-370.102971,-10725.336972
963.992382,2738.761985,-1850.514855,-10112.460574
963.992702,1554.432478,-1184.329507,-9116.536426
963.993022,592.164754,222.061783,-9422.974625
963.993342,2368.659014,296.082377,-9882.631924
963.993662,2368.659014,0.000000,-9039.926876
963.993981,1480.411884,222.061783,-10495.508323
963.994301,1332.370696,1776.494261,-9806.022374
963.994621,1480.411884,0.000000,-10112.460574
963.994941,2220.617826,222.061783,-10418.898773
963.995261,962.267725,0.000000,-9806.022374
963.995581,0.000000,592.164754,-9882.631924
963.995901,0.000000,666.185348,-10035.851024
963.996221,2442.679609,-444.123565,-9499.584175
963.996541,962.267725,1628.453072,-10648.727422
963.996861,-296.082377,1628.453072,-10572.117872
963.997180,-370.102971,2294.638420,-9652.803275
963.997500,444.123565,1184.329507,-10572.117872
963.997820,-370.102971,296.082377,-10189.070123
963.998140,-2590.720797,-1924.535449,-9652.803275
963.998460,-2590.720797,-3108.864956,-9806.022374
963.998780,-2516.700203,-2442.679609,-9729.412825
963.999100,-2220.617826,888.247130,-10112.460574
963.999420,-962.267725,3997.112087,-10878.556072
963.999740,-2220.617826,3701.029710,-10418.898773
964.000060,-2220.617826,3627.009116,-10189.070123
964.000379,-2072.576638,1258.350101,-10112.460574
964.000699,-1036.288319,1036.288319,-10112.460574
964.001019,-814.226536,-592.164754,-10495.508323
964.001339,-370.102971,-1036.288319,-9882.631924
964.001659,-1480.411884,-814.226536,-10035.851024
964.001979,-1628.453072,0.000000,-9729.412825
964.002299,0.000000,222.061783,-9652.803275
964.002619,444.123565,814.226536,-10801.946522
964.002939,1406.391290,1036.288319,-8427.050478
964.003259,1850.514855,814.226536,-10648.727422
964.003578,1702.473667,-666.185348,-10035.851024
964.003898,0.000000,148.041188,-8886.707777
964.004218,-222.061783,1776.494261,-10035.851024
964.004538,1184.329507,1924.535449,-10035.851024
964.004858,2294.638420,2072.576638,-10265.679673
964.005178,-148.041188,962.267725,-10189.070123
964.005498,-1998.556043,-148.041188,-8656.879127
964.005818,0.000000,-740.205942,-9499.584175
964.006138,3404.947333,-740.205942,-9806.022374
964.006458,1406.391290,-666.185348,-10495.508323
964.006777,148.041188,-518.144159,-9193.145976
964.007097,666.185348,148.041188,-9576.193725
964.007417,4885.359217,1332.370696,-9882.631924
964.007737,7846.182985,1776.494261,-10572.117872
964.008057,8068.244768,1406.391290,-10035.851024
964.008377,6217.729913,1258.350101,-9959.241474
964.008697,4145.153275,148.041188,-11031.775171
964.009017,3256.906145,-740.205942,-10418.898773
964.009337,296.082377,222.061783,-10342.289223
964.009656,-518.144159,296.082377,-10725.336972
964.009976,-1110.308913,592.164754,-11108.384721
964.010296,-2960.823768,-666.185348,-10572.117872
964.010616,-2442.679609,-1332.370696,-10189.070123
964.010936,-2738.761985,-222.061783,-10189.070123
964.011256,-1850.514855,296.082377,-10112.460574
964.011576,-296.082377,-444.123565,-9806.022374
964.011896,1924.535449,592.164754,-10265.679673
964.012216,592.164754,888.247130,-10955.165621
964.012536,74.020594,2294.638420,-9959.241474
964.012855,148.041188,3330.926739,-10725.336972
964.013175,1036.288319,1924.535449,-10572.117872
964.013495,1850.514855,888.247130,-9499.584175
964.013815,444.123565,-814.226536,-10801.946522
964.014135,1554.432478,-518.144159,-9806.022374
964.014455,74.020594,0.000000,-9729.412825
964.014775,-2368.659014,1110.308913,-10342.289223
964.015095,-1036.288319,2368.659014,-9193.145976
964.015415,148.041188,3627.009116,-10418.898773
964.015735,0.000000,2590.720797,-10342.289223
964.016054,1110.308913,740.205942,-9806.022374
964.016374,1184.329507,370.102971,-9806.022374
964.016694,2220.617826,888.247130,-9882.631924
964.017014,2516.700203,2294.638420,-10112.460574
964.017334,2590.720797,2442.679609,-10418.898773
964.017654,2960.823768,1998.556043,-9499.584175
964.017974,3552.988522,1332.370696,-9882.631924
964.018294,2146.597232,444.123565,-10035.851024
964.018614,148.041188,518.144159,-9039.926876
964.018934,1480.411884,1184.329507,-10495.508323
964.019253,4515.256246,2294.638420,-10035.851024
964.019573,3552.988522,3552.988522,-10342.289223
964.019893,2294.638420,3330.926739,-10495.508323
964.020213,3478.967927,2664.741391,-9959.241474
964.020533,5181.441594,2442.679609,-9959.241474
964.020853,8364.327145,2442.679609,-10801.946522
964.021173,4589.276840,2072.576638,-9806.022374
964.021493,-740.205942,2368.659014,-9882.631924
964.021813,-518.144159,3182.885551,-9806.022374
964.022133,2220.617826,4293.194464,-10572.117872
964.022452,3108.864956,5329.482782,-10418.898773
964.022772,3256.906145,3478.967927,-11644.651570
964.023092,3478.967927,74.020594,-10342.289223
964.023412,3478.967927,-1406.391290,-9806.022374
964.023732,2886.803174,0.000000,-9729.412825
964.024052,1480.411884,2516.700203,-9729.412825
964.024372,148.041188,4885.359217,-10648.727422
964.024692,592.164754,5773.606348,-10648.727422
964.025012,1628.453072,3997.112087,-10418.898773
964.025331,4145.153275,2294.638420,-10265.679673
964.025651,4293.194464,962.267725,-10265.679673
964.025971,2220.617826,814.226536,-10648.727422
964.026291,296.082377,814.226536,-9806.022374
964.026611,-814.226536,2220.617826,-10495.508323
964.026931,0.000000,2738.761985,-10418.898773
964.027251,-666.185348,3108.864956,-9959.241474
964.027571,-3108.864956,3256.906145,-10342.289223
964.027891,-1850.514855,2960.823768,-9882.631924
964.028211,2664.741391,2146.597232,-10725.336972
964.028530,4145.153275,666.185348,-10725.336972
964.028850,3627.009116,962.267725,-9269.755526
964.029170,1036.288319,1850.514855,-10572.117872
964.029490,2368.659014,4367.215058,-10112.460574
964.029810,3627.009116,5181.441594,-10035.851024
964.030130,3478.967927,4515.256246,-10801.946522
964.030450,4071.132681,2738.761985,-9882.631924
964.030770,740.205942,740.205942,-10112.460574
964.031090,888.247130,592.164754,-9882.631924
964.031410,2664.741391,1184.329507,-9269.755526
964.031729,3404.947333,3775.050304,-10418.898773
964.032049,3330.926739,4367.215058,-9959.241474
964.032369,2442.679609,3552.988522,-9959.241474
964.032689,2590.720797,2220.617826,-10495.508323
964.033009,3108.864956,1406.391290,-8580.269578
964.033329,4145.153275,1924.535449,-9959.241474
964.033649,4959.379811,1480.411884,-10112.460574
964.033969,6217.729913,1036.288319,-9116.536426
964.034289,5477.523971,2368.659014,-10035.851024
964.034609,4441.235652,3034.844362,-10725.336972
964.034928,2368.659014,3775.050304,-9806.022374
964.035248,222.061783,3997.112087,-10878.556072
964.035568,2146.597232,3552.988522,-10955.165621
964.035888,2812.782580,3182.885551,-9806.022374
964.036208,3256.906145,3108.864956,-11031.775171
964.036528,3404.947333,2368.659014,-10112.460574
964.036848,2368.659014,1998.556043,-9729.412825
964.037168,2960.823768,2664.741391,-11108.384721
964.037488,4515.256246,2664.741391,-9729.412825
964.037808,4959.379811,1332.370696,-10342.289223
964.038127,3404.947333,962.267725,-10342.289223
964.038447,2886.803174,592.164754,-10265.679673
964.038767,1332.370696,2146.597232,-10495.508323
964.039087,1332.370696,3627.009116,-10342.289223
964.039407,1850.514855,3478.967927,-10418.898773
964.039727,2294.638420,2886.803174,-10265.679673
964.040047,1924.535449,1332.370696,-10265.679673
964.040367,666.185348,296.082377,-10189.070123
964.040687,-148.041188,518.144159,-9806.022374
964.041007,-148.041188,962.267725,-9806.022374
964.041326,1850.514855,1406.391290,-9652.803275
964.041646,2886.803174,2812.782580,-9806.022374
964.041966,2146.597232,3478.967927,-10112.460574
964.042286,1258.350101,4663.297435,-9729.412825
964.042606,1924.535449,4737.318029,-10495.508323
964.042926,1776.494261,3997.112087,-10189.070123
964.043246,740.205942,1776.494261,-9346.365076
964.043566,-370.102971,-370.102971,-9422.974625
964.043886,-370.102971,-666.185348,-9346.365076
964.044205,0.000000,-222.061783,-9039.926876
964.044525,-666.185348,2072.576638,-9806.022374
964.044845,222.061783,4071.132681,-9959.241474
964.045165,1406.391290,5329.482782,-10265.679673
964.045485,2146.597232,4737.318029,-10265.679673
964.045805,2146.597232,3849.070898,-9806.022374
964.046125,2368.659014,1998.556043,-10035.851024
964.046445,3404.947333,740.205942,-9806.022374
964.046765,3849.070898,888.247130,-9806.022374
964.047085,2812.782580,1554.432478,-9959.241474
964.047404,3627.009116,2886.803174,-10572.117872
964.047724,3034.844362,3701.029710,-10342.289223
964.048044,1036.288319,4959.379811,-10648.727422
964.048364,148.041188,5699.585753,-10189.070123
964.048684,1998.556043,4145.153275,-10648.727422
964.049004,4515.256246,2738.761985,-10572.117872
964.049324,4441.235652,1702.473667,-10648.727422
964.049644,4145.153275,1702.473667,-10035.851024
964.049964,3701.029710,3108.864956,-11338.213370
964.050284,4737.318029,3923.091493,-10725.336972
964.050603,3997.112087,5773.606348,-10801.946522
964.050923,2738.761985,6069.688724,-10495.508323
964.051243,2146.597232,4885.359217,-10189.070123
964.051563,3775.050304,2442.679609,-10112.460574
964.051883,6069.688724,1036.288319,-9882.631924
964.052203,5625.565159,370.102971,-9729.412825
964.052523,4737.318029,1554.432478,-9576.193725
964.052843,5181.441594,2516.700203,-9652.803275
964.053163,5107.421000,4737.318029,-9882.631924
964.053483,4219.173869,5847.626942,-10495.508323
964.053802,2220.617826,5107.421000,-10035.851024
964.054122,1776.494261,3627.009116,-9652.803275
964.054442,1702.473667,1554.432478,-9806.022374
964.054762,2960.823768,518.144159,-9576.193725
964.055082,1924.535449,148.041188,-9576.193725
964.055402,1036.288319,814.226536,-9729.412825
964.055722,1776.494261,1998.556043,-9729.412825
964.056042,2812.782580,3330.926739,-9882.631924
964.056362,4589.276840,4589.276840,-10495.508323
964.056682,3701.029710,4737.318029,-10418.898773
964.057001,1258.350101,4441.235652,-10342.289223
964.057321,222.061783,3108.864956,-9806.022374
964.057641,74.020594,1628.453072,-9882.631924
964.057961,518.144159,740.205942,-10648.727422
964.058281,1480.411884,0.000000,-9806.022374
964.058601,148.041188,222.061783,-10112.460574
964.058921,-1480.411884,1628.453072,-10418.898773
964.059241,-1554.432478,2886.803174,-9806.022374
964.059561,-1036.288319,4219.173869,-10112.460574
964.059880,1110.308913,3404.947333,-9882.631924
964.060200,2294.638420,1850.514855,-10112.460574
964.060520,2294.638420,592.164754,-10342.289223
964.060840,1554.432478,666.185348,-10189.070123
964.061160,1332.370696,1554.432478,-9193.145976
964.061480,2072.576638,2590.720797,-10189.070123
964.061800,3478.967927,2368.659014,-10189.070123
964.062120,2812.782580,1776.494261,-10418.898773
964.062440,2220.617826,1702.473667,-10342.289223
964.062760,2516.700203,2590.720797,-9806.022374
964.063079,2294.638420,3627.009116,-10112.460574
964.063399,2294.638420,3849.070898,-10189.070123
964.063719,2590.720797,1998.556043,-9959.241474
964.064039,3182.885551,740.205942,-9882.631924
964.064359,2886.803174,74.020594,-10189.070123
964.064679,2368.659014,962.267725,-10035.851024
964.064999,2368.659014,2590.720797,-10265.679673
964.065319,2738.761985,3997.112087,-10112.460574
964.065639,2738.761985,3775.050304,-10035.851024
964.065959,3108.864956,1924.535449,-9882.631924
964.066279,3997.112087,296.082377,-9806.022374
964.066599,4885.359217,-518.144159,-9959.241474
964.066919,5033.400406,1036.288319,-10265.679673
964.067239,4737.318029,2664.741391,-10342.289223
964.067559,4885.359217,4441.235652,-10265.679673
964.067878,4737.318029,4663.297435,-10265.679673
964.068198,3404.947333,4589.276840,-10572.117872
964.068518,1480.411884,3627.009116,-10495.508323
964.068838,0.000000,1850.514855,-10418.898773
964.069158,1406.391290,0.000000,-9882.631924
964.069478,2368.659014,-888.247130,-9959.241474
964.069798,2368.659014,0.000000,-9652.803275
964.070118,2220.617826,1998.556043,-9652.803275
964.070438,2516.700203,5033.400406,-9959.241474
964.070758,4367.215058,6957.935855,-10572.117872
964.071078,4737.318029,7476.080014,-11031.775171
964.071398,3552.988522,5847.626942,-10648.727422
964.071718,1850.514855,3108.864956,-10418.898773
964.072038,222.061783,962.267725,-10112.460574
964.072358,-888.247130,74.020594,-9652.803275
964.072678,-1036.288319,518.144159,-9346.365076
964.072998,-296.082377,888.247130,-9576.193725
964.073318,296.082377,1998.556043,-9576.193725
964.073638,1036.288319,2886.803174,-9882.631924
964.073957,2368.659014,4811.338623,-9652.803275
964.074277,4367.215058,5625.565159,-10342.289223
964.074597,5625.565159,6143.709319,-10495.508323
964.074917,5033.400406,5181.441594,-10189.070123
964.075237,3330.926739,3923.091493,-10112.460574
964.075557,1776.494261,2738.761985,-10189.070123
964.075877,962.267725,2294.638420,-10035.851024
964.076197,444.123565,2664.741391,-9882.631924
964.076517,-222.061783,2812.782580,-9806.022374
964.076837,-1184.329507,2146.597232,-9806.022374
964.077157,-1258.350101,1406.391290,-9346.365076
964.077477,444.123565,1036.288319,-9652.803275
964.077797,2590.720797,1480.411884,-9729.412825
964.078117,4737.318029,2590.720797,-9806.022374
964.078437,6365.771101,3775.050304,-9806.022374
964.078757,6883.915261,5255.462188,-10342.289223
964.079077,6143.709319,5773.606348,-10418.898773
964.079397,4071.132681,5847.626942,-10801.946522
964.079717,2294.638420,4737.318029,-10342.289223
964.080037,1332.370696,3034.844362,-10189.070123
964.080356,740.205942,1258.350101,-9806.022374
964.080676,0.000000,0.000000,-9576.193725
964.080996,-592.164754,-222.061783,-9422.974625
964.081316,-592.164754,592.164754,-9499.584175
964.081636,740.205942,1850.514855,-9499.584175
964.081956,2664.741391,2960.823768,-9959.241474
964.082276,4811.338623,2960.823768,-9959.241474
964.082596,6069.688724,2442.679609,-10035.851024
964.082916,5403.503377,1406.391290,-10112.460574
964.083236,2368.659014,1480.411884,-10189.070123
964.083556,-740.205942,2220.617826,-9959.241474
964.083876,-1776.494261,2812.782580,-9806.022374
964.084196,-1184.329507,2516.700203,-10418.898773
964.084516,-1110.308913,592.164754,-10265.679673
964.084836,-666.185348,-1036.288319,-10112.460574
964.085156,-296.082377,-1480.411884,-10112.460574
964.085476,888.247130,-148.041188,-9806.022374
964.085796,1480.411884,2294.638420,-10265.679673
964.086116,2886.803174,4367.215058,-10725.336972
964.086436,4219.173869,4737.318029,-10725.336972
964.086755,3775.050304,4071.132681,-10725.336972
964.087075,3034.844362,2664.741391,-10265.679673
964.087395,2590.720797,2368.659014,-10572.117872
964.087715,2146.597232,1850.514855,-10342.289223
964.088035,1554.432478,1184.329507,-9882.631924
964.088355,888.247130,888.247130,-9729.412825
964.088675,1110.308913,592.164754,-9576.193725
964.088995,2220.617826,888.247130,-9882.631924
964.089315,3330.926739,1776.494261,-10112.460574
964.089635,4441.235652,2738.761985,-10955.165621
964.089955,5847.626942,3701.029710,-9806.022374
964.090275,7254.018232,3701.029710,-10035.851024
964.090595,7994.224174,4071.132681,-10189.070123
964.090915,7772.162391,4367.215058,-10418.898773
964.091235,6217.729913,5107.421000,-11338.213370
964.091555,4515.256246,5107.421000,-10342.289223
964.091875,2146.597232,4441.235652,-10035.851024
964.092195,740.205942,2146.597232,-9806.022374
964.092515,74.020594,148.041188,-9576.193725
964.092834,666.185348,-666.185348,-9422.974625
964.093154,1850.514855,-370.102971,-9806.022374
964.093474,3256.906145,1332.370696,-9729.412825
964.093794,4737.318029,3923.091493,-9959.241474
964.094114,6365.771101,5329.482782,-10342.289223
964.094434,6513.812290,7402.059420,-10342.289223
964.094754,5477.523971,7179.997637,-10572.117872
964.095074,4293.194464,6217.729913,-10418.898773
964.095394,2886.803174,4589.276840,-10418.898773
964.095714,2664.741391,3034.844362,-10265.679673
964.096034,1332.370696,2294.638420,-10189.070123
964.096354,-1924.535449,2442.679609,-10112.460574
964.096674,-3923.091493,3108.864956,-9806.022374
964.096994,-3552.988522,3108.864956,-9959.241474
964.097314,-1110.308913,2812.782580,-9882.631924
964.097634,962.267725,2146.597232,-10035.851024
964.097954,2072.576638,2146.597232,-9959.241474
964.098274,2886.803174,2664.741391,-10035.851024
964.098594,3256.906145,4737.318029,-10112.460574
964.098914,4515.256246,6217.729913,-10342.289223
964.099233,5255.462188,6365.771101,-10572.117872
964.099553,3552.988522,5033.400406,-10572.117872
964.099873,74.020594,3404.947333,-9806.022374
964.100193,-2442.679609,1776.494261,-9959.241474
964.100513,-2590.720797,444.123565,-9652.803275
964.100833,-1702.473667,-148.041188,-9729.412825
964.101153,-1332.370696,-740.205942,-8580.269578
964.101473,-592.164754,-296.082377,-9116.536426
964.101793,1332.370696,1332.370696,-9499.584175
964.102113,4293.194464,3627.009116,-9806.022374
964.102433,6143.709319,5995.668130,-10572.117872
964.102753,6291.750507,6957.935855,-10648.727422
964.103073,5403.503377,5773.606348,-10189.070123
964.103393,4293.194464,3478.967927,-10189.070123
964.103713,2368.659014,1036.288319,-10035.851024
964.104033,444.123565,0.000000,-9499.584175
964.104353,962.267725,-666.185348,-10035.851024
964.104673,1406.391290,-370.102971,-10035.851024
964.104993,666.185348,888.247130,-9959.241474
964.105313,148.041188,2442.679609,-9806.022374
964.105632,1924.535449,3552.988522,-10265.679673
964.105952,4811.338623,3478.967927,-10418.898773
964.106272,7328.038826,3108.864956,-10648.727422
964.106592,8808.450710,2368.659014,-10801.946522
964.106912,7772.162391,2886.803174,-11108.384721
964.107232,5477.523971,3330.926739,-10955.165621
964.107552,2368.659014,4219.173869,-10418.898773
964.107872,444.123565,3256.906145,-10725.336972
964.108192,296.082377,1850.514855,-10112.460574
964.108512,1184.329507,-370.102971,-10189.070123
964.108832,740.205942,-1776.494261,-10342.289223
964.109152,-148.041188,-1258.350101,-9499.584175
964.109472,0.000000,222.061783,-9806.022374
964.109792,2664.741391,1924.535449,-9806.022374
964.110112,5107.421000,2886.803174,-9729.412825
964.110432,6439.791695,3849.070898,-10112.460574
964.110752,6883.915261,3256.906145,-10342.289223
964.111072,5773.606348,3478.967927,-9806.022374
964.111392,3330.926739,3330.926739,-10035.851024
964.111711,1332.370696,2368.659014,-9959.241474
964.112031,74.020594,1110.308913,-9499.584175
964.112351,-1702.473667,-222.061783,-9806.022374
964.112671,-3330.926739,-1406.391290,-9269.755526
964.112991,-4737.318029,-592.164754,-9499.584175
964.113311,-3330.926739,0.000000,-9806.022374
964.113631,1406.391290,370.102971,-9346.365076
964.113951,4293.194464,1776.494261,-10342.289223
964.114271,4219.173869,2886.803174,-10572.117872
964.114591,3256.906145,4071.132681,-9806.022374
964.114911,4071.132681,5255.462188,-10801.946522
964.115231,5625.565159,5625.565159,-10878.556072
964.115551,4737.318029,4737.318029,-10648.727422
964.115871,2072.576638,3108.864956,-10878.556072
964.116191,-666.185348,1258.350101,-9576.193725
964.116511,-1998.556043,444.123565,-9959.241474
964.116831,-2072.576638,666.185348,-10189.070123
964.117151,-2220.617826,1036.288319,-9652.803275
964.117471,-1998.556043,1998.556043,-10035.851024
964.117791,1258.350101,2294.638420,-10495.508323
964.118110,5329.482782,3182.885551,-10189.070123
964.118430,6883.915261,4589.276840,-10955.165621
964.118750,6587.832884,5847.626942,-10495.508323
964.119070,5995.668130,6069.688724,-10495.508323
964.119390,6291.750507,5403.503377,-10725.336972
964.119710,5921.647536,4811.338623,-12104.308868
964.120030,3478.967927,3997.112087,-10342.289223
964.120350,1406.391290,3552.988522,-10572.117872
964.120670,296.082377,3108.864956,-9576.193725
964.120990,-740.205942,2960.823768,-9806.022374
964.121310,-1036.288319,1702.473667,-9116.536426
964.121630,222.061783,1332.370696,-9039.926876
964.121950,3330.926739,1480.411884,-9729.412825
964.122270,6143.709319,2516.700203,-9729.412825
964.122590,7031.956449,4293.194464,-9806.022374
964.122910,6365.771101,5773.606348,-9959.241474
964.123230,6661.853478,6513.812290,-10112.460574
964.123550,6513.812290,6365.771101,-10572.117872
964.123870,4293.194464,4885.359217,-10342.289223
964.124190,1480.411884,3256.906145,-9729.412825
964.124509,0.000000,1702.473667,-9729.412825
964.124829,-592.164754,592.164754,-9422.974625
964.125149,-1258.350101,148.041188,-9499.584175
964.125469,-3330.926739,-444.123565,-9039.926876
964.125789,-518.144159,-444.123565,-9576.193725
964.126109,1998.556043,1184.329507,-9806.022374
964.126429,4811.338623,2886.803174,-10265.679673
964.126749,5181.441594,5625.565159,-10265.679673
964.127069,5181.441594,6957.935855,-10572.117872
964.127389,4959.379811,6439.791695,-10265.679673
964.127709,3997.112087,4959.379811,-10801.946522
964.128029,962.267725,2812.782580,-10418.898773
964.128349,-1110.308913,148.041188,-9806.022374
964.128669,-2146.597232,-370.102971,-10189.070123
964.128989,-1702.473667,-666.185348,-10035.851024
964.129309,-2294.638420,296.082377,-9729.412825
964.129629,-1480.411884,1480.411884,-9193.145976
964.129949,518.144159,2738.761985,-10035.851024
964.130269,3404.947333,3775.050304,-10342.289223
964.130588,4737.318029,5033.400406,-10342.289223
964.130908,5329.482782,4959.379811,-10648.727422
964.131228,6291.750507,3701.029710,-10955.165621
964.131548,5995.668130,888.247130,-10342.289223
964.131868,3997.112087,148.041188,-10265.679673
964.132188,1110.308913,2072.576638,-10648.727422
964.132508,-888.247130,4367.215058,-9882.631924
964.132828,-666.185348,4737.318029,-10725.336972
964.133148,-148.041188,3108.864956,-10265.679673
964.133468,74.020594,1554.432478,-9422.974625
964.133788,1184.329507,0.000000,-9576.193725
964.134108,2738.761985,-518.144159,-9652.803275
964.134428,4293.194464,592.164754,-9576.193725
964.134748,6069.688724,2516.700203,-10189.070123
964.135068,7105.977043,2220.617826,-10035.851024
964.135388,7105.977043,3182.885551,-9346.365076
964.135708,4293.194464,3256.906145,-10189.070123
964.136028,2812.782580,3775.050304,-10342.289223
964.136348,2294.638420,4145.153275,-10648.727422
964.136668,222.061783,3256.906145,-11261.603821
964.136987,222.061783,222.061783,-9499.584175
964.137307,-370.102971,-2516.700203,-9652.803275
964.137627,-1184.329507,-3701.029710,-10035.851024
964.137947,-148.041188,-3256.906145,-9039.926876
964.138267,1554.432478,888.247130,-10342.289223
964.138587,4071.132681,3627.009116,-10648.727422
964.138907,7105.977043,4811.338623,-10035.851024
964.139227,8068.244768,5625.565159,-11414.822920
964.139547,7550.100608,5329.482782,-11261.603821
964.139867,5403.503377,4441.235652,-10648.727422
964.140187,2146.597232,3997.112087,-11338.213370
964.140507,1258.350101,2072.576638,-10342.289223
964.140827,518.144159,814.226536,-9652.803275
964.141147,-888.247130,0.000000,-10418.898773
964.141467,-1110.308913,148.041188,-9729.412825
964.141787,-814.226536,518.144159,-9652.803275
964.142107,814.226536,1924.535449,-10648.727422
964.142427,2590.720797,3552.988522,-9269.755526
964.142747,3182.885551,3923.091493,-10801.946522
964.143067,4145.153275,3997.112087,-9959.241474
964.143386,4515.256246,3108.864956,-9806.022374
964.143706,4663.297435,2886.803174,-10955.165621
964.144026,4959.379811,2812.782580,-9882.631924
964.144346,1776.494261,2738.761985,-9882.631924
964.144666,-740.205942,2368.659014,-9882.631924
964.144986,-1850.514855,1036.288319,-9882.631924
964.145306,-2368.659014,814.226536,-10112.460574
964.145626,-1184.329507,-592.164754,-9806.022374
964.145946,0.000000,0.000000,-9116.536426
964.146266,148.041188,2220.617826,-10418.898773
964.146586,296.082377,2368.659014,-9499.584175
964.146906,666.185348,3552.988522,-10725.336972
964.147226,3330.926739,3182.885551,-10572.117872
964.147546,5107.421000,3404.947333,-9882.631924
964.147866,4293.194464,3256.906145,-10265.679673
964.148186,2294.638420,3775.050304,-10495.508323
964.148506,1850.514855,3330.926739,-9806.022374
964.148826,2368.659014,2368.659014,-10189.070123
964.149146,1702.473667,740.205942,-9806.022374
964.149465,-1184.329507,-666.185348,-9422.974625
964.149785,-3627.009116,-148.041188,-9576.193725
964.150105,-3627.009116,1258.350101,-9039.926876
964.150425,-2072.576638,1480.411884,-10112.460574
964.150745,2664.741391,1702.473667,-9959.241474
964.151065,7031.956449,1554.432478,-11414.822920
964.151385,6735.874072,1184.329507,-10801.946522
964.151705,3256.906145,3256.906145,-10572.117872
964.152025,1332.370696,4589.276840,-10418.898773
964.152345,1184.329507,5403.503377,-11261.603821
964.152665,2664.741391,3330.926739,-10725.336972
964.152985,2220.617826,-296.082377,-10035.851024
964.153305,518.144159,-4071.132681,-9729.412825
964.153625,-592.164754,-3182.885551,-9806.022374
964.153945,-370.102971,-1036.288319,-9806.022374
964.154265,2146.597232,2220.617826,-10035.851024
964.154585,2960.823768,3330.926739,-11031.775171
964.154905,2072.576638,2368.659014,-10342.289223
964.155225,2072.576638,1184.329507,-10189.070123
964.155545,2738.761985,740.205942,-10342.289223
964.155864,2368.659014,1924.535449,-10112.460574
964.156184,2368.659014,1998.556043,-10418.898773
964.156504,2886.803174,-222.061783,-10648.727422
964.156824,2664.741391,-1776.494261,-9422.974625
964.157144,296.082377,-1036.288319,-10035.851024
964.157464,-888.247130,592.164754,-10189.070123
964.157784,-222.061783,518.144159,-9882.631924
964.158104,444.123565,-148.041188,-9652.803275
964.158424,2442.679609,-222.061783,-10495.508323
964.158744,296.082377,-592.164754,-9806.022374
964.159064,-2072.576638,-666.185348,-10035.851024
964.159384,-2590.720797,370.102971,-10035.851024
964.159704,1110.308913,1036.288319,-10342.289223
964.160024,2368.659014,518.144159,-10265.679673
964.160344,1110.308913,-666.185348,-9959.241474
964.160664,-1850.514855,-1628.453072,-9729.412825
964.160984,-4959.379811,0.000000,-10112.460574
964.161304,-5033.400406,148.041188,-10189.070123
964.161624,-2294.638420,962.267725,-9806.022374
964.161944,-1110.308913,222.061783,-9959.241474
964.162263,518.144159,222.061783,-9806.022374
964.162583,1036.288319,74.020594,-10418.898773
964.162903,2738.761985,296.082377,-10189.070123
964.163223,2812.782580,888.247130,-9422.974625
964.163543,1628.453072,1110.308913,-11108.384721
964.163863,962.267725,666.185348,-9959.241474
964.164183,-370.102971,-370.102971,-9806.022374
964.164503,-666.185348,296.082377,-9959.241474
964.164823,-592.164754,1480.411884,-10418.898773
964.165143,-962.267725,2368.659014,-10342.289223
964.165463,-1998.556043,1332.370696,-10112.460574
964.165783,-1406.391290,-518.144159,-9499.584175
964.166103,-2146.597232,-2220.617826,-10035.851024
964.166423,-1702.473667,-4515.256246,-9576.193725
964.166743,444.123565,-3701.029710,-9193.145976
964.167063,1702.473667,-370.102971,-10495.508323
964.167383,1850.514855,1332.370696,-9806.022374
964.167703,2294.638420,2368.659014,-10112.460574
964.168023,3849.070898,2664.741391,-10189.070123
964.168343,3923.091493,1554.432478,-10189.070123
964.168663,1480.411884,1850.514855,-11108.384721
964.168983,296.082377,-222.061783,-10265.679673
964.169303,296.082377,-2590.720797,-9729.412825
964.169623,1554.432478,-2442.679609,-10418.898773
964.169943,1258.350101,-740.205942,-10342.289223
964.170263,296.082377,2146.597232,-10265.679673
964.170583,370.102971,3404.947333,-10648.727422
964.170903,2220.617826,3478.967927,-10725.336972
964.171223,3108.864956,1406.391290,-10495.508323
964.171543,3923.091493,-666.185348,-10342.289223
964.171863,2294.638420,-1776.494261,-9652.803275
964.172183,740.205942,-148.041188,-9959.241474
964.172503,-518.144159,666.185348,-10265.679673
964.172823,-222.061783,1406.391290,-9499.584175
964.173142,-296.082377,0.000000,-9729.412825
964.173462,222.061783,-296.082377,-9729.412825
964.173782,-962.267725,-518.144159,-9576.193725
964.174102,-592.164754,740.205942,-9499.584175
964.174422,1480.411884,2220.617826,-10189.070123
964.174742,4367.215058,740.205942,-10572.117872
964.175062,2960.823768,-222.061783,-10189.070123
964.175382,0.000000,0.000000,-8656.879127
964.175702,-1554.432478,2220.617826,-9806.022374
964.176022,-1036.288319,3330.926739,-10955.165621
964.176342,-666.185348,3849.070898,-10801.946522
964.176662,-1702.473667,1036.288319,-9193.145976
964.176982,-1628.453072,-666.185348,-9576.193725
964.177302,-666.185348,-2146.597232,-9806.022374
964.177622,592.164754,-1850.514855,-10112.460574
964.177942,-888.247130,1628.453072,-10189.070123
964.178262,-1184.329507,1998.556043,-10189.070123
964.178582,-1924.535449,2960.823768,-9729.412825
964.178902,-1036.288319,1924.535449,-9806.022374
964.179222,1628.453072,1036.288319,-10189.070123
964.179542,1406.391290,592.164754,-10112.460574
964.179862,222.061783,148.041188,-9806.022374
964.180182,-1184.329507,148.041188,-10725.336972
964.180502,148.041188,0.000000,-10342.289223
964.180822,-444.123565,518.144159,-9806.022374
964.181142,-1628.453072,740.205942,-9882.631924
964.181462,-1776.494261,1776.494261,-9499.584175
964.181782,-1480.411884,2294.638420,-9806.022374
964.182102,222.061783,-296.082377,-9806.022374
964.182422,3923.091493,-2590.720797,-9499.584175
964.182742,5181.441594,-3775.050304,-9652.803275
964.183062,2368.659014,-2738.761985,-8963.317327
964.183382,1554.432478,296.082377,-10265.679673
964.183702,1036.288319,2960.823768,-10342.289223
964.184022,1554.432478,3701.029710,-9652.803275
964.184342,2812.782580,3701.029710,-10495.508323
964.184662,2590.720797,518.144159,-10112.460574
964.184982,2146.597232,-2146.597232,-10112.460574
964.185302,2442.679609,-2664.741391,-10495.508323
964.185622,2664.741391,-296.082377,-9193.145976
964.185942,2738.761985,0.000000,-10572.117872
964.186261,2738.761985,74.020594,-10342.289223
964.186581,-444.123565,888.247130,-10342.289223
964.186901,0.000000,1998.556043,-10955.165621
964.187221,2146.597232,2590.720797,-10342.289223
964.187541,2146.597232,1110.308913,-10725.336972
964.187861,1110.308913,-1036.288319,-9806.022374
964.188181,666.185348,-3552.988522,-9499.584175
964.188501,74.020594,-3330.926739,-9806.022374
964.188821,1036.288319,-1850.514855,-10495.508323
964.189141,2220.617826,1480.411884,-10112.460574
964.189461,666.185348,2886.803174,-10572.117872
964.189781,-1480.411884,2294.638420,-10648.727422
964.190101,-3701.029710,0.000000,-9422.974625
964.190421,-4145.153275,-1480.411884,-10112.460574
964.190741,-1406.391290,-666.185348,-9882.631924
964.191061,888.247130,-666.185348,-11874.480219
964.191381,814.226536,1110.308913,-10801.946522
964.191701,0.000000,1332.370696,-10112.460574
964.192021,-2220.617826,-296.082377,-9806.022374
964.192341,-3552.988522,0.000000,-9806.022374
964.192661,-4959.379811,-444.123565,-9422.974625
964.192981,-5773.606348,-2220.617826,-9346.365076
964.193301,-2516.700203,-3478.967927,-9116.536426
964.193621,2442.679609,-1998.556043,-9806.022374
964.193941,3849.070898,74.020594,-10035.851024
964.194261,2590.720797,2368.659014,-10189.070123
964.194581,444.123565,2072.576638,-10495.508323
964.194901,740.205942,0.000000,-9576.193725
964.195221,-962.267725,-2738.761985,-9806.022374
964.195541,-2590.720797,-3478.967927,-8886.707777
964.195861,-2220.617826,-2664.741391,-9729.412825
964.196181,740.205942,-666.185348,-10265.679673
964.196501,2368.659014,1702.473667,-10112.460574
964.196821,3552.988522,2220.617826,-10112.460574
964.197141,4367.215058,1554.432478,-10572.117872
964.197461,2960.823768,-666.185348,-10495.508323
964.197781,-444.123565,-592.164754,-9882.631924
964.198101,-1628.453072,-296.082377,-10801.946522
964.198421,1184.329507,518.144159,-10112.460574
964.198741,2960.823768,666.185348,-10801.946522
964.199060,3701.029710,1554.432478,-10955.165621
964.199380,2738.761985,2368.659014,-10035.851024
964.199700,2146.597232,3182.885551,-12104.308868
964.200020,2960.823768,2812.782580,-10878.556072
964.200340,3552.988522,1036.288319,-10495.508323
964.200660,4145.153275,592.164754,-10648.727422
964.200980,-148.041188,-1702.473667,-11031.775171
964.201300,-4441.235652,-592.164754,-9729.412825
964.201620,-3849.070898,1258.350101,-10342.289223
964.201940,1110.308913,3182.885551,-9806.022374
964.202260,5403.503377,3330.926739,-10648.727422
964.202580,6439.791695,2442.679609,-11338.213370
964.202900,5995.668130,1554.432478,-10035.851024
964.203220,2664.741391,1480.411884,-9959.241474
964.203540,-444.123565,2072.576638,-9882.631924
964.203860,-2368.659014,888.247130,-8733.488677
964.204180,-1850.514855,740.205942,-9346.365076
964.204500,-1406.391290,-962.267725,-9193.145976
964.204820,-5625.565159,-1184.329507,-9729.412825
964.205140,-3552.988522,-222.061783,-9193.145976
964.205460,-1628.453072,1110.308913,-9882.631924
964.205780,2368.659014,1628.453072,-9652.803275
964.206100,2442.679609,2590.720797,-10189.070123
964.206420,888.247130,2590.720797,-9729.412825
964.206740,-1850.514855,1036.288319,-9193.145976
964.207060,222.061783,1036.288319,-10648.727422
964.207380,1036.288319,0.000000,-9422.974625
964.207700,-222.061783,148.041188,-10112.460574
964.208020,-370.102971,-666.185348,-9422.974625
964.208340,-1036.288319,0.000000,-9193.145976
964.208660,-1628.453072,-592.164754,-10648.727422
964.208980,-2368.659014,-222.061783,-10035.851024
964.209300,-4737.318029,-74.020594,-10725.336972
964.209620,-4589.276840,0.000000,-10878.556072
964.209940,-1036.288319,222.061783,-9806.022374
964.210260,2220.617826,0.000000,-10495.508323
964.210580,5033.400406,370.102971,-10648.727422
964.210900,3701.029710,-296.082377,-10801.946522
964.211220,1184.329507,666.185348,-10418.898773
964.211540,1184.329507,666.185348,-10112.460574
964.211860,814.226536,1184.329507,-11338.213370
964.212179,-370.102971,518.144159,-10495.508323
964.212499,-1480.411884,-1702.473667,-9806.022374
964.212819,-1554.432478,-2738.761985,-9806.022374
964.213139,1702.473667,-2664.741391,-10342.289223
964.213459,3478.967927,0.000000,-11491.432470
964.213779,2516.700203,3849.070898,-11414.822920
964.214099,0.000000,5255.462188,-10418.898773
964.214419,74.020594,3627.009116,-10648.727422
964.214739,814.226536,-1480.411884,-10265.679673
964.215059,3034.844362,-7105.977043,-9269.755526
964.215379,1998.556043,-8142.265362,-9346.365076
964.215699,1258.350101,-4737.318029,-8886.707777
964.216019,1776.494261,444.123565,-10418.898773
964.216339,1850.514855,4293.194464,-10189.070123
964.216659,2738.761985,5255.462188,-10035.851024
964.216979,1110.308913,1776.494261,-10648.727422
964.217299,-296.082377,-1406.391290,-9499.584175
964.217619,-1776.494261,-4589.276840,-9652.803275
964.217939,-888.247130,-5625.565159,-8886.707777
964.218259,1406.391290,-3701.029710,-8963.317327
964.218579,1776.494261,-1036.288319,-9652.803275
964.218899,666.185348,888.247130,-9576.193725
964.219219,0.000000,2442.679609,-9652.803275
964.219539,1776.494261,3330.926739,-10801.946522
964.219859,2294.638420,2442.679609,-10189.070123
964.220179,2664.741391,962.267725,-10265.679673
964.220499,888.247130,-592.164754,-10265.679673
964.220819,-1110.308913,-2590.720797,-9959.241474
964.221139,-3849.070898,-962.267725,-10189.070123
964.221459,-2516.700203,222.061783,-10418.898773
964.221779,-3108.864956,1184.329507,-10112.460574
964.222099,-3627.009116,1184.329507,-10112.460574
964.222419,-888.247130,-666.185348,-10495.508323
964.222739,666.185348,-962.267725,-10265.679673
964.223059,1110.308913,-814.226536,-10265.679673
964.223379,-222.061783,1184.329507,-10801.946522
964.223699,-1332.370696,1184.329507,-10342.289223
964.224019,-444.123565,592.164754,-9806.022374
964.224339,1924.535449,-888.247130,-10112.460574
964.224659,2812.782580,-2368.659014,-9806.022374
964.224978,2294.638420,-1776.494261,-9882.631924
964.225298,3478.967927,1406.391290,-10035.851024
964.225618,3256.906145,2368.659014,-10648.727422
964.225938,2368.659014,4219.173869,-9882.631924
964.226258,-518.144159,3552.988522,-9499.584175
964.226578,-1036.288319,-370.102971,-9652.803275
964.226898,518.144159,-1406.391290,-9269.755526
964.227218,518.144159,-2886.803174,-9422.974625
964.227538,3330.926739,-518.144159,-9499.584175
964.227858,3034.844362,666.185348,-9576.193725
964.228178,2738.761985,2886.803174,-9652.803275
964.228498,-1258.350101,2442.679609,-10035.851024
964.228818,888.247130,3478.967927,-10342.289223
964.229138,592.164754,2886.803174,-10112.460574
964.229458,296.082377,962.267725,-9959.241474
964.229778,148.041188,148.041188,-9652.803275
964.230098,888.247130,-1480.411884,-10418.898773
964.230418,2072.576638,-1184.329507,-10265.679673
964.230738,1184.329507,1998.556043,-10035.851024
964.231058,-1406.391290,4441.235652,-10418.898773
964.231378,-1110.308913,4811.338623,-10495.508323
964.231698,814.226536,3552.988522,-10265.679673
964.232018,1110.308913,0.000000,-10648.727422
964.232338,-1702.473667,-1702.473667,-9882.631924
964.232658,-3182.885551,-2812.782580,-9499.584175
964.232978,-1628.453072,-1110.308913,-9806.022374
964.233298,2442.679609,1332.370696,-9806.022374
964.233618,4515.256246,4219.173869,-10878.556072
964.233938,814.226536,2886.803174,-10648.727422
964.234258,-2146.597232,888.247130,-9882.631924
964.234578,-3775.050304,-1036.288319,-9959.241474
964.234898,74.020594,-814.226536,-9806.022374
964.235218,1776.494261,-1924.535449,-9193.145976
964.235538,814.226536,-1480.411884,-10112.460574
964.235858,-1628.453072,0.000000,-8810.098227
964.236178,-1406.391290,0.000000,-10265.679673
964.236498,1332.370696,148.041188,-9422.974625
964.236818,148.041188,148.041188,-9806.022374
964.237138,-888.247130,592.164754,-10189.070123
964.237458,-296.082377,-370.102971,-9422.974625
964.237778,518.144159,-2220.617826,-10342.289223
964.238097,-518.144159,-2368.659014,-9652.803275
964.238417,-1406.391290,-2812.782580,-9806.022374
964.238737,-740.205942,-1036.288319,-9422.974625
964.239057,2590.720797,1406.391290,-10342.289223
964.239377,4145.153275,2072.576638,-11414.822920
964.239697,2146.597232,296.082377,-9576.193725
964.240017,4145.153275,-222.061783,-11031.775171
964.240337,3701.029710,-1850.514855,-9959.241474
964.240657,4145.153275,-1258.350101,-9959.241474
964.240977,1776.494261,592.164754,-10878.556072
964.241297,1036.288319,1480.411884,-10572.117872
964.241617,-222.061783,1036.288319,-10342.289223
964.241937,1850.514855,222.061783,-11261.603821
964.242257,370.102971,-888.247130,-10495.508323
964.242577,-1332.370696,-444.123565,-10801.946522
964.242897,-2072.576638,1998.556043,-11721.261119
964.243217,-444.123565,4071.132681,-10955.165621
964.243537,1554.432478,3256.906145,-10801.946522
964.243857,2886.803174,1036.288319,-9806.022374
964.244177,1184.329507,-1702.473667,-10342.289223
964.244497,518.144159,-3404.947333,-10035.851024
964.244817,2664.741391,-4145.153275,-9806.022374
964.245137,3849.070898,-1850.514855,-9039.926876
964.245457,-370.102971,2072.576638,-10648.727422
964.245777,-2738.761985,5181.441594,-9882.631924
964.246097,-3256.906145,4811.338623,-9346.365076
964.246417,-2146.597232,1480.411884,-9116.536426
964.246737,-222.061783,-2220.617826,-8503.660028
964.247057,-148.041188,-6143.709319,-9269.755526
964.247377,-1628.453072,-5995.668130,-9193.145976
964.247697,-1628.453072,-3034.844362,-8886.707777
964.248017,-1998.556043,1480.411884,-9116.536426
964.248337,0.000000,4737.318029,-9806.022374
964.248657,2220.617826,4219.173869,-10265.679673
964.248977,1924.535449,2368.659014,-10801.946522
964.249297,-666.185348,222.061783,-9652.803275
964.249617,-962.267725,-222.061783,-10342.289223
964.249937,-1036.288319,-888.247130,-10189.070123
964.250257,0.000000,-518.144159,-10035.851024
964.250577,1110.308913,-1184.329507,-10801.946522
964.250896,1258.350101,-814.226536,-9652.803275
964.251216,592.164754,-296.082377,-10648.727422
964.251536,1258.350101,2812.782580,-11108.384721
964.251856,-1332.370696,4441.235652,-11031.775171
964.252176,-1258.350101,6143.709319,-10572.117872
964.252496,1406.391290,2960.823768,-10495.508323
964.252816,3701.029710,-1258.350101,-10572.117872
964.253136,2072.576638,-4737.318029,-9959.241474
964.253456,-2294.638420,-6661.853478,-9499.584175
964.253776,-444.123565,-2516.700203,-9882.631924
964.254096,2738.761985,2368.659014,-10112.460574
964.254416,3627.009116,5181.441594,-10342.289223
964.254736,4663.297435,6069.688724,-10725.336972
964.255056,3849.070898,3627.009116,-10801.946522
964.255376,1184.329507,666.185348,-9959.241474
964.255696,296.082377,-1998.556043,-9422.974625
964.256016,888.247130,-2738.761985,-9269.755526
964.256336,3849.070898,-2960.823768,-9422.974625
964.256656,2442.679609,-1850.514855,-9422.974625
964.256976,-148.041188,148.041188,-9576.193725
964.257296,-1776.494261,1776.494261,-9652.803275
964.257616,-1480.411884,666.185348,-9806.022374
964.257936,-370.102971,814.226536,-9499.584175
964.258256,2220.617826,-666.185348,-10265.679673
964.258576,4441.235652,-1998.556043,-9806.022374
964.258896,3182.885551,-2294.638420,-9806.022374
964.259216,444.123565,-222.061783,-10495.508323
964.259536,-1998.556043,2442.679609,-9576.193725
964.259856,-296.082377,4441.235652,-11031.775171
964.260176,2812.782580,4737.318029,-10418.898773
964.260496,3330.926739,296.082377,-10648.727422
964.260816,1480.411884,-1480.411884,-10495.508323
964.261136,-4737.318029,-3256.906145,-10265.679673
964.261456,-4811.338623,-2812.782580,-10189.070123
964.261776,-5477.523971,-2146.597232,-9346.365076
964.262096,-3552.988522,666.185348,-10265.679673
964.262416,-1110.308913,1850.514855,-9959.241474
964.262736,1184.329507,2072.576638,-9959.241474
964.263056,3404.947333,2146.597232,-11108.384721
964.263376,3849.070898,666.185348,-10495.508323
964.263696,2664.741391,148.041188,-10572.117872
964.264015,1480.411884,814.226536,-10265.679673
964.264335,-1406.391290,2072.576638,-9116.536426
964.264655,-2886.803174,1332.370696,-10265.679673
964.264975,-2368.659014,0.000000,-9652.803275
964.265295,-1554.432478,-2812.782580,-9422.974625
964.265615,-1554.432478,-4293.194464,-9882.631924
964.265935,1332.370696,-3034.844362,-9039.926876
964.266255,1480.411884,-148.041188,-10112.460574
964.266575,74.020594,3478.967927,-10572.117872
964.266895,666.185348,5773.606348,-10035.851024
964.267215,1036.288319,4293.194464,-10418.898773
964.267535,2220.617826,1184.329507,-9499.584175
964.267855,1036.288319,-2220.617826,-9269.755526
964.268175,666.185348,-3034.844362,-9806.022374
964.268495,740.205942,-2072.576638,-9269.755526
964.268815,1332.370696,-1110.308913,-9499.584175
964.269135,1110.308913,370.102971,-9806.022374
964.269455,0.000000,1628.453072,-10495.508323
964.269775,0.000000,2072.576638,-10725.336972
964.270095,-148.041188,1480.411884,-10189.070123
964.270415,962.267725,1850.514855,-10801.946522
964.270735,888.247130,1998.556043,-10112.460574
964.271055,1850.514855,814.226536,-11184.994271
964.271375,4219.173869,-962.267725,-10495.508323
964.271695,4071.132681,592.164754,-10648.727422
964.272015,3478.967927,2886.803174,-11568.042020
964.272334,1554.432478,2368.659014,-11568.042020
964.272654,0.000000,3404.947333,-11797.870669
964.272974,-3330.926739,2516.700203,-10265.679673
964.273294,-4145.153275,1036.288319,-10572.117872
964.273614,-1628.453072,-222.061783,-10648.727422
964.273934,1184.329507,-444.123565,-10955.165621
964.274254,-740.205942,370.102971,-10035.851024
964.274574,1628.453072,4811.338623,-10878.556072
964.274894,3849.070898,5329.482782,-10265.679673
964.275214,4959.379811,2072.576638,-9806.022374
964.275534,1628.453072,-962.267725,-9499.584175
964.275854,-962.267725,-3034.844362,-8810.098227
964.276174,-1184.329507,-2812.782580,-8810.098227
964.276494,-1332.370696,-1554.432478,-8503.660028
964.276814,2146.597232,888.247130,-9193.145976
964.277134,1628.453072,1184.329507,-9806.022374
964.277454,1406.391290,888.247130,-9576.193725
964.277774,-2294.638420,444.123565,-9039.926876
964.278094,-4441.235652,-1776.494261,-7967.393179
964.278414,-2590.720797,-3775.050304,-8656.879127
964.278734,1036.288319,-5181.441594,-9193.145976
964.279054,1924.535449,-2368.659014,-9422.974625
964.279374,1332.370696,-444.123565,-10189.070123
964.279693,888.247130,1332.370696,-9499.584175
964.280013,2590.720797,3034.844362,-11261.603821
964.280333,3034.844362,3923.091493,-10648.727422
964.280653,0.000000,2886.803174,-11184.994271
964.280973,-3256.906145,296.082377,-10189.070123
964.281293,-4367.215058,-3404.947333,-9959.241474
964.281613,-2590.720797,-5033.400406,-9959.241474
964.281933,-1110.308913,-5181.441594,-10342.289223
964.282253,592.164754,-3108.864956,-10112.460574
964.282573,814.226536,-740.205942,-9959.241474
964.282893,1776.494261,1776.494261,-11797.870669
964.283213,3775.050304,4293.194464,-11414.822920
964.283533,4367.215058,4441.235652,-11491.432470
964.283853,3923.091493,2368.659014,-11338.213370
964.284173,3552.988522,-296.082377,-10112.460574
964.284493,3997.112087,-1258.350101,-10955.165621
964.284813,3849.070898,-1480.411884,-10418.898773
964.285133,1850.514855,-1998.556043,-9959.241474
964.285453,-962.267725,0.000000,-9806.022374
964.285773,-1628.453072,-1110.308913,-9576.193725
964.286093,-666.185348,-1998.556043,-9116.536426
964.286413,888.247130,-1406.391290,-9729.412825
964.286733,1110.308913,592.164754,-9959.241474
964.287052,296.082377,2368.659014,-9806.022374
964.287372,1406.391290,2812.782580,-9959.241474
964.287692,3034.844362,2220.617826,-10112.460574
964.288012,592.164754,1036.288319,-9422.974625
964.288332,-1110.308913,-370.102971,-9346.365076
964.288652,666.185348,-1628.453072,-9499.584175
964.288972,2516.700203,-814.226536,-9959.241474
964.289292,-1332.370696,814.226536,-10495.508323
964.289612,-4737.318029,740.205942,-9346.365076
964.289932,-4293.194464,1554.432478,-9652.803275
964.290252,-740.205942,2368.659014,-10189.070123
964.290572,888.247130,2220.617826,-10725.336972
964.290892,1110.308913,1702.473667,-9652.803275
964.291212,-444.123565,2220.617826,-10418.898773
964.291532,148.041188,1406.391290,-10495.508323
964.291852,962.267725,74.020594,-9959.241474
964.292172,1924.535449,222.061783,-10035.851024
964.292492,1628.453072,1776.494261,-10112.460574
964.292812,296.082377,3923.091493,-11108.384721
964.293132,-888.247130,4293.194464,-11031.775171
964.293452,-2146.597232,2072.576638,-9806.022374
964.293772,-2146.597232,-296.082377,-9806.022374
964.294092,-1406.391290,-1110.308913,-10189.070123
964.294411,740.205942,-1554.432478,-9806.022374
964.294731,222.061783,-444.123565,-9959.241474
964.295051,0.000000,1406.391290,-8197.221829
964.295371,222.061783,1998.556043,-9729.412825
964.295691,3478.967927,2442.679609,-9882.631924
964.296011,4737.318029,4293.194464,-9882.631924
964.296331,1480.411884,3923.091493,-10265.679673
964.296651,74.020594,2442.679609,-9499.584175
964.296971,666.185348,-814.226536,-9039.926876
964.297291,-148.041188,-3923.091493,-9116.536426
964.297611,148.041188,-4219.173869,-8580.269578
964.297931,-1480.411884,-1480.411884,-9499.584175
964.298251,444.123565,1480.411884,-9806.022374
964.298571,1924.535449,4071.132681,-9959.241474
