#time,accel_x,accel_y,accel_z
927.076641,592.164754,0.000000,-10189.070123
927.076962,666.185348,0.000000,-9882.631924
927.077282,592.164754,666.185348,-10189.070123
927.077603,666.185348,370.102971,-9729.412825
927.077923,740.205942,370.102971,-10035.851024
927.078243,592.164754,296.082377,-9882.631924
927.078564,74.020594,296.082377,-9806.022374
927.078884,444.123565,148.041188,-9882.631924
927.079204,518.144159,0.000000,-10112.460574
927.079525,296.082377,148.041188,-10112.460574
927.079845,592.164754,296.082377,-9959.241474
927.080165,962.267725,0.000000,-10112.460574
927.080486,888.247130,296.082377,-10189.070123
927.080806,370.102971,296.082377,-10265.679673
927.081126,222.061783,222.061783,-10189.070123
927.081447,222.061783,0.000000,-9959.241474
927.081767,518.144159,296.082377,-10035.851024
927.082087,-74.020594,222.061783,-10035.851024
927.082408,-74.020594,444.123565,-10265.679673
927.082728,592.164754,444.123565,-9959.241474
927.083049,888.247130,296.082377,-9959.241474
927.083369,222.061783,370.102971,-10342.289223
927.083689,-148.041188,-148.041188,-10035.851024
927.084010,370.102971,-222.061783,-10035.851024
927.084330,222.061783,148.041188,-9806.022374
927.084650,222.061783,148.041188,-10265.679673
927.084971,-740.205942,0.000000,-10112.460574
927.085291,-666.185348,0.000000,-9959.241474
927.085611,0.000000,0.000000,-10878.556072
927.085932,-74.020594,-148.041188,-10112.460574
927.086252,-666.185348,-518.144159,-10189.070123
927.086572,-592.164754,-962.267725,-9806.022374
927.086893,-444.123565,-666.185348,-9806.022374
927.087213,-740.205942,-592.164754,-10189.070123
927.087534,-962.267725,-1258.350101,-9806.022374
927.087854,-1036.288319,-1184.329507,-9806.022374
927.088174,-592.164754,-962.267725,-10112.460574
927.088495,-1258.350101,-592.164754,-9959.241474
927.088815,-1924.535449,-1258.350101,-9882.631924
927.089135,-1702.473667,-1258.350101,-9729.412825
927.089456,-1184.329507,-1406.391290,-10035.851024
927.089776,-814.226536,-962.267725,-10035.851024
927.090096,-2072.576638,-814.226536,-10342.289223
927.090417,-1480.411884,-1332.370696,-9806.022374
927.090737,-518.144159,-1480.411884,-10189.070123
927.091057,0.000000,-1480.411884,-10035.851024
927.091378,-666.185348,-1702.473667,-10035.851024
927.091698,-2368.659014,-2812.782580,-9959.241474
927.092018,-2738.761985,-3552.988522,-9806.022374
927.092339,-2294.638420,-3552.988522,-9652.803275
927.092659,-1628.453072,-3034.844362,-9806.022374
927.092980,-1850.514855,-3034.844362,-9959.241474
927.093300,-2368.659014,-3034.844362,-9806.022374
927.093620,-1332.370696,-2886.803174,-9806.022374
927.093941,518.144159,-2442.679609,-10189.070123
927.094261,1332.370696,-1258.350101,-10495.508323
927.094581,518.144159,-1776.494261,-10265.679673
927.094902,-888.247130,-2146.597232,-10342.289223
927.095222,-2072.576638,-2812.782580,-9806.022374
927.095542,-3330.926739,-3552.988522,-10189.070123
927.095863,-5329.482782,-3775.050304,-9882.631924
927.096183,-5625.565159,-4589.276840,-9499.584175
927.096503,-4367.215058,-5181.441594,-9882.631924
927.096824,-2146.597232,-5033.400406,-9422.974625
927.097144,0.000000,-4219.173869,-10725.336972
927.097464,518.144159,-2072.576638,-10189.070123
927.097785,1036.288319,0.000000,-10572.117872
927.098105,1702.473667,1110.308913,-10801.946522
927.098426,2294.638420,1184.329507,-10265.679673
927.098746,1480.411884,-148.041188,-10418.898773
927.099066,-666.185348,-2220.617826,-10342.289223
927.099387,-2738.761985,-3923.091493,-10112.460574
927.099707,-4737.318029,-4293.194464,-9882.631924
927.100027,-5921.647536,-4515.256246,-8886.707777
927.100348,-5477.523971,-5477.523971,-9116.536426
927.100668,-3182.885551,-6069.688724,-9193.145976
927.100988,-370.102971,-5551.544565,-9729.412825
927.101309,1258.350101,-2886.803174,-10495.508323
927.101629,1998.556043,0.000000,-9959.241474
927.101949,3182.885551,2590.720797,-10342.289223
927.102270,4219.173869,3849.070898,-10801.946522
927.102590,2368.659014,3034.844362,-11261.603821
927.102910,-1258.350101,0.000000,-10418.898773
927.103231,-4959.379811,-3182.885551,-10112.460574
927.103551,-6217.729913,-5921.647536,-9499.584175
927.103872,-4885.359217,-6883.915261,-9806.022374
927.104192,-4145.153275,-6217.729913,-9806.022374
927.104512,-3997.112087,-4145.153275,-9729.412825
927.104833,-2072.576638,-1628.453072,-9806.022374
927.105153,740.205942,1110.308913,-10572.117872
927.105473,2220.617826,3256.906145,-10801.946522
927.105794,1702.473667,4219.173869,-10725.336972
927.106114,2738.761985,3108.864956,-10648.727422
927.106434,2738.761985,592.164754,-10725.336972
927.106755,1184.329507,-740.205942,-10648.727422
927.107075,-2590.720797,-2220.617826,-9882.631924
927.107395,-4737.318029,-2146.597232,-9729.412825
927.107716,-5773.606348,-2368.659014,-9576.193725
927.108036,-7105.977043,-3182.885551,-9806.022374
927.108356,-7402.059420,-4737.318029,-9269.755526
927.108677,-5107.421000,-5551.544565,-8810.098227
927.108997,-518.144159,-4663.297435,-9116.536426
927.109318,3552.988522,-1406.391290,-9806.022374
927.109638,4145.153275,2072.576638,-10572.117872
927.109958,2368.659014,4515.256246,-11261.603821
927.110279,1184.329507,4293.194464,-10035.851024
927.110599,1480.411884,2886.803174,-10418.898773
927.110919,1258.350101,148.041188,-10418.898773
927.111240,-2368.659014,-2738.761985,-10189.070123
927.111560,-5551.544565,-4663.297435,-9729.412825
927.111880,-8216.285956,-4737.318029,-9346.365076
927.112201,-9474.636058,-4071.132681,-8886.707777
927.112521,-7846.182985,-3923.091493,-8886.707777
927.112841,-3108.864956,-3627.009116,-9346.365076
927.113162,2072.576638,-3404.947333,-10035.851024
927.113482,3701.029710,-1628.453072,-10648.727422
927.113802,3997.112087,518.144159,-10572.117872
927.114123,4293.194464,2738.761985,-11031.775171
927.114443,4367.215058,4515.256246,-10801.946522
927.114764,3182.885551,3923.091493,-11261.603821
927.115084,370.102971,1628.453072,-11031.775171
927.115404,-3701.029710,-1998.556043,-11108.384721
927.115725,-6809.894666,-4219.173869,-9882.631924
927.116045,-7772.162391,-7624.121203,-9959.241474
927.116365,-6069.688724,-8290.306550,-9269.755526
927.116686,-5329.482782,-7772.162391,-9729.412825
927.117006,-4737.318029,-5699.585753,-9346.365076
927.117326,-2294.638420,-2368.659014,-9729.412825
927.117647,2590.720797,222.061783,-10418.898773
927.117967,6069.688724,1924.535449,-11031.775171
927.118287,5699.585753,2072.576638,-11338.213370
927.118608,1406.391290,1850.514855,-10801.946522
927.118928,-1258.350101,-1110.308913,-9882.631924
927.119248,-1998.556043,-3552.988522,-9729.412825
927.119569,-2294.638420,-5107.421000,-9806.022374
927.119889,-5181.441594,-6069.688724,-9729.412825
927.120210,-8216.285956,-7698.141797,-8580.269578
927.120530,-7772.162391,-7772.162391,-8963.317327
927.120850,-3701.029710,-5181.441594,-9346.365076
927.121171,-814.226536,-4145.153275,-9576.193725
927.121491,74.020594,-2072.576638,-10342.289223
927.121811,-148.041188,-592.164754,-9652.803275
927.122132,-148.041188,0.000000,-10265.679673
927.122452,2738.761985,370.102971,-10725.336972
927.122772,3182.885551,370.102971,-11261.603821
927.123093,814.226536,-444.123565,-10648.727422
927.123413,0.000000,-2590.720797,-10265.679673
927.123733,-3552.988522,-3478.967927,-10418.898773
927.124054,-5921.647536,-3849.070898,-10035.851024
927.124374,-5995.668130,-3701.029710,-9576.193725
927.124694,-4293.194464,-4293.194464,-9806.022374
927.125015,-2368.659014,-4589.276840,-9499.584175
927.125335,-1776.494261,-4663.297435,-9806.022374
927.125656,-592.164754,-2886.803174,-9806.022374
927.125976,2220.617826,-444.123565,-10572.117872
927.126296,3330.926739,1036.288319,-11184.994271
927.126617,2590.720797,1406.391290,-11184.994271
927.126937,740.205942,74.020594,-10495.508323
927.127257,740.205942,-1554.432478,-10265.679673
927.127578,444.123565,-1924.535449,-10035.851024
927.127898,-2072.576638,-2664.741391,-10112.460574
927.128218,-3627.009116,-3330.926739,-9882.631924
927.128538,-4737.318029,-2960.823768,-9882.631924
927.128858,-5329.482782,-4219.173869,-9959.241474
927.129178,-3478.967927,-2886.803174,-9269.755526
927.129498,-1554.432478,-2516.700203,-9499.584175
927.129818,0.000000,-2072.576638,-9422.974625
927.130138,2146.597232,-814.226536,-10342.289223
927.130458,3627.009116,-666.185348,-10112.460574
927.130778,3034.844362,962.267725,-10342.289223
927.131098,962.267725,1998.556043,-10112.460574
927.131418,-2442.679609,1332.370696,-9806.022374
927.131738,-2220.617826,962.267725,-9959.241474
927.132058,-4145.153275,-1332.370696,-9959.241474
927.132378,-4441.235652,-4293.194464,-9729.412825
927.132697,-4959.379811,-5551.544565,-9806.022374
927.133017,-5033.400406,-4737.318029,-9729.412825
927.133337,-3923.091493,-1110.308913,-9576.193725
927.133657,-2146.597232,444.123565,-9576.193725
927.133977,1110.308913,222.061783,-10342.289223
927.134297,2368.659014,-1332.370696,-10112.460574
927.134617,2368.659014,-814.226536,-10648.727422
927.134937,1924.535449,1184.329507,-10495.508323
927.135257,0.000000,962.267725,-10878.556072
927.135577,-740.205942,814.226536,-9806.022374
927.135897,-1258.350101,-1332.370696,-10112.460574
927.136217,-3034.844362,-4293.194464,-9959.241474
927.136537,-4589.276840,-4145.153275,-9729.412825
927.136857,-5181.441594,-4293.194464,-9729.412825
927.137177,-5033.400406,-3404.947333,-10035.851024
927.137497,-2886.803174,-2590.720797,-9729.412825
927.137817,-296.082377,-2072.576638,-9346.365076
927.138137,1998.556043,-2368.659014,-10112.460574
927.138457,2220.617826,-1036.288319,-9499.584175
927.138777,1850.514855,518.144159,-10878.556072
927.139097,1480.411884,1110.308913,-10495.508323
927.139417,666.185348,962.267725,-9882.631924
927.139737,-444.123565,-814.226536,-9806.022374
927.140057,-592.164754,-5181.441594,-9576.193725
927.140377,-3182.885551,-4219.173869,-10112.460574
927.140697,-5107.421000,-4367.215058,-9499.584175
927.141017,-4811.338623,-2738.761985,-9806.022374
927.141337,-3849.070898,-3997.112087,-8886.707777
927.141656,-2886.803174,-2294.638420,-9882.631924
927.141976,-1184.329507,-2368.659014,-9806.022374
927.142296,1036.288319,-3478.967927,-10035.851024
927.142616,666.185348,-1554.432478,-10035.851024
927.142936,-888.247130,296.082377,-9959.241474
927.143256,1258.350101,1332.370696,-10495.508323
927.143576,3478.967927,444.123565,-11184.994271
927.143896,1184.329507,74.020594,-10878.556072
927.144216,-4441.235652,-296.082377,-10955.165621
927.144536,-5699.585753,-740.205942,-10572.117872
927.144856,-4293.194464,-2294.638420,-10265.679673
927.145176,-1702.473667,-4145.153275,-10495.508323
927.145496,-1850.514855,-3330.926739,-10035.851024
927.145816,-2812.782580,-3404.947333,-10112.460574
927.146136,-1554.432478,-2368.659014,-10189.070123
927.146456,740.205942,-1332.370696,-10495.508323
927.146776,2368.659014,518.144159,-10725.336972
927.147096,2146.597232,1332.370696,-10495.508323
927.147416,3034.844362,518.144159,-10112.460574
927.147736,2072.576638,-814.226536,-9806.022374
927.148056,370.102971,-1258.350101,-10035.851024
927.148376,1036.288319,-2516.700203,-9346.365076
927.148696,74.020594,-3330.926739,-9729.412825
927.149016,-1628.453072,-1258.350101,-9346.365076
927.149336,-5107.421000,-2516.700203,-9193.145976
927.149656,-5625.565159,-3552.988522,-9576.193725
927.149976,-370.102971,-2368.659014,-9039.926876
927.150296,1998.556043,1258.350101,-9882.631924
927.150615,3849.070898,1036.288319,-10265.679673
927.150935,3404.947333,-888.247130,-9652.803275
927.151255,4293.194464,-370.102971,-9576.193725
927.151575,4885.359217,0.000000,-10189.070123
927.151895,5403.503377,2960.823768,-10648.727422
927.152215,2590.720797,1406.391290,-10801.946522
927.152535,666.185348,0.000000,-10572.117872
927.152855,-518.144159,-592.164754,-8963.317327
927.153175,148.041188,-2738.761985,-9882.631924
927.153495,1480.411884,-2146.597232,-10418.898773
927.153815,-518.144159,-2516.700203,-9959.241474
927.154135,-740.205942,-1776.494261,-10342.289223
927.154455,1628.453072,666.185348,-10572.117872
927.154775,1480.411884,3108.864956,-10801.946522
927.155095,444.123565,5477.523971,-11644.651570
927.155415,-1184.329507,5773.606348,-9959.241474
927.155735,74.020594,3182.885551,-11721.261119
927.156055,2516.700203,-148.041188,-10648.727422
927.156375,2812.782580,-3330.926739,-9806.022374
927.156695,74.020594,-1628.453072,-10265.679673
927.157015,-1924.535449,1628.453072,-10265.679673
927.157335,-2664.741391,3034.844362,-10342.289223
927.157655,-2294.638420,814.226536,-10189.070123
927.157975,-1924.535449,148.041188,-8886.707777
927.158295,-2294.638420,0.000000,-9882.631924
927.158615,-962.267725,370.102971,-10189.070123
927.158935,740.205942,666.185348,-9422.974625
927.159255,2886.803174,962.267725,-9806.022374
927.159574,2664.741391,2368.659014,-9193.145976
927.159894,1702.473667,1850.514855,-10572.117872
927.160214,444.123565,1184.329507,-9959.241474
927.160534,-1184.329507,0.000000,-9576.193725
927.160854,-814.226536,1480.411884,-9959.241474
927.161174,-296.082377,1406.391290,-9422.974625
927.161494,1776.494261,-888.247130,-10342.289223
927.161814,592.164754,-1110.308913,-10112.460574
927.162134,888.247130,-1480.411884,-9652.803275
927.162454,-1480.411884,444.123565,-10112.460574
927.162774,1554.432478,2664.741391,-9806.022374
927.163094,4367.215058,3849.070898,-11031.775171
927.163414,4811.338623,1850.514855,-10801.946522
927.163734,2516.700203,2590.720797,-10112.460574
927.164054,222.061783,1850.514855,-10495.508323
927.164374,666.185348,148.041188,-9652.803275
927.164694,6291.750507,-148.041188,-10495.508323
927.165014,5921.647536,1702.473667,-10342.289223
927.165334,3552.988522,2886.803174,-11031.775171
927.165654,2220.617826,814.226536,-10572.117872
927.165974,2368.659014,-296.082377,-9959.241474
927.166294,3182.885551,-74.020594,-9806.022374
927.166614,2072.576638,222.061783,-10878.556072
927.166934,888.247130,1036.288319,-10572.117872
927.167254,-518.144159,296.082377,-10112.460574
927.167574,1554.432478,296.082377,-10112.460574
927.167894,2812.782580,1628.453072,-10725.336972
927.168214,1628.453072,1110.308913,-10112.460574
927.168533,-666.185348,0.000000,-9882.631924
927.168853,-3701.029710,-962.267725,-9806.022374
927.169173,-3923.091493,-1184.329507,-9193.145976
927.169493,-3923.091493,-1554.432478,-10189.070123
927.169813,-1776.494261,-1480.411884,-9346.365076
927.170133,-222.061783,-1628.453072,-9806.022374
927.170453,148.041188,-888.247130,-10418.898773
927.170773,-518.144159,-1850.514855,-9806.022374
927.171093,-1406.391290,-666.185348,-10189.070123
927.171413,-3182.885551,-148.041188,-9729.412825
927.171733,-3108.864956,148.041188,-10495.508323
927.172053,-1258.350101,-1258.350101,-9959.241474
927.172373,-2220.617826,-2442.679609,-10418.898773
927.172693,-3256.906145,-2590.720797,-10112.460574
927.173013,-4811.338623,-2516.700203,-9576.193725
927.173333,-5033.400406,-1628.453072,-10189.070123
927.173653,-3552.988522,-296.082377,-10189.070123
927.173973,-444.123565,-2368.659014,-10035.851024
927.174293,-296.082377,-1924.535449,-10878.556072
927.174613,0.000000,-148.041188,-9576.193725
927.174933,-518.144159,296.082377,-10189.070123
927.175253,-814.226536,666.185348,-9806.022374
927.175573,1184.329507,2146.597232,-10265.679673
927.175893,1628.453072,296.082377,-10801.946522
927.176213,814.226536,-3034.844362,-9422.974625
927.176533,74.020594,-4589.276840,-9729.412825
927.176853,148.041188,-3034.844362,-7737.564530
927.177173,0.000000,74.020594,-10342.289223
927.177492,-1332.370696,1110.308913,-9806.022374
927.177812,-2664.741391,1110.308913,-9806.022374
927.178132,-1258.350101,962.267725,-10112.460574
927.178452,1998.556043,-518.144159,-9806.022374
927.178772,3923.091493,-1850.514855,-10342.289223
927.179092,3701.029710,-888.247130,-10342.289223
927.179412,1702.473667,-1110.308913,-9652.803275
927.179732,2738.761985,370.102971,-10801.946522
927.180052,4293.194464,592.164754,-9806.022374
927.180372,4589.276840,1036.288319,-10801.946522
927.180692,2220.617826,1332.370696,-10648.727422
927.181012,518.144159,148.041188,-10189.070123
927.181332,2220.617826,-222.061783,-9882.631924
927.181652,5329.482782,-518.144159,-10495.508323
927.181972,5551.544565,0.000000,-10189.070123
927.182292,2664.741391,666.185348,-10189.070123
927.182612,666.185348,666.185348,-9652.803275
927.182932,2738.761985,1850.514855,-10112.460574
927.183252,3923.091493,1628.453072,-9882.631924
927.183572,3478.967927,962.267725,-9882.631924
927.183892,1184.329507,666.185348,-9882.631924
927.184212,0.000000,1036.288319,-9576.193725
927.184532,2294.638420,962.267725,-10495.508323
927.184852,2294.638420,740.205942,-9346.365076
927.185172,1924.535449,0.000000,-9499.584175
927.185492,-1184.329507,-148.041188,-9422.974625
927.185812,-1702.473667,-888.247130,-9269.755526
927.186131,0.000000,0.000000,-10342.289223
927.186451,1110.308913,-444.123565,-9422.974625
927.186771,2516.700203,888.247130,-10801.946522
927.187091,2368.659014,1406.391290,-10495.508323
927.187411,1036.288319,3552.988522,-10418.898773
927.187731,-296.082377,3997.112087,-11338.213370
927.188051,148.041188,5995.668130,-11568.042020
927.188371,-1480.411884,5255.462188,-12180.918418
927.188691,-3552.988522,4219.173869,-11184.994271
927.189011,-2516.700203,1998.556043,-9882.631924
927.189331,-3997.112087,370.102971,-11338.213370
927.189651,-3108.864956,74.020594,-9576.193725
927.189971,-2812.782580,2960.823768,-10878.556072
927.190291,-962.267725,4145.153275,-11031.775171
927.190611,-370.102971,2516.700203,-10801.946522
927.190931,-296.082377,1332.370696,-10035.851024
927.191251,-1480.411884,-148.041188,-9959.241474
927.191571,518.144159,0.000000,-9422.974625
927.191891,1036.288319,1406.391290,-10035.851024
927.192211,-296.082377,222.061783,-10418.898773
927.192531,-2072.576638,-814.226536,-7814.174080
927.192851,-2738.761985,-888.247130,-9039.926876
927.193171,-666.185348,-1406.391290,-9652.803275
927.193491,-518.144159,222.061783,-9039.926876
927.193811,-1258.350101,1924.535449,-9806.022374
927.194131,-666.185348,814.226536,-8656.879127
927.194451,2072.576638,0.000000,-9422.974625
927.194771,5033.400406,-666.185348,-9499.584175
927.195090,2146.597232,-2220.617826,-8733.488677
927.195410,814.226536,-1628.453072,-9346.365076
927.195730,1036.288319,-740.205942,-9116.536426
927.196050,3034.844362,2368.659014,-10265.679673
927.196370,3108.864956,5403.503377,-10878.556072
927.196690,-296.082377,5773.606348,-10495.508323
927.197010,962.267725,2294.638420,-10878.556072
927.197330,2368.659014,-1110.308913,-11414.822920
927.197650,3108.864956,-4515.256246,-9729.412825
927.197970,1776.494261,-3478.967927,-10495.508323
927.198290,2368.659014,-3108.864956,-9806.022374
927.198610,2220.617826,-518.144159,-10035.851024
927.198930,2442.679609,1406.391290,-11031.775171
927.199250,3182.885551,2368.659014,-10725.336972
927.199570,3256.906145,2960.823768,-10801.946522
927.199890,2368.659014,1258.350101,-11108.384721
927.200210,2516.700203,-518.144159,-10342.289223
927.200530,4071.132681,-1406.391290,-10572.117872
927.200850,4959.379811,-1998.556043,-9959.241474
927.201170,6069.688724,-2146.597232,-10112.460574
927.201490,4737.318029,-2442.679609,-10189.070123
927.201810,1998.556043,-2146.597232,-9652.803275
927.202130,592.164754,-740.205942,-9806.022374
927.202450,888.247130,592.164754,-9806.022374
927.202770,592.164754,1554.432478,-10495.508323
927.203090,-1776.494261,74.020594,-9806.022374
927.203410,-2368.659014,-814.226536,-9729.412825
927.203730,-2960.823768,-3330.926739,-9269.755526
927.204049,-1332.370696,-296.082377,-9499.584175
927.204369,-3627.009116,296.082377,-10189.070123
927.204689,-4515.256246,592.164754,-9729.412825
927.205009,-4515.256246,-370.102971,-8886.707777
927.205329,-1184.329507,-1110.308913,-11414.822920
927.205649,444.123565,-222.061783,-10112.460574
927.205969,-1332.370696,-222.061783,-10495.508323
927.206289,-2294.638420,888.247130,-10265.679673
927.206609,-2590.720797,1110.308913,-9729.412825
927.206929,-1258.350101,1702.473667,-10495.508323
927.207249,-1480.411884,1036.288319,-10342.289223
927.207569,-3034.844362,1924.535449,-10495.508323
927.207889,-5107.421000,1850.514855,-10648.727422
927.208209,-3404.947333,-148.041188,-9959.241474
927.208529,-3182.885551,-814.226536,-10572.117872
927.208849,-2960.823768,-148.041188,-9806.022374
927.209169,-2368.659014,-148.041188,-10495.508323
927.209489,148.041188,1554.432478,-9576.193725
927.209809,-296.082377,3182.885551,-10725.336972
927.210129,666.185348,3034.844362,-10801.946522
927.210449,2072.576638,3034.844362,-9882.631924
927.210769,2220.617826,2738.761985,-10418.898773
927.211089,888.247130,666.185348,-9806.022374
927.211409,888.247130,-814.226536,-9882.631924
927.211729,444.123565,-3182.885551,-9806.022374
927.212049,1258.350101,-2590.720797,-9346.365076
927.212369,1406.391290,-666.185348,-9882.631924
927.212689,296.082377,2146.597232,-9652.803275
927.213008,444.123565,3552.988522,-10342.289223
927.213328,1406.391290,1554.432478,-9729.412825
927.213648,3182.885551,444.123565,-9116.536426
927.213968,2294.638420,296.082377,-10418.898773
927.214288,1110.308913,-592.164754,-9576.193725
927.214608,3256.906145,-740.205942,-9576.193725
927.214928,6439.791695,518.144159,-9882.631924
927.215248,7920.203579,1332.370696,-9576.193725
927.215568,4885.359217,2886.803174,-10418.898773
927.215888,1184.329507,3478.967927,-9576.193725
927.216208,1628.453072,2442.679609,-9806.022374
927.216528,3182.885551,1184.329507,-10495.508323
927.216848,4441.235652,-962.267725,-9039.926876
927.217168,2886.803174,-2368.659014,-10035.851024
927.217488,2886.803174,-1332.370696,-9806.022374
927.217808,2738.761985,814.226536,-10189.070123
927.218128,1036.288319,3923.091493,-9882.631924
927.218448,888.247130,3849.070898,-10265.679673
927.218768,592.164754,1110.308913,-10648.727422
927.219088,0.000000,-1258.350101,-10189.070123
927.219408,888.247130,-2738.761985,-10955.165621
927.219728,1480.411884,-1850.514855,-9729.412825
927.220048,666.185348,0.000000,-10342.289223
927.220368,-666.185348,2516.700203,-11261.603821
927.220688,-2960.823768,3478.967927,-10342.289223
927.221008,-3034.844362,3627.009116,-11644.651570
927.221328,-1628.453072,2516.700203,-10265.679673
927.221648,666.185348,296.082377,-10725.336972
927.221967,0.000000,-1850.514855,-10265.679673
927.222287,-1924.535449,-3849.070898,-9806.022374
927.222607,-2664.741391,-3182.885551,-10342.289223
927.222927,-2294.638420,-666.185348,-9806.022374
927.223247,222.061783,2812.782580,-10418.898773
927.223567,-444.123565,4219.173869,-10955.165621
927.223887,-2368.659014,4145.153275,-9729.412825
927.224207,-2294.638420,2368.659014,-9882.631924
927.224527,-370.102971,1480.411884,-9499.584175
927.224847,1184.329507,-1554.432478,-10035.851024
927.225167,-444.123565,-3330.926739,-9346.365076
927.225487,-1480.411884,-4219.173869,-8350.440928
927.225807,-2072.576638,-3108.864956,-8886.707777
927.226127,1184.329507,-1998.556043,-9652.803275
927.226447,592.164754,370.102971,-9652.803275
927.226767,-1406.391290,1554.432478,-8886.707777
927.227087,-2368.659014,2442.679609,-9193.145976
927.227407,-518.144159,296.082377,-9806.022374
927.227727,3478.967927,-1554.432478,-9499.584175
927.228047,4145.153275,-2886.803174,-9806.022374
927.228367,2368.659014,-3627.009116,-9959.241474
927.228687,1406.391290,-1776.494261,-9652.803275
927.229007,2590.720797,0.000000,-10495.508323
927.229327,2812.782580,3256.906145,-10035.851024
927.229647,2368.659014,5329.482782,-11721.261119
927.229967,1924.535449,3108.864956,-10265.679673
927.230287,2738.761985,370.102971,-10418.898773
927.230606,3627.009116,-2516.700203,-10495.508323
927.230926,3034.844362,-2664.741391,-10189.070123
927.231246,740.205942,-888.247130,-11031.775171
927.231566,962.267725,222.061783,-10801.946522
927.231886,2368.659014,3997.112087,-11031.775171
927.232206,2516.700203,4441.235652,-11491.432470
927.232526,3404.947333,4219.173869,-10801.946522
927.232846,2664.741391,3701.029710,-11644.651570
927.233166,592.164754,1480.411884,-10801.946522
927.233486,-1406.391290,-1924.535449,-10342.289223
927.233805,-814.226536,-2664.741391,-9346.365076
927.234125,2368.659014,-1258.350101,-9269.755526
927.234445,3256.906145,370.102971,-10572.117872
927.234765,1850.514855,1924.535449,-9882.631924
927.235085,666.185348,1258.350101,-9269.755526
927.235405,444.123565,592.164754,-10878.556072
927.235725,296.082377,-1110.308913,-9039.926876
927.236045,2664.741391,-2072.576638,-9806.022374
927.236365,814.226536,-962.267725,-9346.365076
927.236684,740.205942,222.061783,-10342.289223
927.237004,1406.391290,666.185348,-9806.022374
927.237324,-148.041188,1776.494261,-9422.974625
927.237644,-1332.370696,1924.535449,-10035.851024
927.237964,-2664.741391,1406.391290,-8427.050478
927.238284,-2738.761985,-1480.411884,-9499.584175
927.238604,-2368.659014,-962.267725,-9806.022374
927.238924,-1406.391290,296.082377,-9882.631924
927.239244,-2738.761985,814.226536,-9959.241474
927.239564,-2590.720797,814.226536,-9652.803275
927.239883,-740.205942,2886.803174,-10342.289223
927.240203,-1924.535449,2442.679609,-11108.384721
927.240523,-2072.576638,1628.453072,-10572.117872
927.240843,-2368.659014,1258.350101,-10572.117872
927.241163,-2590.720797,888.247130,-10265.679673
927.241483,-1776.494261,592.164754,-10112.460574
927.241803,-1554.432478,814.226536,-10418.898773
927.242123,-666.185348,1184.329507,-10725.336972
927.242443,0.000000,1554.432478,-10112.460574
927.242763,666.185348,1480.411884,-10189.070123
927.243082,-148.041188,0.000000,-10112.460574
927.243402,-74.020594,-1258.350101,-9806.022374
927.243722,-666.185348,-1480.411884,-9959.241474
927.244042,296.082377,-2146.597232,-9959.241474
927.244362,-148.041188,-1036.288319,-9652.803275
927.244682,-518.144159,296.082377,-9499.584175
927.245002,-2220.617826,2886.803174,-10265.679673
927.245322,2072.576638,3775.050304,-11874.480219
927.245642,1998.556043,1036.288319,-10955.165621
927.245962,3775.050304,-3034.844362,-9039.926876
927.246281,2738.761985,-4145.153275,-8886.707777
927.246601,2960.823768,-3182.885551,-9806.022374
927.246921,3478.967927,-518.144159,-9499.584175
927.247241,2072.576638,1036.288319,-10878.556072
927.247561,1332.370696,518.144159,-9039.926876
927.247881,1258.350101,-370.102971,-9806.022374
927.248201,1924.535449,1036.288319,-10265.679673
927.248521,2812.782580,888.247130,-10035.851024
927.248841,2960.823768,1850.514855,-11031.775171
927.249160,1628.453072,-222.061783,-9806.022374
927.249480,0.000000,-2220.617826,-10189.070123
927.249800,-1480.411884,-2220.617826,-9652.803275
927.250120,-666.185348,-1258.350101,-9959.241474
927.250440,1702.473667,814.226536,-10878.556072
927.250760,2664.741391,740.205942,-11568.042020
927.251080,2294.638420,1332.370696,-10955.165621
927.251400,1554.432478,1184.329507,-11108.384721
927.251720,592.164754,370.102971,-10572.117872
927.252040,-222.061783,148.041188,-11031.775171
927.252359,-740.205942,518.144159,-10035.851024
927.252679,-444.123565,-592.164754,-10418.898773
927.252999,518.144159,-740.205942,-9806.022374
927.253319,2516.700203,-518.144159,-9806.022374
927.253639,2368.659014,370.102971,-10725.336972
927.253959,888.247130,370.102971,-9806.022374
927.254279,296.082377,222.061783,-10342.289223
927.254599,0.000000,-592.164754,-10648.727422
927.254919,-296.082377,-666.185348,-9882.631924
927.255239,-1924.535449,-296.082377,-10112.460574
927.255558,-2886.803174,962.267725,-9652.803275
927.255878,-1998.556043,3701.029710,-10495.508323
927.256198,-1036.288319,4515.256246,-10265.679673
927.256518,1184.329507,3478.967927,-9729.412825
927.256838,222.061783,518.144159,-10572.117872
927.257158,-1776.494261,-2664.741391,-9116.536426
927.257478,-296.082377,-3478.967927,-9346.365076
927.257798,888.247130,-2812.782580,-9806.022374
927.258118,1332.370696,888.247130,-9116.536426
927.258437,962.267725,5033.400406,-11261.603821
927.258757,1628.453072,5329.482782,-10342.289223
927.259077,3330.926739,4663.297435,-10418.898773
927.259397,2590.720797,740.205942,-11184.994271
927.259717,1258.350101,-2220.617826,-9499.584175
927.260037,-518.144159,-4589.276840,-9499.584175
927.260357,-1036.288319,-3404.947333,-9193.145976
927.260677,814.226536,-592.164754,-9806.022374
927.260997,2072.576638,592.164754,-10265.679673
927.261317,2220.617826,2072.576638,-9959.241474
927.261636,1036.288319,2590.720797,-10572.117872
927.261956,0.000000,2960.823768,-9729.412825
927.262276,0.000000,2220.617826,-9882.631924
927.262596,1184.329507,-370.102971,-9652.803275
927.262916,2072.576638,-2294.638420,-9882.631924
927.263236,1184.329507,-2590.720797,-9959.241474
927.263556,1258.350101,-1110.308913,-9576.193725
927.263876,518.144159,1480.411884,-9882.631924
927.264196,74.020594,2220.617826,-9959.241474
927.264516,296.082377,3256.906145,-10189.070123
927.264835,1110.308913,2072.576638,-10572.117872
927.265155,740.205942,370.102971,-8886.707777
927.265475,666.185348,-1036.288319,-10495.508323
927.265795,2368.659014,-2590.720797,-10418.898773
927.266115,3404.947333,-1480.411884,-9882.631924
927.266435,222.061783,296.082377,-10342.289223
927.266755,-2220.617826,2590.720797,-9806.022374
927.267075,-3997.112087,3478.967927,-10725.336972
927.267395,-1998.556043,2738.761985,-10878.556072
927.267715,-740.205942,-592.164754,-10112.460574
927.268034,0.000000,-2886.803174,-11184.994271
927.268354,-370.102971,-4737.318029,-9346.365076
927.268674,-962.267725,-4219.173869,-10035.851024
927.268994,-666.185348,-1850.514855,-9806.022374
927.269314,-296.082377,148.041188,-10342.289223
927.269634,-222.061783,2368.659014,-11031.775171
927.269954,-148.041188,2442.679609,-9882.631924
927.270274,2146.597232,3404.947333,-11031.775171
927.270594,2664.741391,2220.617826,-10648.727422
927.270913,2368.659014,-962.267725,-10342.289223
927.271233,-444.123565,-2516.700203,-9729.412825
927.271553,-3627.009116,-3923.091493,-9193.145976
927.271873,-2960.823768,-3627.009116,-9729.412825
927.272193,-1036.288319,-2590.720797,-9806.022374
927.272513,2516.700203,-222.061783,-9729.412825
927.272833,2664.741391,2220.617826,-10342.289223
927.273153,4219.173869,3108.864956,-10418.898773
927.273473,3478.967927,2368.659014,-10725.336972
927.273793,3182.885551,888.247130,-10342.289223
927.274112,1554.432478,-296.082377,-9806.022374
927.274432,1554.432478,-666.185348,-10572.117872
927.274752,1702.473667,-518.144159,-10265.679673
927.275072,888.247130,-814.226536,-10572.117872
927.275392,0.000000,814.226536,-10265.679673
927.275712,-740.205942,1184.329507,-11261.603821
927.276032,-1628.453072,1850.514855,-10572.117872
927.276352,-1184.329507,592.164754,-10035.851024
927.276672,666.185348,-1184.329507,-10725.336972
927.276992,1110.308913,-1628.453072,-10035.851024
927.277311,2960.823768,-1924.535449,-10725.336972
927.277631,1776.494261,0.000000,-10035.851024
927.277951,2738.761985,3478.967927,-10801.946522
927.278271,4589.276840,4219.173869,-11797.870669
927.278591,3552.988522,2812.782580,-9959.241474
927.278911,518.144159,0.000000,-10725.336972
927.279231,-2664.741391,-2664.741391,-9346.365076
927.279551,-3034.844362,-3108.864956,-8810.098227
927.279871,-2516.700203,-2590.720797,-9882.631924
927.280191,-1258.350101,-1110.308913,-9039.926876
927.280510,-1110.308913,1184.329507,-10112.460574
927.280830,-1110.308913,1110.308913,-9269.755526
927.281150,-814.226536,962.267725,-9576.193725
927.281470,592.164754,1184.329507,-10189.070123
927.281790,962.267725,1332.370696,-9806.022374
927.282110,1406.391290,1184.329507,-9882.631924
927.282430,222.061783,0.000000,-9729.412825
927.282750,-1110.308913,-1036.288319,-9116.536426
927.283070,-1258.350101,-2442.679609,-9806.022374
927.283389,-1258.350101,-2368.659014,-9652.803275
927.283709,-1924.535449,814.226536,-9729.412825
927.284029,-518.144159,2960.823768,-10725.336972
927.284349,666.185348,5181.441594,-11108.384721
927.284669,-1036.288319,4071.132681,-11414.822920
927.284989,-1628.453072,1184.329507,-9882.631924
927.285309,-1998.556043,-1406.391290,-10265.679673
927.285629,-2072.576638,-2886.803174,-9959.241474
927.285949,-962.267725,-2738.761985,-10112.460574
927.286269,370.102971,-888.247130,-10725.336972
927.286588,1480.411884,1998.556043,-10418.898773
927.286908,962.267725,2886.803174,-10418.898773
927.287228,666.185348,2294.638420,-11031.775171
927.287548,222.061783,1702.473667,-9882.631924
927.287868,1850.514855,2072.576638,-11031.775171
927.288188,3849.070898,2368.659014,-10112.460574
927.288508,2516.700203,1480.411884,-10725.336972
927.288828,1110.308913,-740.205942,-10878.556072
927.289148,888.247130,-1924.535449,-9499.584175
927.289468,1258.350101,-1258.350101,-9499.584175
927.289787,2812.782580,1998.556043,-9499.584175
927.290107,5477.523971,3034.844362,-10418.898773
927.290427,3552.988522,2368.659014,-10495.508323
927.290747,1480.411884,666.185348,-9499.584175
927.291067,370.102971,-1480.411884,-9346.365076
927.291387,518.144159,-2220.617826,-8963.317327
927.291707,1406.391290,-740.205942,-9346.365076
927.292027,2220.617826,0.000000,-9652.803275
927.292347,3552.988522,1850.514855,-10112.460574
927.292666,3627.009116,814.226536,-10112.460574
927.292986,3404.947333,296.082377,-9499.584175
927.293306,1998.556043,0.000000,-10035.851024
927.293626,1776.494261,296.082377,-9576.193725
927.293946,2294.638420,592.164754,-9882.631924
927.294266,1628.453072,222.061783,-10572.117872
927.294586,1332.370696,-1036.288319,-9959.241474
927.294906,962.267725,-1850.514855,-10725.336972
927.295226,518.144159,-888.247130,-10112.460574
927.295546,-1480.411884,814.226536,-10495.508323
927.295865,-1332.370696,1850.514855,-10418.898773
927.296185,814.226536,518.144159,-10342.289223
927.296505,1554.432478,0.000000,-11261.603821
927.296825,0.000000,-1554.432478,-10801.946522
927.297145,-1406.391290,-1776.494261,-10495.508323
927.297465,-1924.535449,444.123565,-10265.679673
927.297785,-592.164754,1850.514855,-10189.070123
927.298105,-1332.370696,2664.741391,-11031.775171
927.298425,-3108.864956,296.082377,-10035.851024
927.298745,-4367.215058,-1924.535449,-9806.022374
927.299064,-3182.885551,-3627.009116,-10418.898773
927.299384,-222.061783,-1628.453072,-8963.317327
927.299704,-1110.308913,1776.494261,-10878.556072
927.300024,-1406.391290,2886.803174,-9806.022374
927.300344,-814.226536,2294.638420,-9729.412825
927.300664,296.082377,-888.247130,-9806.022374
927.300984,444.123565,-3256.906145,-8656.879127
927.301304,296.082377,-3923.091493,-10112.460574
927.301624,592.164754,-888.247130,-9269.755526
927.301944,0.000000,1036.288319,-9959.241474
927.302263,-444.123565,2072.576638,-9576.193725
927.302583,0.000000,1850.514855,-10112.460574
927.302903,-1184.329507,0.000000,-10035.851024
927.303223,-1036.288319,-1110.308913,-8733.488677
927.303543,444.123565,-1628.453072,-9576.193725
927.303863,1332.370696,-2294.638420,-9806.022374
927.304183,2368.659014,-1702.473667,-10342.289223
927.304503,1036.288319,-1184.329507,-10265.679673
927.304823,0.000000,296.082377,-9499.584175
927.305142,888.247130,2738.761985,-10648.727422
927.305462,148.041188,4219.173869,-10572.117872
927.305782,1702.473667,4145.153275,-11108.384721
927.306102,2812.782580,1036.288319,-10648.727422
927.306422,2220.617826,-1776.494261,-9806.022374
927.306742,2664.741391,-4219.173869,-9959.241474
927.307062,1406.391290,-3330.926739,-9806.022374
927.307382,3256.906145,-814.226536,-10801.946522
927.307702,3775.050304,2664.741391,-10878.556072
927.308022,2368.659014,5107.421000,-10495.508323
927.308341,1184.329507,4737.318029,-10648.727422
927.308661,1258.350101,2886.803174,-10342.289223
927.308981,3923.091493,-1406.391290,-10265.679673
927.309301,4737.318029,-2886.803174,-10035.851024
927.309621,3034.844362,-2960.823768,-9576.193725
927.309941,1110.308913,-1332.370696,-10035.851024
927.310261,666.185348,1406.391290,-9959.241474
927.310581,1998.556043,4145.153275,-10035.851024
927.310901,2146.597232,5403.503377,-11108.384721
927.311221,1776.494261,4219.173869,-9806.022374
927.311540,1184.329507,1258.350101,-10495.508323
927.311860,1332.370696,-2294.638420,-10035.851024
927.312180,1776.494261,-3775.050304,-8044.002729
927.312500,-444.123565,-3330.926739,-10112.460574
927.312820,-1776.494261,-2072.576638,-9116.536426
927.313140,-2960.823768,370.102971,-9576.193725
927.313460,-962.267725,1776.494261,-10342.289223
927.313780,2368.659014,2516.700203,-9882.631924
927.314100,1480.411884,2590.720797,-10495.508323
927.314419,-814.226536,1332.370696,-9806.022374
927.314739,-962.267725,-518.144159,-10342.289223
927.315059,74.020594,-1702.473667,-10572.117872
927.315379,-2220.617826,-2442.679609,-9422.974625
927.315699,-4811.338623,-740.205942,-9959.241474
927.316019,-7476.080014,1480.411884,-10035.851024
927.316339,-5033.400406,3404.947333,-10878.556072
927.316659,-1628.453072,2886.803174,-10878.556072
927.316979,1554.432478,2294.638420,-10878.556072
927.317299,1110.308913,814.226536,-10955.165621
927.317618,-370.102971,-148.041188,-10572.117872
927.317938,-222.061783,-592.164754,-10418.898773
927.318258,0.000000,444.123565,-10189.070123
927.318578,222.061783,222.061783,-10189.070123
927.318898,518.144159,1184.329507,-10878.556072
927.319218,-1554.432478,814.226536,-10648.727422
927.319538,-2146.597232,888.247130,-10035.851024
927.319858,-1850.514855,962.267725,-10342.289223
927.320178,666.185348,222.061783,-10112.460574
927.320498,2146.597232,0.000000,-10265.679673
927.320817,444.123565,-962.267725,-9806.022374
927.321137,-518.144159,-1406.391290,-9882.631924
927.321457,444.123565,-814.226536,-9499.584175
927.321777,2368.659014,-222.061783,-9269.755526
927.322097,1998.556043,444.123565,-8044.002729
927.322417,1776.494261,666.185348,-9116.536426
927.322737,3478.967927,666.185348,-9576.193725
927.323057,5033.400406,-740.205942,-9806.022374
927.323377,5403.503377,-962.267725,-9652.803275
927.323697,3034.844362,-1924.535449,-9269.755526
927.324016,592.164754,-592.164754,-9269.755526
927.324336,222.061783,296.082377,-9729.412825
927.324656,1332.370696,814.226536,-9576.193725
927.324976,3182.885551,0.000000,-11108.384721
927.325296,4219.173869,-1036.288319,-9806.022374
927.325616,4145.153275,0.000000,-10035.851024
927.325936,2590.720797,888.247130,-10725.336972
927.326256,2664.741391,2960.823768,-9959.241474
927.326576,2220.617826,3701.029710,-11261.603821
927.326895,1554.432478,3552.988522,-11414.822920
927.327215,592.164754,1406.391290,-10955.165621
927.327535,-222.061783,-814.226536,-10495.508323
927.327855,444.123565,-2072.576638,-9576.193725
927.328175,2368.659014,-1258.350101,-10801.946522
927.328495,1332.370696,0.000000,-10955.165621
927.328815,-814.226536,962.267725,-10495.508323
927.329135,-2368.659014,444.123565,-10955.165621
927.329455,-1554.432478,814.226536,-10265.679673
927.329753,0.000000,666.185348,-10801.946522
927.330073,0.000000,0.000000,-10801.946522
927.330393,-370.102971,222.061783,-10112.460574
927.330713,-296.082377,1258.350101,-10801.946522
927.331033,518.144159,962.267725,-10495.508323
927.331353,1776.494261,1184.329507,-10572.117872
927.331673,-444.123565,1554.432478,-9882.631924
927.331993,-3182.885551,1480.411884,-9499.584175
927.332313,-3701.029710,962.267725,-9729.412825
927.332633,-2738.761985,-148.041188,-9729.412825
927.332953,-2146.597232,-2368.659014,-9193.145976
927.333273,-3182.885551,-2590.720797,-8427.050478
927.333593,-2442.679609,-2220.617826,-8580.269578
927.333914,-518.144159,0.000000,-9269.755526
927.334234,1406.391290,1998.556043,-10035.851024
927.334554,2294.638420,3997.112087,-10648.727422
927.334874,814.226536,2960.823768,-9806.022374
927.335194,-592.164754,222.061783,-9652.803275
927.335514,-1258.350101,-1998.556043,-9116.536426
927.335834,-1258.350101,-2960.823768,-8886.707777
927.336154,-962.267725,-1998.556043,-10418.898773
927.336474,-296.082377,-740.205942,-9806.022374
927.336794,-222.061783,592.164754,-10725.336972
927.337114,444.123565,1110.308913,-10801.946522
927.337434,1258.350101,1406.391290,-10035.851024
927.337754,1998.556043,592.164754,-11031.775171
927.338074,1850.514855,666.185348,-9882.631924
927.338394,1998.556043,-148.041188,-10342.289223
927.338714,2960.823768,222.061783,-9882.631924
927.339034,4071.132681,-518.144159,-9959.241474
927.339354,5403.503377,-740.205942,-10955.165621
927.339674,4663.297435,222.061783,-10955.165621
927.339994,888.247130,2146.597232,-10725.336972
927.340314,-2960.823768,2516.700203,-9882.631924
927.340634,-2220.617826,2294.638420,-9959.241474
927.340954,814.226536,888.247130,-10955.165621
927.341274,2664.741391,-1924.535449,-9499.584175
927.341594,3478.967927,-3034.844362,-9882.631924
927.341914,4515.256246,-2516.700203,-10265.679673
927.342234,4367.215058,0.000000,-9959.241474
927.342554,3478.967927,3256.906145,-10495.508323
927.342874,2072.576638,5625.565159,-9806.022374
927.343194,1332.370696,4441.235652,-10801.946522
927.343514,1850.514855,1406.391290,-9422.974625
927.343834,2294.638420,-2590.720797,-9806.022374
927.344154,1036.288319,-3775.050304,-9806.022374
927.344474,-1036.288319,-2072.576638,-9346.365076
927.344794,-1110.308913,-296.082377,-9806.022374
927.345114,814.226536,1776.494261,-9959.241474
927.345435,1184.329507,2368.659014,-10112.460574
927.345755,1258.350101,1998.556043,-10265.679673
927.346075,148.041188,888.247130,-10035.851024
927.346395,-1628.453072,-814.226536,-9729.412825
927.346715,-2812.782580,-2368.659014,-9346.365076
927.347035,-444.123565,-3034.844362,-9576.193725
927.347355,2220.617826,-2220.617826,-10265.679673
927.347675,-444.123565,666.185348,-9959.241474
927.347995,-4293.194464,3256.906145,-10648.727422
927.348315,-4959.379811,4367.215058,-10265.679673
927.348635,-2294.638420,3775.050304,-10572.117872
927.348955,-1406.391290,740.205942,-10572.117872
927.349275,-1776.494261,-2072.576638,-9346.365076
927.349595,-2368.659014,-3404.947333,-10342.289223
927.349915,-370.102971,-2368.659014,-10112.460574
927.350235,518.144159,222.061783,-10035.851024
927.350555,-148.041188,3330.926739,-9882.631924
927.350875,-2368.659014,3404.947333,-10035.851024
927.351195,-1924.535449,2146.597232,-10878.556072
927.351515,-740.205942,1110.308913,-10878.556072
927.351835,1184.329507,1628.453072,-10801.946522
927.352155,148.041188,2146.597232,-11108.384721
927.352475,-1258.350101,2590.720797,-9882.631924
927.352795,-592.164754,1554.432478,-10495.508323
927.353115,2738.761985,-148.041188,-10342.289223
927.353435,3701.029710,-1850.514855,-9806.022374
927.353755,1480.411884,-1406.391290,-10035.851024
927.354075,-814.226536,296.082377,-8580.269578
927.354395,148.041188,2960.823768,-10265.679673
927.354715,2590.720797,3849.070898,-10112.460574
927.355035,3701.029710,2516.700203,-9346.365076
927.355355,2812.782580,-370.102971,-10112.460574
927.355675,3775.050304,-2664.741391,-7967.393179
927.355995,4515.256246,-3627.009116,-9193.145976
927.356315,3849.070898,-2146.597232,-9422.974625
927.356635,3701.029710,-222.061783,-8963.317327
927.356956,2442.679609,1628.453072,-9652.803275
927.357276,2664.741391,1776.494261,-9422.974625
927.357596,3034.844362,1702.473667,-10112.460574
927.357916,3330.926739,1406.391290,-10725.336972
927.358236,1702.473667,592.164754,-9193.145976
927.358556,370.102971,-370.102971,-9959.241474
927.358876,0.000000,-2072.576638,-9806.022374
927.359196,-592.164754,-2220.617826,-10495.508323
927.359516,-740.205942,-148.041188,-10572.117872
927.359836,148.041188,1554.432478,-10648.727422
927.360156,1776.494261,3330.926739,-10878.556072
927.360476,2738.761985,3627.009116,-11414.822920
927.360796,814.226536,1110.308913,-10801.946522
927.361116,888.247130,0.000000,-10648.727422
927.361436,1110.308913,-2220.617826,-10801.946522
927.361756,-1258.350101,-1998.556043,-10189.070123
927.362076,-2886.803174,-1998.556043,-10035.851024
927.362396,-3034.844362,444.123565,-10572.117872
927.362716,-444.123565,2072.576638,-10725.336972
927.363036,148.041188,1998.556043,-11951.089769
927.363356,-2220.617826,592.164754,-10265.679673
927.363676,-4441.235652,222.061783,-9882.631924
927.363996,-4071.132681,962.267725,-10035.851024
927.364316,-2368.659014,962.267725,-9882.631924
927.364636,-444.123565,222.061783,-9882.631924
927.364956,-888.247130,-2146.597232,-9652.803275
927.365276,-222.061783,-2146.597232,-9116.536426
927.365596,-370.102971,-1924.535449,-9806.022374
927.365916,148.041188,-962.267725,-9652.803275
927.366236,148.041188,0.000000,-9729.412825
927.366556,-3034.844362,592.164754,-10035.851024
927.366876,-4367.215058,1924.535449,-9576.193725
927.367196,-3330.926739,2368.659014,-10189.070123
927.367516,148.041188,1924.535449,-10265.679673
927.367836,2368.659014,962.267725,-10112.460574
927.368156,2368.659014,-1850.514855,-10112.460574
927.368476,1036.288319,-3404.947333,-8963.317327
927.368797,-148.041188,-3182.885551,-9193.145976
927.369117,-444.123565,-2072.576638,-9422.974625
927.369437,1702.473667,518.144159,-9959.241474
927.369757,2442.679609,2368.659014,-10801.946522
927.370077,2294.638420,3849.070898,-10495.508323
927.370397,74.020594,2738.761985,-10878.556072
927.370717,740.205942,222.061783,-9959.241474
927.371037,2220.617826,-2146.597232,-10648.727422
927.371357,1554.432478,-3330.926739,-10342.289223
927.371677,888.247130,-2664.741391,-9576.193725
927.371997,1110.308913,-592.164754,-10189.070123
927.372317,2442.679609,1184.329507,-10342.289223
927.372637,2442.679609,2516.700203,-10725.336972
927.372957,1258.350101,3330.926739,-11031.775171
927.373277,1776.494261,2590.720797,-10112.460574
927.373597,3330.926739,888.247130,-9806.022374
927.373917,4219.173869,-1036.288319,-9806.022374
927.374237,4737.318029,-2442.679609,-10112.460574
927.374557,3552.988522,-2220.617826,-9652.803275
927.374877,2072.576638,148.041188,-9652.803275
927.375197,148.041188,2072.576638,-10189.070123
927.375517,-444.123565,2812.782580,-9959.241474
927.375837,0.000000,2442.679609,-10342.289223
927.376157,444.123565,1332.370696,-9576.193725
927.376477,0.000000,-1036.288319,-9422.974625
927.376797,592.164754,-2886.803174,-9499.584175
927.377117,2516.700203,-2590.720797,-9882.631924
927.377437,3256.906145,-148.041188,-10189.070123
927.377757,1776.494261,3108.864956,-9806.022374
927.378077,0.000000,3849.070898,-10189.070123
927.378397,-2368.659014,2516.700203,-9729.412825
927.378717,-1332.370696,740.205942,-10189.070123
927.379037,814.226536,-962.267725,-9806.022374
927.379357,1628.453072,-1998.556043,-10189.070123
927.379677,-666.185348,-1628.453072,-9959.241474
927.379997,-2886.803174,-1036.288319,-9729.412825
927.380318,-2220.617826,592.164754,-9729.412825
927.380638,-2146.597232,2738.761985,-10801.946522
927.380958,-2220.617826,3552.988522,-9959.241474
927.381278,-2590.720797,3256.906145,-10342.289223
927.381598,-1480.411884,2368.659014,-11184.994271
927.381918,-296.082377,592.164754,-10265.679673
927.382238,296.082377,-1480.411884,-9882.631924
927.382558,1110.308913,-1776.494261,-9729.412825
927.382878,592.164754,-666.185348,-9959.241474
927.383198,74.020594,1184.329507,-10801.946522
927.383518,-592.164754,2812.782580,-11184.994271
927.383838,74.020594,3849.070898,-10878.556072
927.384158,-592.164754,2590.720797,-9806.022374
927.384478,-1998.556043,1258.350101,-10342.289223
927.384798,-1184.329507,-740.205942,-9346.365076
927.385118,444.123565,-814.226536,-9806.022374
927.385438,1998.556043,-222.061783,-10342.289223
927.385758,1480.411884,-518.144159,-9346.365076
927.386078,-592.164754,-1332.370696,-9959.241474
927.386398,-666.185348,-2072.576638,-9422.974625
927.386718,-148.041188,148.041188,-9576.193725
927.387038,2886.803174,3552.988522,-10418.898773
927.387358,2442.679609,4737.318029,-10725.336972
927.387678,2146.597232,5403.503377,-9959.241474
927.387998,1480.411884,2960.823768,-10725.336972
927.388318,2294.638420,-222.061783,-10035.851024
927.388638,2590.720797,-2664.741391,-9806.022374
927.388958,1924.535449,-4515.256246,-9959.241474
927.389278,2146.597232,-1628.453072,-9422.974625
927.389598,1554.432478,-666.185348,-10189.070123
927.389918,2516.700203,1776.494261,-9576.193725
927.390238,2442.679609,1702.473667,-9959.241474
927.390558,666.185348,1702.473667,-10189.070123
927.390878,1554.432478,-222.061783,-9959.241474
927.391198,1258.350101,-1184.329507,-10418.898773
927.391518,1924.535449,-962.267725,-9806.022374
927.391839,2812.782580,-1258.350101,-10189.070123
927.392159,2960.823768,-1702.473667,-10112.460574
927.392479,592.164754,-1554.432478,-9806.022374
927.392799,-1184.329507,0.000000,-9576.193725
927.393119,-1850.514855,1406.391290,-10648.727422
927.393439,-296.082377,1554.432478,-9882.631924
927.393759,740.205942,148.041188,-10572.117872
927.394079,148.041188,-1480.411884,-10112.460574
927.394399,-814.226536,-2886.803174,-10112.460574
927.394719,-814.226536,-2146.597232,-10112.460574
927.395039,-1332.370696,296.082377,-10418.898773
927.395359,-1776.494261,1850.514855,-10189.070123
927.395679,0.000000,3552.988522,-10878.556072
927.395999,0.000000,2960.823768,-10342.289223
927.396319,-1110.308913,2072.576638,-11568.042020
927.396639,-1776.494261,592.164754,-10265.679673
927.396959,-518.144159,-1628.453072,-9882.631924
927.397279,-444.123565,-2516.700203,-9576.193725
927.397599,-1036.288319,-2812.782580,-10572.117872
927.397919,-1554.432478,-1850.514855,-9959.241474
927.398239,-296.082377,1036.288319,-9959.241474
927.398559,666.185348,2960.823768,-10112.460574
927.398879,814.226536,3182.885551,-10265.679673
927.399199,1480.411884,814.226536,-10112.460574
927.399519,962.267725,-2220.617826,-9806.022374
927.399839,-1406.391290,-2960.823768,-9499.584175
927.400159,-3552.988522,-2738.761985,-9959.241474
927.400479,-3552.988522,-1776.494261,-9499.584175
927.400799,-2072.576638,-148.041188,-9729.412825
927.401119,740.205942,1406.391290,-9806.022374
927.401439,2442.679609,1554.432478,-10725.336972
927.401759,2738.761985,962.267725,-10572.117872
927.402079,2516.700203,370.102971,-10418.898773
927.402399,1850.514855,518.144159,-9729.412825
927.402719,2368.659014,444.123565,-10189.070123
927.403039,2442.679609,-814.226536,-10189.070123
927.403359,888.247130,-1036.288319,-9499.584175
927.403680,296.082377,-370.102971,-10265.679673
927.404000,1998.556043,814.226536,-10112.460574
927.404320,3182.885551,2664.741391,-10418.898773
927.404640,3997.112087,3701.029710,-10801.946522
927.404960,2516.700203,3552.988522,-10418.898773
927.405280,1406.391290,1258.350101,-10725.336972
927.405600,1036.288319,-740.205942,-10035.851024
927.405920,888.247130,-2146.597232,-10189.070123
927.406240,2368.659014,-1998.556043,-9346.365076
927.406560,3330.926739,0.000000,-9882.631924
927.406880,2812.782580,2146.597232,-10342.289223
927.407200,2146.597232,3256.906145,-10648.727422
927.407520,1998.556043,3478.967927,-10189.070123
927.407840,1702.473667,2886.803174,-11108.384721
927.408160,0.000000,1628.453072,-9882.631924
927.408480,-296.082377,0.000000,-10342.289223
927.408800,962.267725,-1924.535449,-10265.679673
927.409120,1110.308913,-2368.659014,-8733.488677
927.409440,0.000000,-2738.761985,-9806.022374
927.409760,-740.205942,-740.205942,-9729.412825
927.410080,-1036.288319,1702.473667,-9806.022374
927.410400,-1480.411884,2590.720797,-10189.070123
927.410720,0.000000,3182.885551,-9882.631924
927.411040,-222.061783,1702.473667,-10189.070123
927.411360,-814.226536,0.000000,-9806.022374
927.411680,-444.123565,-592.164754,-9959.241474
927.412000,-148.041188,0.000000,-10035.851024
927.412320,962.267725,962.267725,-9806.022374
927.412640,-518.144159,1924.535449,-10112.460574
927.412960,-4441.235652,1332.370696,-9346.365076
927.413280,-3701.029710,370.102971,-9652.803275
927.413600,-1998.556043,370.102971,-10418.898773
927.413920,148.041188,0.000000,-10342.289223
927.414240,0.000000,-1036.288319,-9959.241474
927.414560,0.000000,-518.144159,-9729.412825
927.414880,74.020594,518.144159,-10265.679673
927.415201,444.123565,1554.432478,-10265.679673
927.415521,-962.267725,888.247130,-10342.289223
927.415841,-222.061783,518.144159,-9882.631924
927.416161,1332.370696,-370.102971,-10725.336972
927.416481,296.082377,-666.185348,-9959.241474
927.416801,-888.247130,0.000000,-10342.289223
927.417121,0.000000,222.061783,-10189.070123
927.417441,740.205942,370.102971,-10189.070123
927.417761,1110.308913,-1776.494261,-10112.460574
927.418081,1480.411884,-2368.659014,-9499.584175
927.418401,1258.350101,-2590.720797,-10112.460574
927.418721,2368.659014,-1776.494261,-10189.070123
927.419041,1480.411884,0.000000,-9652.803275
927.419361,814.226536,3330.926739,-9499.584175
927.419681,148.041188,4219.173869,-9806.022374
927.420001,2664.741391,2442.679609,-9806.022374
927.420321,4219.173869,0.000000,-10265.679673
927.420641,4071.132681,-5921.647536,-9652.803275
927.420961,1628.453072,-7402.059420,-8580.269578
927.421281,1406.391290,-5181.441594,-9959.241474
927.421601,740.205942,296.082377,-9269.755526
927.421921,814.226536,5033.400406,-9882.631924
927.422241,1036.288319,6291.750507,-11031.775171
927.422561,4663.297435,4589.276840,-10265.679673
927.422881,1258.350101,-666.185348,-11568.042020
927.423201,2072.576638,-3701.029710,-9499.584175
927.423521,888.247130,-4293.194464,-10189.070123
927.423841,2368.659014,-3701.029710,-10112.460574
927.424161,2368.659014,296.082377,-9959.241474
927.424481,370.102971,3256.906145,-11414.822920
927.424801,666.185348,4071.132681,-10495.508323
927.425121,962.267725,2664.741391,-11568.042020
927.425441,-888.247130,1628.453072,-10495.508323
927.425761,-2664.741391,1258.350101,-9806.022374
927.426081,-518.144159,-1554.432478,-10878.556072
927.426401,1554.432478,-3404.947333,-9882.631924
927.426721,296.082377,-3182.885551,-10342.289223
927.427042,-2146.597232,-666.185348,-9806.022374
927.427362,-2368.659014,1406.391290,-9729.412825
927.427682,222.061783,3552.988522,-10342.289223
927.428002,518.144159,4145.153275,-10725.336972
927.428322,-222.061783,2886.803174,-10265.679673
927.428642,-1998.556043,1332.370696,-9652.803275
927.428962,-1776.494261,-2368.659014,-9422.974625
927.429282,-1998.556043,-3034.844362,-8886.707777
927.429602,222.061783,-3627.009116,-8963.317327
927.429922,1184.329507,-2368.659014,-9576.193725
927.430242,-1184.329507,1332.370696,-9499.584175
927.430562,-2146.597232,4663.297435,-9959.241474
927.430882,-888.247130,5995.668130,-10725.336972
927.431202,1998.556043,4737.318029,-10801.946522
927.431522,1036.288319,2220.617826,-10801.946522
927.431842,-1036.288319,-1628.453072,-9269.755526
927.432162,-1332.370696,-3330.926739,-8810.098227
927.432482,1110.308913,-3108.864956,-9806.022374
927.432802,3552.988522,-1258.350101,-9806.022374
927.433122,3108.864956,2590.720797,-11108.384721
927.433442,1036.288319,3849.070898,-10418.898773
927.433762,0.000000,3997.112087,-10418.898773
927.434082,148.041188,1702.473667,-10265.679673
927.434402,518.144159,148.041188,-10112.460574
927.434722,1184.329507,-222.061783,-9729.412825
927.435042,444.123565,-1258.350101,-10112.460574
927.435363,1480.411884,-2294.638420,-9959.241474
927.435683,1036.288319,-1628.453072,-10112.460574
927.436003,1850.514855,518.144159,-10265.679673
927.436323,1628.453072,3775.050304,-9882.631924
927.436643,1998.556043,5329.482782,-10955.165621
927.436963,1258.350101,4367.215058,-10648.727422
927.437283,1184.329507,296.082377,-10112.460574
927.437603,2664.741391,-2590.720797,-9652.803275
927.437923,2220.617826,-2886.803174,-9499.584175
927.438243,740.205942,-2220.617826,-9346.365076
927.438563,1776.494261,-518.144159,-10035.851024
927.438883,2664.741391,1850.514855,-9882.631924
927.439203,3330.926739,1480.411884,-10495.508323
927.439523,814.226536,962.267725,-9959.241474
927.439843,-592.164754,666.185348,-9806.022374
927.440163,-2368.659014,0.000000,-9806.022374
927.440483,518.144159,-740.205942,-10725.336972
927.440803,1332.370696,-740.205942,-10035.851024
927.441123,0.000000,-1628.453072,-10342.289223
927.441443,-1924.535449,-1406.391290,-9806.022374
927.441764,-2220.617826,-2664.741391,-9806.022374
927.442084,0.000000,-1554.432478,-10495.508323
927.442404,1480.411884,1258.350101,-10265.679673
927.442724,0.000000,2442.679609,-10801.946522
927.443044,-518.144159,2220.617826,-10725.336972
927.443364,-962.267725,592.164754,-9882.631924
927.443684,0.000000,0.000000,-10495.508323
927.444004,-814.226536,-962.267725,-10342.289223
927.444324,-1184.329507,-1184.329507,-10189.070123
927.444644,-2590.720797,74.020594,-10265.679673
927.444964,-1110.308913,74.020594,-9806.022374
927.445284,-296.082377,518.144159,-9806.022374
927.445604,814.226536,666.185348,-9959.241474
927.445924,0.000000,1110.308913,-10725.336972
927.446244,-1036.288319,1184.329507,-10189.070123
927.446564,-1258.350101,0.000000,-9959.241474
927.446884,0.000000,-370.102971,-9652.803275
927.447204,1776.494261,-1628.453072,-9652.803275
927.447524,1628.453072,-1258.350101,-10725.336972
927.447845,74.020594,296.082377,-10035.851024
927.448165,222.061783,666.185348,-10035.851024
927.448485,1776.494261,666.185348,-10189.070123
927.448805,3182.885551,1480.411884,-9422.974625
927.449125,2220.617826,962.267725,-10725.336972
927.449445,1184.329507,0.000000,-10035.851024
927.449765,1998.556043,1110.308913,-10955.165621
927.450085,2072.576638,1554.432478,-10648.727422
927.450405,1776.494261,518.144159,-10495.508323
927.450725,814.226536,222.061783,-10495.508323
927.451045,0.000000,-1554.432478,-9959.241474
927.451365,-740.205942,-370.102971,-10112.460574
927.451685,-814.226536,296.082377,-9729.412825
927.452005,2146.597232,1332.370696,-9806.022374
927.452325,3701.029710,2220.617826,-10955.165621
927.452645,2368.659014,2072.576638,-10265.679673
927.452965,3701.029710,1554.432478,-10725.336972
927.453285,3034.844362,1036.288319,-9499.584175
927.453605,3182.885551,518.144159,-10189.070123
927.453926,1110.308913,222.061783,-10035.851024
927.454246,-1258.350101,0.000000,-9652.803275
927.454566,-2294.638420,-370.102971,-9422.974625
927.454886,-1702.473667,0.000000,-9499.584175
927.455206,2368.659014,740.205942,-9806.022374
927.455526,3478.967927,1036.288319,-10189.070123
927.455846,518.144159,-444.123565,-10189.070123
927.456166,-1332.370696,370.102971,-9039.926876
927.456486,-2886.803174,-370.102971,-9806.022374
927.456806,814.226536,0.000000,-9652.803275
927.457126,2146.597232,-148.041188,-10495.508323
927.457446,888.247130,666.185348,-9882.631924
927.457766,-740.205942,666.185348,-9576.193725
927.458086,1332.370696,1332.370696,-10035.851024
927.458406,1406.391290,1406.391290,-10342.289223
927.458726,-1110.308913,0.000000,-10112.460574
927.459046,-3256.906145,-148.041188,-10112.460574
927.459366,-2294.638420,-1258.350101,-9806.022374
927.459686,74.020594,148.041188,-10265.679673
927.460006,222.061783,1850.514855,-10495.508323
927.460327,-370.102971,3775.050304,-11031.775171
927.460647,-1776.494261,2738.761985,-10265.679673
927.460967,-1406.391290,1332.370696,-9959.241474
927.461287,0.000000,-518.144159,-9882.631924
927.461607,1036.288319,-1702.473667,-10112.460574
927.461927,1480.411884,-444.123565,-10189.070123
927.462247,-222.061783,814.226536,-10342.289223
927.462567,-1776.494261,2368.659014,-9806.022374
927.462887,-1258.350101,1850.514855,-10342.289223
927.463207,1924.535449,2442.679609,-10801.946522
927.463527,666.185348,1332.370696,-10342.289223
927.463847,-962.267725,814.226536,-10265.679673
927.464167,-962.267725,148.041188,-9729.412825
927.464487,814.226536,-888.247130,-9806.022374
927.464807,3552.988522,-2442.679609,-9346.365076
927.465127,2146.597232,-2590.720797,-9576.193725
927.465447,370.102971,222.061783,-9806.022374
927.465767,74.020594,1776.494261,-9959.241474
927.466087,2368.659014,4737.318029,-9806.022374
927.466408,4071.132681,3775.050304,-10495.508323
927.466728,2886.803174,888.247130,-10418.898773
927.467048,-222.061783,-2368.659014,-9806.022374
927.467368,-74.020594,-4145.153275,-10035.851024
927.467688,1480.411884,-3404.947333,-9346.365076
927.468008,2072.576638,-1924.535449,-9499.584175
927.468328,3034.844362,814.226536,-10189.070123
927.468648,1850.514855,1628.453072,-10112.460574
927.468968,2368.659014,518.144159,-10112.460574
927.469288,2368.659014,592.164754,-10572.117872
927.469608,3997.112087,0.000000,-10265.679673
927.469928,2886.803174,74.020594,-10495.508323
927.470248,518.144159,-518.144159,-9576.193725
927.470568,1850.514855,-962.267725,-9116.536426
927.470888,1850.514855,-444.123565,-10725.336972
927.471208,-444.123565,0.000000,-10495.508323
927.471528,-3256.906145,-518.144159,-10342.289223
927.471848,-3923.091493,740.205942,-9499.584175
927.472168,-1554.432478,444.123565,-10189.070123
927.472489,2442.679609,-592.164754,-9806.022374
927.472809,2368.659014,-148.041188,-10418.898773
927.473129,74.020594,-296.082377,-10495.508323
927.473449,1036.288319,-296.082377,-9576.193725
927.473769,2516.700203,0.000000,-10955.165621
927.474089,2886.803174,814.226536,-10035.851024
927.474409,-370.102971,74.020594,-10265.679673
927.474729,-2960.823768,0.000000,-9959.241474
927.475049,-3701.029710,-148.041188,-9422.974625
927.475369,-1776.494261,0.000000,-10112.460574
927.475689,74.020594,-1036.288319,-10342.289223
927.476009,-666.185348,-592.164754,-10801.946522
927.476329,-3404.947333,-666.185348,-10035.851024
927.476649,-2294.638420,-148.041188,-10495.508323
927.476969,-1480.411884,814.226536,-9576.193725
927.477289,-888.247130,1702.473667,-10648.727422
927.477609,-148.041188,1776.494261,-9269.755526
927.477929,74.020594,962.267725,-10112.460574
927.478249,296.082377,296.082377,-10035.851024
927.478569,-444.123565,-1554.432478,-9193.145976
927.478890,1406.391290,-1258.350101,-9576.193725
927.479210,3478.967927,-740.205942,-9959.241474
927.479530,2590.720797,888.247130,-10035.851024
927.479850,222.061783,3627.009116,-10265.679673
927.480170,-1554.432478,3849.070898,-10418.898773
927.480490,74.020594,2368.659014,-10189.070123
927.480810,2516.700203,-518.144159,-10801.946522
927.481130,2442.679609,-3256.906145,-10189.070123
927.481450,2294.638420,-2368.659014,-10801.946522
927.481770,2886.803174,-148.041188,-10418.898773
927.482090,3478.967927,4367.215058,-11644.651570
927.482410,2368.659014,7105.977043,-11031.775171
927.482730,1110.308913,5625.565159,-11414.822920
927.483050,666.185348,2886.803174,-10189.070123
927.483370,1406.391290,-962.267725,-10265.679673
927.483690,1702.473667,-2590.720797,-10035.851024
927.484010,1184.329507,-2072.576638,-9422.974625
927.484330,666.185348,-962.267725,-9729.412825
927.484650,2294.638420,962.267725,-9499.584175
927.484971,3627.009116,2442.679609,-9422.974625
927.485291,4071.132681,2368.659014,-10035.851024
927.485611,1554.432478,2590.720797,-9576.193725
927.485931,222.061783,962.267725,-9269.755526
927.486251,666.185348,-962.267725,-9422.974625
927.486571,-148.041188,-2516.700203,-8656.879127
927.486891,444.123565,-1924.535449,-9576.193725
927.487211,-296.082377,-1924.535449,-9116.536426
927.487531,-1702.473667,148.041188,-9882.631924
927.487851,-2738.761985,962.267725,-9346.365076
927.488171,-1628.453072,148.041188,-9346.365076
927.488491,666.185348,518.144159,-9959.241474
927.488811,1998.556043,-296.082377,-10418.898773
927.489131,1480.411884,-296.082377,-10955.165621
927.489451,-296.082377,-1184.329507,-9806.022374
927.489771,0.000000,148.041188,-10725.336972
927.490091,814.226536,1258.350101,-10725.336972
927.490411,-888.247130,3552.988522,-10801.946522
927.490731,-2664.741391,1998.556043,-10572.117872
927.491052,-1850.514855,1406.391290,-10878.556072
927.491372,-1998.556043,-2146.597232,-10342.289223
927.491692,-1776.494261,-3182.885551,-9346.365076
927.492012,-3552.988522,-3330.926739,-9806.022374
927.492332,-3627.009116,-2516.700203,-10189.070123
927.492652,-370.102971,1110.308913,-10112.460574
927.492972,0.000000,1850.514855,-10495.508323
927.493292,2442.679609,3552.988522,-10801.946522
927.493612,444.123565,1998.556043,-10648.727422
927.493932,1554.432478,1036.288319,-10418.898773
927.494252,-222.061783,666.185348,-9729.412825
927.494572,1702.473667,-1406.391290,-9882.631924
927.494892,3108.864956,-814.226536,-10265.679673
927.495212,1554.432478,-1110.308913,-9882.631924
927.495532,0.000000,814.226536,-9882.631924
927.495852,0.000000,1628.453072,-9422.974625
927.496172,2220.617826,2368.659014,-10418.898773
927.496492,1998.556043,666.185348,-9882.631924
927.496812,1184.329507,0.000000,-9499.584175
927.497132,1554.432478,-1110.308913,-10112.460574
927.497453,1110.308913,-1406.391290,-8886.707777
927.497773,814.226536,-1258.350101,-9499.584175
927.498093,1850.514855,222.061783,-9806.022374
927.498413,3997.112087,1406.391290,-10648.727422
927.498733,3256.906145,1036.288319,-10418.898773
927.499053,1628.453072,1480.411884,-9576.193725
927.499373,592.164754,1332.370696,-10572.117872
927.499693,2294.638420,518.144159,-10342.289223
927.500013,2812.782580,-888.247130,-10342.289223
927.500333,1702.473667,-2072.576638,-9959.241474
927.500653,296.082377,-2146.597232,-10035.851024
927.500973,2960.823768,-888.247130,-10572.117872
927.501293,3849.070898,1850.514855,-10112.460574
927.501613,1998.556043,5699.585753,-11951.089769
927.501933,-518.144159,5847.626942,-11031.775171
927.502253,-592.164754,2516.700203,-10495.508323
927.502573,-222.061783,-1924.535449,-10112.460574
927.502893,1110.308913,-3108.864956,-9806.022374
927.503213,-1258.350101,-3034.844362,-10648.727422
927.503534,-2368.659014,-1554.432478,-9652.803275
927.503854,-3478.967927,222.061783,-9652.803275
927.504174,1480.411884,3108.864956,-10265.679673
927.504494,814.226536,2886.803174,-9193.145976
927.504814,-1332.370696,1110.308913,-10801.946522
927.505134,-888.247130,-592.164754,-9729.412825
927.505454,-1406.391290,-1998.556043,-9882.631924
927.505774,2368.659014,-666.185348,-10878.556072
927.506094,888.247130,0.000000,-9499.584175
927.506414,-2442.679609,-444.123565,-9806.022374
927.506734,-4367.215058,888.247130,-9269.755526
927.507054,-5329.482782,1110.308913,-9806.022374
927.507374,-3034.844362,-1702.473667,-9729.412825
927.507694,-1110.308913,-666.185348,-9576.193725
927.508014,-962.267725,-1332.370696,-9806.022374
927.508334,-518.144159,-1332.370696,-9039.926876
927.508654,814.226536,0.000000,-9499.584175
927.508974,296.082377,222.061783,-10342.289223
927.509294,1406.391290,148.041188,-9499.584175
927.509615,1184.329507,518.144159,-10572.117872
927.509935,1110.308913,148.041188,-9576.193725
927.510255,2072.576638,1184.329507,-9729.412825
927.510575,1036.288319,1554.432478,-10418.898773
927.510895,2664.741391,1406.391290,-10725.336972
927.511215,74.020594,740.205942,-10342.289223
927.511535,0.000000,888.247130,-10648.727422
927.511855,2442.679609,2368.659014,-10112.460574
927.512175,3404.947333,1850.514855,-11261.603821
927.512495,2590.720797,74.020594,-10725.336972
927.512815,1036.288319,-222.061783,-10572.117872
927.513135,1184.329507,-518.144159,-10801.946522
927.513455,3330.926739,-814.226536,-10265.679673
927.513775,3627.009116,1554.432478,-10342.289223
927.514095,2220.617826,3627.009116,-11031.775171
927.514415,444.123565,2294.638420,-11644.651570
927.514735,2294.638420,1332.370696,-10035.851024
927.515055,3256.906145,-370.102971,-10189.070123
927.515375,2368.659014,-1628.453072,-9806.022374
927.515695,592.164754,-2146.597232,-9269.755526
927.516016,74.020594,-1110.308913,-10955.165621
927.516336,1924.535449,-370.102971,-8810.098227
927.516656,2590.720797,444.123565,-10112.460574
927.516976,1332.370696,222.061783,-8733.488677
927.517296,2442.679609,-740.205942,-9652.803275
927.517616,2220.617826,666.185348,-9193.145976
927.517936,592.164754,962.267725,-9806.022374
927.518256,0.000000,222.061783,-8810.098227
927.518576,888.247130,-296.082377,-10112.460574
927.518896,1850.514855,-1332.370696,-9729.412825
927.519216,-370.102971,-962.267725,-9806.022374
927.519536,-1702.473667,-444.123565,-9652.803275
927.519856,-2664.741391,1406.391290,-9882.631924
927.520176,-2294.638420,1628.453072,-10955.165621
927.520496,-444.123565,1480.411884,-10495.508323
927.520816,-814.226536,444.123565,-10955.165621
927.521136,-1628.453072,1036.288319,-10112.460574
927.521456,0.000000,1110.308913,-11031.775171
927.521776,-370.102971,1924.535449,-10801.946522
927.522097,-1332.370696,1258.350101,-10955.165621
927.522417,-1702.473667,814.226536,-10801.946522
927.522737,-592.164754,518.144159,-10418.898773
927.523057,-222.061783,-962.267725,-11414.822920
927.523377,-1036.288319,-444.123565,-10572.117872
927.523697,-1702.473667,592.164754,-10189.070123
927.524017,-2516.700203,1406.391290,-10801.946522
927.524337,-1776.494261,814.226536,-9193.145976
927.524657,-2368.659014,592.164754,-9346.365076
927.524977,592.164754,-592.164754,-10189.070123
927.525297,3034.844362,0.000000,-9652.803275
927.525617,2368.659014,-148.041188,-9806.022374
927.525937,1258.350101,1110.308913,-8580.269578
927.526257,1628.453072,1258.350101,-9806.022374
927.526577,296.082377,444.123565,-10035.851024
927.526897,-1258.350101,-592.164754,-8963.317327
927.527217,-2442.679609,-888.247130,-8963.317327
927.527537,74.020594,-962.267725,-9499.584175
927.527857,1924.535449,-1110.308913,-9959.241474
927.528178,1480.411884,-888.247130,-9039.926876
927.528498,2442.679609,1036.288319,-10112.460574
927.528818,1998.556043,814.226536,-9729.412825
927.529138,4071.132681,444.123565,-10725.336972
927.529458,3256.906145,888.247130,-9806.022374
927.529778,2960.823768,1332.370696,-10342.289223
927.530098,1702.473667,1110.308913,-9729.412825
927.530418,1998.556043,1998.556043,-11338.213370
927.530738,814.226536,-888.247130,-10418.898773
927.531058,1776.494261,-2886.803174,-10265.679673
927.531378,2294.638420,-2368.659014,-9806.022374
927.531698,1776.494261,-1554.432478,-10418.898773
927.532018,740.205942,888.247130,-10955.165621
927.532338,-444.123565,1924.535449,-10418.898773
927.532657,1554.432478,1702.473667,-11108.384721
927.532977,2072.576638,1184.329507,-10572.117872
927.533297,2442.679609,-1110.308913,-10495.508323
927.533617,1776.494261,370.102971,-10342.289223
927.533937,-148.041188,74.020594,-10265.679673
927.534257,518.144159,0.000000,-10878.556072
927.534577,1036.288319,666.185348,-10648.727422
927.534897,0.000000,0.000000,-10418.898773
927.535217,-2072.576638,-666.185348,-9422.974625
927.535537,-1406.391290,888.247130,-10189.070123
927.535857,370.102971,1850.514855,-9806.022374
927.536176,1850.514855,1110.308913,-10112.460574
927.536496,1406.391290,222.061783,-9806.022374
927.536816,0.000000,-1480.411884,-9576.193725
927.537136,-740.205942,-444.123565,-9422.974625
927.537456,-1702.473667,148.041188,-9576.193725
927.537776,-888.247130,962.267725,-9499.584175
927.538096,-1924.535449,1184.329507,-10265.679673
927.538416,-4219.173869,370.102971,-9499.584175
927.538736,-4367.215058,148.041188,-9806.022374
927.539056,-2442.679609,-1036.288319,-9806.022374
927.539376,0.000000,-1184.329507,-9652.803275
927.539695,962.267725,-222.061783,-10342.289223
927.540015,148.041188,222.061783,-9729.412825
927.540335,-296.082377,1776.494261,-9422.974625
927.540655,-888.247130,740.205942,-9806.022374
927.540975,222.061783,1110.308913,-9959.241474
927.541295,148.041188,1258.350101,-10265.679673
927.541615,0.000000,296.082377,-10265.679673
927.541935,1702.473667,-1036.288319,-9499.584175
927.542255,296.082377,444.123565,-10342.289223
927.542575,1110.308913,666.185348,-9959.241474
927.542895,0.000000,814.226536,-10572.117872
927.543214,-3478.967927,444.123565,-9193.145976
927.543534,-888.247130,1258.350101,-9729.412825
927.543854,740.205942,1110.308913,-10418.898773
927.544174,3552.988522,1258.350101,-10495.508323
927.544494,4589.276840,888.247130,-10495.508323
927.544814,4737.318029,814.226536,-10418.898773
927.545134,3775.050304,0.000000,-10035.851024
927.545454,2368.659014,296.082377,-10418.898773
927.545774,2368.659014,1776.494261,-10189.070123
927.546094,2960.823768,1332.370696,-10035.851024
927.546413,2738.761985,1850.514855,-10265.679673
927.546733,962.267725,1554.432478,-10112.460574
927.547053,1184.329507,1184.329507,-10495.508323
927.547373,3108.864956,1110.308913,-10112.460574
927.547693,3701.029710,-222.061783,-10418.898773
927.548013,2442.679609,74.020594,-10265.679673
927.548333,-148.041188,0.000000,-9422.974625
927.548653,222.061783,-222.061783,-9882.631924
927.548973,2220.617826,962.267725,-9729.412825
927.549293,1924.535449,-222.061783,-9806.022374
927.549613,1110.308913,-1924.535449,-8733.488677
927.549932,1184.329507,-1628.453072,-9576.193725
927.550252,1036.288319,518.144159,-10265.679673
927.550572,1850.514855,1332.370696,-10035.851024
927.550892,1702.473667,1110.308913,-10572.117872
927.551212,814.226536,1480.411884,-10342.289223
927.551532,-1628.453072,0.000000,-9422.974625
927.551852,-1924.535449,-370.102971,-9882.631924
927.552172,-1776.494261,-2368.659014,-9959.241474
927.552492,-2220.617826,-814.226536,-9806.022374
927.552812,-1036.288319,-814.226536,-10418.898773
927.553132,-296.082377,74.020594,-9882.631924
927.553451,-814.226536,296.082377,-10342.289223
927.553771,-1184.329507,814.226536,-10418.898773
927.554091,-2368.659014,296.082377,-10418.898773
927.554411,-3034.844362,-1554.432478,-10035.851024
927.554731,-1924.535449,-1110.308913,-9652.803275
927.555051,-2220.617826,-1406.391290,-10342.289223
927.555371,-740.205942,0.000000,-10418.898773
927.555691,-1406.391290,666.185348,-10112.460574
927.556011,-666.185348,1036.288319,-10648.727422
927.556331,0.000000,1702.473667,-10418.898773
927.556650,1702.473667,148.041188,-10878.556072
927.556970,962.267725,0.000000,-10648.727422
927.557290,-2886.803174,-592.164754,-9806.022374
927.557610,-3478.967927,-1110.308913,-9652.803275
927.557930,370.102971,0.000000,-9729.412825
927.558250,2146.597232,222.061783,-10648.727422
927.558570,2442.679609,592.164754,-8886.707777
927.558890,1628.453072,-962.267725,-9729.412825
927.559210,2220.617826,-518.144159,-9729.412825
927.559530,2368.659014,-296.082377,-9499.584175
927.559850,1628.453072,666.185348,-9806.022374
927.560169,1776.494261,1036.288319,-9576.193725
927.560489,1480.411884,0.000000,-9499.584175
927.560809,1850.514855,-592.164754,-9959.241474
927.561129,2368.659014,-1702.473667,-10189.070123
927.561449,1924.535449,-1628.453072,-9576.193725
927.561769,1554.432478,0.000000,-10265.679673
927.562089,1036.288319,-222.061783,-10035.851024
927.562409,2220.617826,1776.494261,-10112.460574
927.562729,3404.947333,1924.535449,-10418.898773
927.563049,4219.173869,2368.659014,-10955.165621
927.563369,2960.823768,1184.329507,-10189.070123
927.563688,1110.308913,222.061783,-10725.336972
927.564008,1702.473667,-814.226536,-9959.241474
927.564328,4145.153275,1036.288319,-10418.898773
927.564648,3034.844362,444.123565,-10878.556072
927.564968,592.164754,962.267725,-10112.460574
927.565288,-2812.782580,740.205942,-10112.460574
927.565608,-1776.494261,888.247130,-10189.070123
927.565928,-518.144159,74.020594,-10035.851024
927.566248,1998.556043,1110.308913,-10572.117872
927.566568,1850.514855,1406.391290,-10035.851024
927.566887,1184.329507,74.020594,-10035.851024
927.567207,2368.659014,962.267725,-10955.165621
927.567527,1184.329507,0.000000,-9806.022374
927.567847,814.226536,740.205942,-10112.460574
927.568167,-1406.391290,444.123565,-9576.193725
927.568487,-2886.803174,74.020594,-9806.022374
927.568807,-4145.153275,-888.247130,-9806.022374
927.569127,-3775.050304,-962.267725,-9499.584175
927.569447,-2072.576638,-1110.308913,-9806.022374
927.569767,-1184.329507,-666.185348,-9576.193725
927.570087,-962.267725,444.123565,-9806.022374
927.570406,-2368.659014,2294.638420,-10189.070123
927.570726,518.144159,2220.617826,-9959.241474
927.571046,2590.720797,962.267725,-10572.117872
927.571366,740.205942,-370.102971,-10035.851024
927.571686,-2442.679609,-1480.411884,-10189.070123
927.572006,-2664.741391,666.185348,-9652.803275
927.572326,0.000000,3404.947333,-11261.603821
927.572646,296.082377,3330.926739,-10801.946522
927.572966,-1628.453072,1998.556043,-10265.679673
927.573286,-2294.638420,-1702.473667,-9652.803275
927.573606,-518.144159,-2146.597232,-9882.631924
927.573925,518.144159,-1702.473667,-11031.775171
927.574245,888.247130,-296.082377,-10418.898773
927.574565,0.000000,1554.432478,-9806.022374
927.574885,1110.308913,3034.844362,-10801.946522
927.575205,4515.256246,3034.844362,-10955.165621
927.575525,5403.503377,1776.494261,-10572.117872
927.575845,4145.153275,2368.659014,-10801.946522
927.576165,2664.741391,1184.329507,-9882.631924
927.576485,2368.659014,0.000000,-10418.898773
927.576805,2960.823768,-1332.370696,-9499.584175
927.577125,3108.864956,-1628.453072,-9269.755526
927.577444,1628.453072,-370.102971,-9882.631924
927.577764,-962.267725,444.123565,-9806.022374
927.578084,-3552.988522,444.123565,-9346.365076
927.578404,-2960.823768,962.267725,-9806.022374
927.578724,-444.123565,0.000000,-9882.631924
927.579044,1776.494261,-1184.329507,-9269.755526
927.579364,1702.473667,-2590.720797,-9422.974625
927.579684,1406.391290,-2590.720797,-9576.193725
927.580004,3923.091493,518.144159,-9422.974625
927.580324,5255.462188,1850.514855,-10342.289223
927.580643,6661.853478,2590.720797,-10801.946522
927.580963,4885.359217,3330.926739,-10801.946522
927.581283,666.185348,1702.473667,-10725.336972
927.581603,-370.102971,296.082377,-9882.631924
927.581923,-814.226536,-1850.514855,-10418.898773
927.582243,-888.247130,-3256.906145,-10035.851024
927.582563,-1258.350101,-3478.967927,-9959.241474
927.582883,-2368.659014,-888.247130,-9882.631924
927.583203,296.082377,888.247130,-9959.241474
927.583523,814.226536,1850.514855,-10648.727422
927.583843,0.000000,1258.350101,-10495.508323
927.584162,-2664.741391,74.020594,-10342.289223
927.584482,-3701.029710,-1258.350101,-10648.727422
927.584802,-2072.576638,-962.267725,-8733.488677
927.585122,-740.205942,-666.185348,-9882.631924
927.585442,148.041188,592.164754,-10495.508323
927.585762,518.144159,0.000000,-10265.679673
927.586082,222.061783,-1554.432478,-10112.460574
927.586402,222.061783,-1480.411884,-9806.022374
927.586722,1628.453072,-296.082377,-9193.145976
927.587042,-740.205942,1036.288319,-11184.994271
927.587362,-3404.947333,2294.638420,-9422.974625
927.587681,-4737.318029,444.123565,-10342.289223
927.588001,-1036.288319,-1924.535449,-8580.269578
927.588321,2368.659014,-148.041188,-10035.851024
927.588641,2442.679609,1184.329507,-10265.679673
927.588961,1332.370696,1554.432478,-10112.460574
927.589281,148.041188,1184.329507,-10955.165621
927.589601,-1554.432478,74.020594,-9193.145976
927.589921,-888.247130,-1480.411884,-10495.508323
927.590241,0.000000,-1258.350101,-9422.974625
927.590561,296.082377,-740.205942,-9959.241474
927.590880,1332.370696,1332.370696,-10648.727422
927.591200,3775.050304,1628.453072,-9959.241474
927.591520,4811.338623,1924.535449,-10648.727422
927.591840,3627.009116,2368.659014,-10112.460574
927.592160,814.226536,3108.864956,-10342.289223
927.592480,666.185348,3108.864956,-10648.727422
927.592800,2220.617826,2368.659014,-9806.022374
927.593120,2368.659014,888.247130,-10418.898773
927.593440,2368.659014,-740.205942,-10572.117872
927.593760,888.247130,-814.226536,-9729.412825
927.594080,-518.144159,-444.123565,-10342.289223
927.594399,518.144159,1850.514855,-10035.851024
927.594719,2294.638420,2664.741391,-10418.898773
927.595039,4071.132681,2590.720797,-10342.289223
927.595359,2590.720797,2072.576638,-10648.727422
927.595679,1554.432478,666.185348,-8733.488677
927.595999,0.000000,962.267725,-9729.412825
927.596319,1184.329507,592.164754,-9806.022374
927.596639,2960.823768,592.164754,-10112.460574
927.596959,1258.350101,-888.247130,-10801.946522
927.597279,518.144159,-1998.556043,-9806.022374
927.597599,444.123565,-1406.391290,-9652.803275
927.597918,1702.473667,1332.370696,-10265.679673
927.598238,1702.473667,2368.659014,-10418.898773
927.598558,-1554.432478,2368.659014,-10801.946522
927.598878,-2664.741391,814.226536,-9806.022374
927.599198,-2146.597232,-888.247130,-9116.536426
927.599518,-148.041188,-2516.700203,-9729.412825
927.599838,444.123565,-2146.597232,-9806.022374
927.600158,-1184.329507,-1036.288319,-9652.803275
927.600478,74.020594,0.000000,-9652.803275
927.600798,1258.350101,1554.432478,-10265.679673
927.601117,296.082377,1184.329507,-9806.022374
927.601437,-2368.659014,666.185348,-10112.460574
927.601757,-5699.585753,0.000000,-10035.851024
927.602077,-5033.400406,0.000000,-10418.898773
927.602397,0.000000,-518.144159,-9806.022374
927.602717,2072.576638,296.082377,-10265.679673
927.603037,814.226536,-222.061783,-10189.070123
927.603357,-2442.679609,222.061783,-10572.117872
927.603677,-2146.597232,-222.061783,-10418.898773
927.603997,-148.041188,444.123565,-10265.679673
927.604317,1628.453072,222.061783,-10112.460574
927.604636,2072.576638,-666.185348,-10418.898773
927.604956,0.000000,-1110.308913,-10342.289223
927.605276,-2146.597232,444.123565,-10112.460574
927.605596,-1110.308913,2294.638420,-10418.898773
927.605916,1332.370696,1554.432478,-10725.336972
927.606236,3478.967927,1480.411884,-10572.117872
927.606556,1184.329507,1184.329507,-11031.775171
927.606876,-518.144159,-1628.453072,-10495.508323
927.607196,74.020594,-1406.391290,-9499.584175
927.607516,2516.700203,-1332.370696,-10265.679673
927.607836,3330.926739,370.102971,-10725.336972
927.608155,-1184.329507,0.000000,-10035.851024
927.608475,-1480.411884,74.020594,-10112.460574
927.608795,1332.370696,0.000000,-9652.803275
927.609115,2368.659014,1554.432478,-10189.070123
927.609435,1702.473667,222.061783,-10572.117872
927.609755,1184.329507,-1554.432478,-9959.241474
927.610075,2220.617826,-1184.329507,-9806.022374
927.610395,4441.235652,-1036.288319,-9729.412825
927.610715,5107.421000,-444.123565,-10265.679673
927.611035,4071.132681,1258.350101,-9652.803275
927.611355,1998.556043,814.226536,-9422.974625
927.611674,3034.844362,1480.411884,-9882.631924
927.611994,4589.276840,-888.247130,-9806.022374
927.612314,3775.050304,-1628.453072,-9882.631924
927.612634,814.226536,-1258.350101,-10112.460574
927.612954,-1628.453072,-222.061783,-9499.584175
927.613274,-1406.391290,1184.329507,-9806.022374
927.613594,592.164754,2294.638420,-9882.631924
927.613914,1776.494261,3108.864956,-10801.946522
927.614234,1628.453072,2886.803174,-9806.022374
927.614554,296.082377,222.061783,-10265.679673
927.614873,962.267725,-518.144159,-10265.679673
927.615193,148.041188,-1924.535449,-9346.365076
927.615513,-444.123565,-518.144159,-10112.460574
927.615833,-2590.720797,370.102971,-9959.241474
927.616153,-4367.215058,222.061783,-9576.193725
927.616473,-2664.741391,1332.370696,-9806.022374
927.616793,-592.164754,1924.535449,-9806.022374
927.617113,1628.453072,1850.514855,-10572.117872
927.617433,1998.556043,666.185348,-10418.898773
927.617753,-74.020594,-814.226536,-10189.070123
927.618073,-1480.411884,-962.267725,-10112.460574
927.618392,-962.267725,1480.411884,-10035.851024
927.618712,-888.247130,2516.700203,-10955.165621
927.619032,-888.247130,3256.906145,-9882.631924
927.619352,-3775.050304,1554.432478,-10342.289223
927.619672,-3701.029710,-592.164754,-10035.851024
927.619992,-1332.370696,-1332.370696,-10112.460574
927.620312,0.000000,-888.247130,-10495.508323
927.620632,-592.164754,888.247130,-10112.460574
927.620952,-1776.494261,1554.432478,-9882.631924
927.621272,814.226536,3552.988522,-10418.898773
927.621592,1776.494261,1924.535449,-10035.851024
927.621911,1702.473667,814.226536,-10418.898773
927.622231,-222.061783,-1110.308913,-9806.022374
927.622551,-148.041188,-1406.391290,-9806.022374
927.622871,1184.329507,-740.205942,-9346.365076
927.623191,2442.679609,-666.185348,-9806.022374
927.623511,4515.256246,592.164754,-10801.946522
927.623831,2886.803174,888.247130,-9806.022374
927.624151,740.205942,2664.741391,-10342.289223
927.624471,-2220.617826,2442.679609,-10189.070123
927.624791,-1110.308913,1406.391290,-10035.851024
927.625110,2220.617826,-148.041188,-9882.631924
927.625430,2368.659014,-1332.370696,-9806.022374
927.625750,2220.617826,-2072.576638,-9269.755526
927.626070,2886.803174,-444.123565,-9806.022374
927.626390,4737.318029,1036.288319,-10112.460574
927.626710,4959.379811,2442.679609,-10572.117872
927.627030,2960.823768,2294.638420,-9346.365076
927.627350,0.000000,-222.061783,-9882.631924
927.627670,-518.144159,-1628.453072,-9959.241474
927.627990,1036.288319,-888.247130,-10418.898773
927.628310,2960.823768,222.061783,-10035.851024
927.628629,3552.988522,740.205942,-10648.727422
927.628949,2220.617826,-296.082377,-10955.165621
927.629269,1332.370696,370.102971,-9806.022374
927.629589,1036.288319,1480.411884,-10725.336972
927.629909,962.267725,2368.659014,-10418.898773
927.630229,1036.288319,1850.514855,-10878.556072
927.630549,-518.144159,-1480.411884,-10342.289223
927.630869,-222.061783,-2664.741391,-9193.145976
927.631189,222.061783,-2368.659014,-9959.241474
927.631509,666.185348,-1406.391290,-10648.727422
927.631829,-222.061783,74.020594,-9806.022374
927.632148,-2220.617826,740.205942,-10265.679673
927.632468,-1850.514855,1480.411884,-9499.584175
927.632788,-962.267725,-148.041188,-9959.241474
927.633108,-370.102971,-1702.473667,-10189.070123
927.633428,-592.164754,-1924.535449,-9576.193725
927.633748,-962.267725,-1332.370696,-9959.241474
927.634068,-1998.556043,0.000000,-9269.755526
927.634388,-2738.761985,740.205942,-9806.022374
927.634708,-3034.844362,-148.041188,-10342.289223
927.635028,-2146.597232,-370.102971,-9806.022374
927.635348,-1702.473667,-740.205942,-9882.631924
927.635668,-1184.329507,148.041188,-9116.536426
927.635988,0.000000,-370.102971,-10342.289223
927.636308,0.000000,-740.205942,-10495.508323
927.636628,-1258.350101,-148.041188,-10189.070123
927.636948,-1628.453072,1110.308913,-9422.974625
927.637268,-666.185348,2664.741391,-10725.336972
927.637588,1258.350101,1628.453072,-10648.727422
927.637908,4515.256246,814.226536,-10572.117872
927.638228,3478.967927,-518.144159,-11031.775171
927.638548,-518.144159,888.247130,-11184.994271
927.638868,-3330.926739,1924.535449,-10112.460574
927.639188,-1036.288319,3849.070898,-10572.117872
927.639508,3923.091493,4071.132681,-10955.165621
927.639828,5847.626942,2294.638420,-10801.946522
927.640148,2886.803174,-1110.308913,-10265.679673
927.640468,-148.041188,-2590.720797,-9116.536426
927.640788,1110.308913,-1110.308913,-9882.631924
927.641108,3701.029710,1110.308913,-9269.755526
927.641428,4589.276840,2664.741391,-10342.289223
927.641748,2368.659014,2294.638420,-10189.070123
927.642068,296.082377,1850.514855,-9806.022374
927.642388,1850.514855,2220.617826,-10342.289223
927.642708,4145.153275,3034.844362,-10112.460574
927.643028,2812.782580,2960.823768,-10189.070123
927.643348,1924.535449,444.123565,-10035.851024
927.643668,1332.370696,-1406.391290,-9269.755526
927.643988,1110.308913,-1850.514855,-8963.317327
927.644308,888.247130,296.082377,-9882.631924
927.644628,962.267725,1850.514855,-9729.412825
927.644948,1036.288319,2516.700203,-10112.460574
927.645268,1406.391290,2368.659014,-9806.022374
927.645588,1850.514855,1702.473667,-9882.631924
927.645908,2516.700203,1036.288319,-10112.460574
927.646228,2738.761985,1406.391290,-10265.679673
927.646548,2590.720797,2220.617826,-10572.117872
927.646868,1850.514855,2442.679609,-9729.412825
927.647188,222.061783,1702.473667,-9806.022374
927.647508,148.041188,814.226536,-10112.460574
927.647828,444.123565,222.061783,-9729.412825
927.648148,-888.247130,444.123565,-10495.508323
927.648468,-2294.638420,370.102971,-10725.336972
927.648788,-2368.659014,74.020594,-9422.974625
927.649108,518.144159,222.061783,-10342.289223
927.649428,2294.638420,370.102971,-9806.022374
927.649748,666.185348,1258.350101,-9499.584175
927.650068,-1406.391290,888.247130,-9806.022374
927.650388,-1184.329507,2812.782580,-9729.412825
927.650708,444.123565,2960.823768,-10189.070123
927.651028,74.020594,1554.432478,-9652.803275
927.651348,-2294.638420,-888.247130,-10572.117872
927.651668,-1258.350101,-1850.514855,-9269.755526
927.651988,1184.329507,-148.041188,-9576.193725
927.652308,3404.947333,2664.741391,-10189.070123
927.652628,4145.153275,5033.400406,-12257.527968
927.652948,1406.391290,4737.318029,-10955.165621
927.653268,370.102971,3552.988522,-10112.460574
927.653588,1776.494261,1628.453072,-9499.584175
927.653908,4071.132681,2220.617826,-10265.679673
927.654228,4589.276840,1554.432478,-10801.946522
927.654548,4071.132681,2220.617826,-10265.679673
927.654868,2516.700203,3478.967927,-10955.165621
927.655188,3552.988522,2960.823768,-10112.460574
927.655508,2886.803174,2886.803174,-10265.679673
927.655828,740.205942,1776.494261,-11491.432470
927.656148,1258.350101,1998.556043,-9959.241474
927.656468,2146.597232,2368.659014,-11108.384721
927.656788,4367.215058,1998.556043,-10725.336972
927.657108,6069.688724,1702.473667,-9729.412825
927.657428,4737.318029,3330.926739,-10725.336972
927.657748,4959.379811,4959.379811,-10572.117872
927.658068,6365.771101,5551.544565,-10189.070123
927.658388,5551.544565,5033.400406,-9729.412825
927.658708,3330.926739,2220.617826,-9039.926876
927.659028,2146.597232,444.123565,-9269.755526
927.659348,3034.844362,-1110.308913,-9576.193725
927.659668,4441.235652,-444.123565,-8886.707777
927.659988,3701.029710,814.226536,-9729.412825
927.660308,2294.638420,2590.720797,-10189.070123
927.660628,3108.864956,3256.906145,-9652.803275
927.660948,3701.029710,3775.050304,-9806.022374
927.661268,3034.844362,3923.091493,-10189.070123
927.661588,2812.782580,2812.782580,-9959.241474
927.661908,3478.967927,1480.411884,-10035.851024
927.662228,4589.276840,814.226536,-10035.851024
927.662548,3775.050304,1702.473667,-10648.727422
927.662868,1924.535449,3108.864956,-10495.508323
927.663188,2368.659014,5033.400406,-10495.508323
927.663508,2368.659014,5255.462188,-11031.775171
927.663828,1406.391290,3997.112087,-10418.898773
927.664148,148.041188,2220.617826,-9882.631924
927.664468,814.226536,814.226536,-10265.679673
927.664788,2072.576638,74.020594,-9729.412825
927.665108,1628.453072,2146.597232,-10725.336972
927.665428,1850.514855,4071.132681,-9959.241474
927.665748,1850.514855,4441.235652,-10495.508323
927.666068,1406.391290,4219.173869,-10648.727422
927.666388,1332.370696,4959.379811,-10495.508323
927.666708,1036.288319,4145.153275,-10801.946522
927.667028,-518.144159,4441.235652,-10189.070123
927.667348,-2294.638420,2442.679609,-9806.022374
927.667668,-962.267725,666.185348,-9652.803275
927.667988,148.041188,0.000000,-9882.631924
927.668308,1184.329507,0.000000,-9116.536426
927.668628,1184.329507,1628.453072,-9422.974625
927.668948,1776.494261,2960.823768,-10265.679673
927.669268,2442.679609,3775.050304,-9576.193725
927.669588,1850.514855,3552.988522,-9882.631924
927.669908,1110.308913,3997.112087,-9499.584175
927.670228,1850.514855,3182.885551,-10112.460574
927.670548,2738.761985,2294.638420,-10189.070123
927.670868,2294.638420,1480.411884,-10265.679673
927.671188,1110.308913,1554.432478,-10801.946522
927.671508,1776.494261,1702.473667,-10189.070123
927.671828,2072.576638,2590.720797,-9806.022374
927.672148,1998.556043,3108.864956,-10418.898773
927.672468,2146.597232,3627.009116,-9959.241474
927.672788,3923.091493,3034.844362,-10648.727422
927.673108,3997.112087,2368.659014,-10342.289223
927.673428,3552.988522,1998.556043,-10418.898773
927.673748,3034.844362,2368.659014,-10342.289223
927.674068,5255.462188,2812.782580,-10418.898773
927.674388,5551.544565,4367.215058,-10725.336972
927.674708,3552.988522,4811.338623,-10878.556072
927.675028,1332.370696,3997.112087,-10572.117872
927.675348,2220.617826,2368.659014,-10418.898773
927.675668,5107.421000,444.123565,-10418.898773
927.675988,5033.400406,962.267725,-10112.460574
927.676308,2812.782580,1258.350101,-9729.412825
927.676628,2664.741391,2812.782580,-9959.241474
927.676948,3997.112087,4219.173869,-10112.460574
927.677268,6069.688724,4885.359217,-9959.241474
927.677588,4219.173869,4589.276840,-10189.070123
927.677908,1480.411884,2960.823768,-9806.022374
927.678228,2146.597232,666.185348,-9499.584175
927.678548,2368.659014,296.082377,-9806.022374
927.678868,2220.617826,666.185348,-9652.803275
927.679188,1258.350101,1036.288319,-9576.193725
927.679508,148.041188,1776.494261,-9959.241474
927.679828,1480.411884,2368.659014,-9959.241474
927.680148,2590.720797,3182.885551,-10265.679673
927.680468,4367.215058,3256.906145,-10112.460574
927.680788,4071.132681,3182.885551,-10112.460574
927.681108,1776.494261,3182.885551,-9422.974625
927.681428,666.185348,1850.514855,-9729.412825
927.681748,592.164754,1258.350101,-10035.851024
927.682068,2220.617826,444.123565,-10265.679673
927.682388,2812.782580,444.123565,-9652.803275
927.682708,1628.453072,1406.391290,-9882.631924
927.683028,-444.123565,2146.597232,-10265.679673
927.683348,-1036.288319,2886.803174,-9882.631924
927.683668,-148.041188,3330.926739,-10495.508323
927.683988,2368.659014,3108.864956,-9269.755526
927.684308,3034.844362,1702.473667,-9959.241474
927.684628,1776.494261,1998.556043,-11108.384721
927.684948,148.041188,2220.617826,-10418.898773
927.685269,592.164754,3330.926739,-10265.679673
927.685589,2146.597232,3478.967927,-10342.289223
927.685909,3330.926739,1406.391290,-10418.898773
927.686229,3330.926739,740.205942,-10112.460574
927.686549,2590.720797,1628.453072,-10418.898773
927.686869,1924.535449,3330.926739,-9882.631924
927.687189,296.082377,4219.173869,-10265.679673
927.687509,0.000000,3997.112087,-9806.022374
927.687829,1702.473667,2294.638420,-9729.412825
927.688149,2738.761985,592.164754,-10189.070123
927.688469,2294.638420,444.123565,-9882.631924
927.688789,1776.494261,1776.494261,-10265.679673
927.689109,2368.659014,3552.988522,-10342.289223
927.689429,2590.720797,3849.070898,-10112.460574
927.689749,2664.741391,3478.967927,-9806.022374
927.690069,2368.659014,2146.597232,-9729.412825
927.690389,3775.050304,666.185348,-10189.070123
927.690709,4737.318029,444.123565,-10112.460574
927.691029,4515.256246,2146.597232,-9806.022374
927.691349,4959.379811,3997.112087,-10342.289223
927.691669,5329.482782,4589.276840,-9882.631924
927.691989,4737.318029,4737.318029,-10265.679673
927.692309,2368.659014,4219.173869,-10495.508323
927.692629,74.020594,3701.029710,-10035.851024
927.692949,888.247130,1480.411884,-9959.241474
927.693269,2664.741391,-296.082377,-10035.851024
927.693589,3404.947333,-740.205942,-9346.365076
927.693909,2664.741391,592.164754,-9652.803275
927.694229,2590.720797,3182.885551,-9576.193725
927.694549,3330.926739,5773.606348,-10035.851024
927.694869,5255.462188,7105.977043,-10878.556072
927.695189,5107.421000,6143.709319,-10495.508323
927.695509,3849.070898,3997.112087,-10495.508323
927.695829,1776.494261,1554.432478,-10342.289223
927.696149,74.020594,370.102971,-9729.412825
927.696469,-814.226536,370.102971,-9806.022374
927.696789,-222.061783,1036.288319,-9269.755526
927.697109,814.226536,1480.411884,-10189.070123
927.697429,1258.350101,2072.576638,-10112.460574
927.697749,1480.411884,3182.885551,-9959.241474
927.698069,2960.823768,4737.318029,-10342.289223
927.698389,4663.297435,5699.585753,-9959.241474
927.698709,5329.482782,5403.503377,-10572.117872
927.699029,3997.112087,4145.153275,-10495.508323
927.699349,1850.514855,2664.741391,-10112.460574
927.699669,814.226536,2368.659014,-9729.412825
927.699989,0.000000,2368.659014,-10648.727422
927.700309,-296.082377,2886.803174,-10265.679673
927.700629,-888.247130,2368.659014,-9806.022374
927.700949,-1480.411884,1480.411884,-9806.022374
927.701269,-1036.288319,666.185348,-9422.974625
927.701589,370.102971,740.205942,-9729.412825
927.701909,2664.741391,1924.535449,-9959.241474
927.702229,4811.338623,3330.926739,-9806.022374
927.702549,6143.709319,4219.173869,-10418.898773
927.702869,6217.729913,5255.462188,-10342.289223
927.703189,5107.421000,5477.523971,-10572.117872
927.703509,3034.844362,5255.462188,-10572.117872
927.703829,2146.597232,4071.132681,-10112.460574
927.704149,1184.329507,2368.659014,-9959.241474
927.704469,1036.288319,814.226536,-10112.460574
927.704789,148.041188,-444.123565,-9576.193725
927.705109,-518.144159,0.000000,-9652.803275
927.705429,222.061783,740.205942,-9806.022374
927.705749,1850.514855,2442.679609,-9806.022374
927.706069,3701.029710,3552.988522,-10189.070123
927.706389,5699.585753,3034.844362,-10189.070123
927.706709,6883.915261,2146.597232,-9269.755526
927.707029,5921.647536,1776.494261,-9806.022374
927.707349,4071.132681,2146.597232,-10189.070123
927.707669,1480.411884,2442.679609,-10342.289223
927.707989,-222.061783,1850.514855,-10112.460574
927.708309,-1036.288319,1110.308913,-9039.926876
927.708629,-1332.370696,-814.226536,-10035.851024
927.708949,-666.185348,-1036.288319,-10112.460574
927.709269,222.061783,-444.123565,-9729.412825
927.709589,1480.411884,1480.411884,-9806.022374
927.709909,2590.720797,2516.700203,-10495.508323
927.710229,3775.050304,3404.947333,-10189.070123
927.710549,3923.091493,3997.112087,-10418.898773
927.710869,3552.988522,4071.132681,-10648.727422
927.711189,3108.864956,4293.194464,-10878.556072
927.711509,2368.659014,2738.761985,-10648.727422
927.711829,1406.391290,1554.432478,-10418.898773
927.712149,148.041188,592.164754,-10112.460574
927.712469,-370.102971,0.000000,-9882.631924
927.712789,370.102971,814.226536,-10035.851024
927.713109,1332.370696,1776.494261,-9806.022374
927.713429,2368.659014,2886.803174,-10189.070123
927.713749,3552.988522,3701.029710,-10112.460574
927.714069,4515.256246,3997.112087,-9959.241474
927.714389,6069.688724,3997.112087,-10342.289223
927.714709,6735.874072,4515.256246,-10189.070123
927.715029,6143.709319,4737.318029,-10725.336972
927.715349,4811.338623,5255.462188,-10725.336972
927.715669,2368.659014,5107.421000,-10112.460574
927.715989,296.082377,3849.070898,-9959.241474
927.716309,-888.247130,1998.556043,-9806.022374
927.716629,-814.226536,444.123565,-9499.584175
927.716949,518.144159,-222.061783,-9729.412825
927.717269,2072.576638,148.041188,-9193.145976
927.717589,3627.009116,2368.659014,-9806.022374
927.717909,4959.379811,4663.297435,-10035.851024
927.718229,5403.503377,6957.935855,-10035.851024
927.718549,6217.729913,7328.038826,-10801.946522
927.718869,5551.544565,6735.874072,-10955.165621
927.719189,4737.318029,5107.421000,-10342.289223
927.719509,3775.050304,3478.967927,-10955.165621
927.719829,2516.700203,2368.659014,-10189.070123
927.720149,888.247130,2294.638420,-9882.631924
927.720469,-1406.391290,2886.803174,-9806.022374
927.720789,-2146.597232,3330.926739,-9729.412825
927.721109,-888.247130,3108.864956,-11184.994271
927.721429,1332.370696,2442.679609,-10035.851024
927.721749,2516.700203,2220.617826,-10189.070123
927.722069,2590.720797,2590.720797,-10112.460574
927.722389,3330.926739,3256.906145,-9806.022374
927.722709,3923.091493,4811.338623,-10035.851024
927.723029,5477.523971,5403.503377,-10112.460574
927.723349,5551.544565,5403.503377,-10495.508323
927.723669,2886.803174,4367.215058,-10265.679673
927.723989,-296.082377,2590.720797,-9959.241474
927.724309,-2368.659014,2072.576638,-9806.022374
927.724629,-1924.535449,666.185348,-9652.803275
927.724949,-1036.288319,0.000000,-9422.974625
927.725269,-666.185348,-296.082377,-9269.755526
927.725589,370.102971,74.020594,-9193.145976
927.725909,3108.864956,1480.411884,-9576.193725
927.726229,5773.606348,3775.050304,-10035.851024
927.726549,5995.668130,5773.606348,-10342.289223
927.726869,5033.400406,6217.729913,-10189.070123
927.727189,3775.050304,4885.359217,-9959.241474
927.727509,2664.741391,2960.823768,-10035.851024
927.727829,1332.370696,666.185348,-9422.974625
927.728149,592.164754,-148.041188,-9652.803275
927.728469,888.247130,-1036.288319,-9806.022374
927.728789,888.247130,0.000000,-9806.022374
927.729109,148.041188,1924.535449,-9882.631924
927.729429,518.144159,3701.029710,-10495.508323
927.729749,2960.823768,3849.070898,-10418.898773
927.730069,5181.441594,3330.926739,-10418.898773
927.730389,6883.915261,1924.535449,-10342.289223
927.730709,7550.100608,1406.391290,-10648.727422
927.731029,6735.874072,2220.617826,-10801.946522
927.731349,3701.029710,3627.009116,-10725.336972
927.731669,814.226536,4737.318029,-10878.556072
927.731989,0.000000,3256.906145,-10418.898773
927.732309,1036.288319,962.267725,-10112.460574
927.732629,-222.061783,-1702.473667,-10265.679673
927.732949,74.020594,-1998.556043,-10035.851024
927.733269,296.082377,-518.144159,-9729.412825
927.733589,1850.514855,888.247130,-9806.022374
927.733909,3108.864956,2886.803174,-9882.631924
927.734229,5329.482782,2442.679609,-9806.022374
927.734549,6217.729913,2590.720797,-10495.508323
927.734869,6513.812290,2664.741391,-10112.460574
927.735189,4737.318029,3627.009116,-10265.679673
927.735509,3108.864956,3330.926739,-10189.070123
927.735829,2072.576638,1776.494261,-9806.022374
927.736149,296.082377,518.144159,-9652.803275
927.736470,-2294.638420,-444.123565,-10112.460574
927.736790,-4515.256246,0.000000,-9269.755526
927.737110,-4367.215058,370.102971,-9806.022374
927.737430,-296.082377,518.144159,-9882.631924
927.737750,3775.050304,814.226536,-9499.584175
927.738070,4885.359217,1554.432478,-10495.508323
927.738390,4293.194464,2442.679609,-9882.631924
927.738710,4367.215058,4293.194464,-10189.070123
927.739030,5107.421000,5921.647536,-10878.556072
927.739350,5995.668130,5995.668130,-10878.556072
927.739670,4293.194464,4737.318029,-10801.946522
927.739990,666.185348,2516.700203,-10189.070123
927.740310,-1998.556043,740.205942,-9346.365076
927.740630,-2368.659014,592.164754,-10189.070123
927.740950,-1776.494261,592.164754,-9959.241474
927.741270,-1554.432478,1702.473667,-9576.193725
927.741590,0.000000,2072.576638,-10342.289223
927.741910,3849.070898,2072.576638,-9806.022374
927.742230,6661.853478,3552.988522,-10572.117872
927.742551,7179.997637,5329.482782,-10572.117872
927.742871,5477.523971,7105.977043,-10035.851024
927.743191,5329.482782,7105.977043,-10495.508323
927.743511,5995.668130,5773.606348,-10801.946522
927.743831,5033.400406,3627.009116,-10035.851024
927.744151,2072.576638,2220.617826,-10189.070123
927.744471,222.061783,1036.288319,-9806.022374
927.744791,148.041188,1480.411884,-9576.193725
927.745111,-962.267725,1776.494261,-9959.241474
927.745431,-2368.659014,2738.761985,-8963.317327
927.745751,0.000000,2442.679609,-9346.365076
927.746071,3552.988522,2368.659014,-9729.412825
927.746391,5847.626942,2590.720797,-10112.460574
927.746711,5329.482782,4145.153275,-10035.851024
927.747031,5847.626942,6439.791695,-10189.070123
927.747351,7105.977043,7105.977043,-10418.898773
927.747671,5995.668130,6217.729913,-10878.556072
927.747991,3108.864956,5255.462188,-9806.022374
927.748312,296.082377,3034.844362,-9959.241474
927.748632,-1480.411884,1480.411884,-9959.241474
927.748952,-2368.659014,592.164754,-9499.584175
927.749272,-2368.659014,296.082377,-9729.412825
927.749592,0.000000,222.061783,-9806.022374
927.749912,3108.864956,518.144159,-9959.241474
927.750232,4219.173869,3034.844362,-10878.556072
927.750552,3923.091493,5847.626942,-10725.336972
927.750872,3330.926739,7624.121203,-11108.384721
927.751192,3849.070898,8142.265362,-10495.508323
927.751512,4811.338623,7105.977043,-10725.336972
927.751832,4441.235652,4515.256246,-10495.508323
927.752152,2072.576638,1406.391290,-9806.022374
927.752472,74.020594,-1702.473667,-9193.145976
927.752792,-1036.288319,-2220.617826,-9652.803275
927.753112,-1480.411884,-962.267725,-9729.412825
927.753432,-2146.597232,1554.432478,-8810.098227
927.753752,0.000000,3330.926739,-8656.879127
927.754072,1924.535449,4441.235652,-10265.679673
927.754393,3330.926739,4071.132681,-9576.193725
927.754713,3997.112087,3627.009116,-10265.679673
927.755033,5255.462188,2590.720797,-10189.070123
927.755353,6069.688724,2812.782580,-8886.707777
927.755673,4663.297435,2664.741391,-10035.851024
927.755993,3775.050304,2960.823768,-9882.631924
927.756313,1924.535449,3478.967927,-9959.241474
927.756633,962.267725,3404.947333,-10189.070123
927.756953,1332.370696,2442.679609,-10265.679673
927.757273,740.205942,296.082377,-10035.851024
927.757593,888.247130,-1850.514855,-9346.365076
927.757913,518.144159,-2664.741391,-9499.584175
927.758233,1924.535449,-1628.453072,-9576.193725
927.758553,2812.782580,2442.679609,-10035.851024
927.758873,4441.235652,5403.503377,-11491.432470
927.759193,6217.729913,7031.956449,-10495.508323
927.759513,5181.441594,6957.935855,-10955.165621
927.759833,4663.297435,4959.379811,-11184.994271
927.760153,4219.173869,1258.350101,-10801.946522
927.760474,2294.638420,814.226536,-10112.460574
927.760794,1184.329507,0.000000,-10648.727422
927.761114,1554.432478,0.000000,-10572.117872
927.761434,74.020594,-370.102971,-10112.460574
927.761754,-1480.411884,-666.185348,-10265.679673
927.762074,-888.247130,74.020594,-9346.365076
927.762394,814.226536,2368.659014,-10572.117872
927.762714,4663.297435,2664.741391,-11261.603821
927.763034,5847.626942,2294.638420,-9959.241474
927.763354,2738.761985,1554.432478,-11108.384721
927.763674,1628.453072,148.041188,-9806.022374
927.763994,3182.885551,-1184.329507,-10035.851024
927.764314,2442.679609,740.205942,-10572.117872
927.764634,2738.761985,2368.659014,-9652.803275
927.764954,2516.700203,2368.659014,-10035.851024
927.765274,888.247130,2072.576638,-10495.508323
927.765594,-1184.329507,-1406.391290,-8733.488677
927.765914,-1110.308913,-2146.597232,-9499.584175
927.766234,2812.782580,-2368.659014,-9806.022374
927.766555,4737.318029,-592.164754,-9422.974625
927.766875,2220.617826,1998.556043,-10418.898773
927.767195,0.000000,3701.029710,-9652.803275
927.767515,1110.308913,4293.194464,-9806.022374
927.767835,4441.235652,3775.050304,-10648.727422
927.768155,2886.803174,2368.659014,-9806.022374
927.768475,-1036.288319,0.000000,-9882.631924
927.768795,-2960.823768,-1184.329507,-9882.631924
927.769115,-3108.864956,-1924.535449,-9269.755526
927.769435,-3552.988522,-1406.391290,-9806.022374
927.769755,-3923.091493,-592.164754,-9729.412825
927.770075,-3775.050304,0.000000,-9806.022374
927.770395,1480.411884,740.205942,-10189.070123
927.770715,3997.112087,2590.720797,-10342.289223
927.771035,2516.700203,4589.276840,-10572.117872
927.771355,1258.350101,4885.359217,-10955.165621
927.771675,2072.576638,3701.029710,-10495.508323
927.771995,3404.947333,2738.761985,-11338.213370
927.772315,1110.308913,2368.659014,-10189.070123
927.772636,-1998.556043,222.061783,-10418.898773
927.772956,-3923.091493,-740.205942,-9806.022374
927.773276,-4515.256246,-1110.308913,-9652.803275
927.773596,-2072.576638,370.102971,-10265.679673
927.773916,148.041188,1850.514855,-10955.165621
927.774236,-1036.288319,1776.494261,-10495.508323
927.774556,-1850.514855,1628.453072,-10189.070123
927.774876,0.000000,1480.411884,-9882.631924
927.775196,3923.091493,2368.659014,-9959.241474
927.775516,7772.162391,2146.597232,-10189.070123
927.775836,5181.441594,1554.432478,-9729.412825
927.776156,1924.535449,0.000000,-9959.241474
927.776476,444.123565,-962.267725,-9576.193725
927.776796,1924.535449,-2072.576638,-9882.631924
927.777116,148.041188,-592.164754,-9652.803275
927.777436,-3478.967927,592.164754,-9806.022374
927.777756,-4737.318029,666.185348,-9269.755526
927.778076,-2220.617826,1332.370696,-8733.488677
927.778397,1480.411884,0.000000,-10112.460574
927.778717,4959.379811,-1184.329507,-10035.851024
927.779037,5551.544565,-666.185348,-10342.289223
927.779357,5625.565159,1406.391290,-10342.289223
927.779677,5181.441594,3404.947333,-10189.070123
927.779997,3997.112087,3775.050304,-10878.556072
927.780317,2664.741391,1998.556043,-10572.117872
927.780637,740.205942,296.082377,-10265.679673
927.780957,-1850.514855,-1258.350101,-10189.070123
927.781277,-1036.288319,-1480.411884,-9806.022374
927.781597,-2442.679609,-1184.329507,-10035.851024
927.781917,-592.164754,-666.185348,-10418.898773
927.782237,1702.473667,-592.164754,-10495.508323
927.782557,2886.803174,-222.061783,-10265.679673
927.782877,1258.350101,1110.308913,-10801.946522
927.783197,3034.844362,1776.494261,-10112.460574
927.783517,4145.153275,2886.803174,-10725.336972
927.783837,2886.803174,2886.803174,-10725.336972
927.784157,1184.329507,1036.288319,-9806.022374
927.784478,-1924.535449,-1184.329507,-9959.241474
927.784798,-3330.926739,-2368.659014,-9806.022374
927.785118,-3849.070898,-2664.741391,-8733.488677
927.785438,-3997.112087,-1998.556043,-9422.974625
927.785758,-2738.761985,-1480.411884,-9806.022374
927.786078,-2368.659014,-962.267725,-9959.241474
927.786398,-592.164754,666.185348,-9806.022374
927.786718,740.205942,1998.556043,-10878.556072
927.787038,1628.453072,1628.453072,-9882.631924
927.787358,1702.473667,1776.494261,-10418.898773
927.787678,1480.411884,1406.391290,-10265.679673
927.787998,1554.432478,1110.308913,-10342.289223
927.788318,1332.370696,-592.164754,-11108.384721
927.788638,-444.123565,-1406.391290,-10112.460574
927.788958,-2516.700203,-740.205942,-10265.679673
927.789278,-4219.173869,1110.308913,-10878.556072
927.789598,-2738.761985,1924.535449,-9806.022374
927.789918,-1702.473667,2960.823768,-10418.898773
927.790238,370.102971,370.102971,-10801.946522
927.790559,2442.679609,-1036.288319,-10342.289223
927.790879,2146.597232,-2220.617826,-10189.070123
927.791199,2664.741391,-1924.535449,-10112.460574
927.791519,1554.432478,222.061783,-9959.241474
927.791839,1184.329507,2590.720797,-10801.946522
927.792159,296.082377,4145.153275,-10418.898773
927.792479,-814.226536,3256.906145,-10265.679673
927.792799,-814.226536,74.020594,-10265.679673
927.793119,814.226536,-2368.659014,-9422.974625
927.793439,2442.679609,-2738.761985,-10495.508323
927.793759,2072.576638,-1776.494261,-9039.926876
927.794079,666.185348,-370.102971,-9116.536426
927.794399,296.082377,0.000000,-9729.412825
927.794719,2590.720797,0.000000,-9193.145976
927.795039,4293.194464,148.041188,-10112.460574
927.795359,3627.009116,1924.535449,-10265.679673
927.795679,1258.350101,1850.514855,-9652.803275
927.795999,222.061783,962.267725,-9959.241474
927.796319,3997.112087,-888.247130,-10265.679673
927.796640,4515.256246,-2368.659014,-10801.946522
927.796960,222.061783,-1628.453072,-10035.851024
927.797280,-2220.617826,-370.102971,-9576.193725
927.797600,-2072.576638,1480.411884,-10342.289223
927.797920,370.102971,2516.700203,-10189.070123
927.798240,1628.453072,2368.659014,-10725.336972
927.798560,2220.617826,0.000000,-11261.603821
927.798880,0.000000,-1110.308913,-9882.631924
927.799200,-814.226536,-666.185348,-10648.727422
927.799520,-296.082377,888.247130,-10035.851024
927.799840,888.247130,1406.391290,-10572.117872
927.800160,592.164754,1036.288319,-10342.289223
927.800480,222.061783,0.000000,-9806.022374
927.800800,1332.370696,-962.267725,-9806.022374
927.801120,1184.329507,-370.102971,-10112.460574
927.801440,740.205942,518.144159,-9882.631924
927.801760,-370.102971,1110.308913,-10035.851024
927.802080,-518.144159,1110.308913,-10265.679673
927.802400,-222.061783,444.123565,-10342.289223
927.802721,-222.061783,592.164754,-10265.679673
927.803041,-740.205942,592.164754,-9806.022374
927.803361,-1924.535449,1036.288319,-9499.584175
927.803681,-1924.535449,-296.082377,-8427.050478
927.804001,-148.041188,-444.123565,-8963.317327
927.804321,814.226536,-1332.370696,-9729.412825
927.804641,962.267725,-1110.308913,-9729.412825
927.804961,296.082377,0.000000,-9729.412825
927.805281,0.000000,2220.617826,-9882.631924
927.805601,0.000000,2368.659014,-9959.241474
927.805921,-1628.453072,3256.906145,-10189.070123
927.806241,-2812.782580,2960.823768,-10418.898773
927.806561,-2664.741391,814.226536,-9806.022374
927.806881,-814.226536,-1924.535449,-9806.022374
927.807201,1110.308913,-2738.761985,-9806.022374
927.807521,1776.494261,-2886.803174,-9729.412825
927.807841,1258.350101,-1554.432478,-9729.412825
927.808161,1480.411884,74.020594,-9806.022374
927.808481,148.041188,2072.576638,-10265.679673
927.808802,-296.082377,3552.988522,-10801.946522
927.809122,1554.432478,3034.844362,-10265.679673
927.809442,6143.709319,1258.350101,-10342.289223
927.809762,5403.503377,-740.205942,-10725.336972
927.810082,1258.350101,-1924.535449,-10572.117872
927.810402,-1110.308913,-1480.411884,-9806.022374
927.810722,-814.226536,962.267725,-9959.241474
927.811042,1480.411884,2738.761985,-10495.508323
927.811362,2294.638420,3701.029710,-10801.946522
927.811682,444.123565,3997.112087,-10955.165621
927.812002,1776.494261,2368.659014,-10418.898773
927.812322,4589.276840,740.205942,-9652.803275
927.812642,6069.688724,0.000000,-10342.289223
927.812962,4367.215058,-814.226536,-10189.070123
927.813282,1332.370696,-1258.350101,-9959.241474
927.813602,1406.391290,-1406.391290,-9499.584175
927.813922,3256.906145,444.123565,-10035.851024
927.814242,3478.967927,1776.494261,-10955.165621
927.814563,-592.164754,1776.494261,-10418.898773
927.814883,-3849.070898,592.164754,-10112.460574
927.815203,-2368.659014,-1554.432478,-9959.241474
927.815523,666.185348,-2960.823768,-9729.412825
927.815843,2220.617826,-3627.009116,-9806.022374
927.816163,666.185348,-3627.009116,-9422.974625
927.816483,-666.185348,-2072.576638,-9576.193725
927.816803,666.185348,148.041188,-9576.193725
927.817123,1110.308913,1258.350101,-9806.022374
927.817443,1036.288319,1776.494261,-10112.460574
927.817763,-370.102971,1850.514855,-10265.679673
927.818083,-888.247130,222.061783,-9959.241474
927.818403,-1628.453072,-296.082377,-9806.022374
927.818723,-1776.494261,-2146.597232,-10418.898773
927.819043,-1924.535449,-2738.761985,-10189.070123
927.819363,-3034.844362,-3256.906145,-9576.193725
927.819683,-4367.215058,-2072.576638,-9576.193725
927.820003,-2072.576638,592.164754,-10112.460574
927.820323,-222.061783,2812.782580,-11108.384721
927.820644,1332.370696,2886.803174,-11491.432470
927.820964,-518.144159,2146.597232,-10418.898773
927.821284,-1036.288319,888.247130,-10725.336972
927.821604,962.267725,222.061783,-10189.070123
927.821924,1776.494261,-1110.308913,-11031.775171
927.822244,296.082377,-1480.411884,-10648.727422
927.822564,-3330.926739,-1702.473667,-10265.679673
927.822884,-4071.132681,0.000000,-9882.631924
927.823204,-1480.411884,1554.432478,-10189.070123
927.823524,1184.329507,2146.597232,-11338.213370
927.823844,1110.308913,2368.659014,-10342.289223
927.824164,-740.205942,-1036.288319,-9806.022374
927.824484,-2368.659014,-3478.967927,-9499.584175
927.824804,148.041188,-4219.173869,-9193.145976
927.825124,2738.761985,-4071.132681,-10035.851024
927.825444,4515.256246,-1036.288319,-9269.755526
927.825764,4145.153275,3552.988522,-10265.679673
927.826084,2220.617826,4515.256246,-9882.631924
927.826404,2886.803174,3923.091493,-9729.412825
927.826725,2146.597232,1258.350101,-10342.289223
927.827045,2516.700203,-2738.761985,-9193.145976
927.827365,1258.350101,-3627.009116,-9039.926876
927.827685,1184.329507,-3627.009116,-9652.803275
927.828005,1924.535449,-1406.391290,-9882.631924
927.828325,740.205942,1702.473667,-9959.241474
927.828645,592.164754,3330.926739,-10112.460574
927.828965,3034.844362,3330.926739,-9959.241474
927.829285,4737.318029,2294.638420,-10725.336972
927.829605,3627.009116,1924.535449,-10495.508323
927.829925,2368.659014,814.226536,-10418.898773
927.830245,888.247130,444.123565,-10265.679673
927.830565,-888.247130,-148.041188,-10112.460574
927.830885,-370.102971,-888.247130,-9499.584175
927.831205,2516.700203,-444.123565,-10342.289223
927.831525,3997.112087,74.020594,-11108.384721
927.831845,1702.473667,1480.411884,-10572.117872
927.832165,-2294.638420,1924.535449,-10725.336972
927.832485,-3701.029710,3034.844362,-10572.117872
927.832805,-888.247130,3330.926739,-10495.508323
927.833125,0.000000,3478.967927,-10878.556072
927.833445,1332.370696,3552.988522,-10418.898773
927.833765,1702.473667,2590.720797,-12257.527968
927.834085,-740.205942,296.082377,-10342.289223
927.834405,-2590.720797,-1332.370696,-9729.412825
927.834725,-3849.070898,-1480.411884,-9039.926876
927.835045,-3330.926739,-370.102971,-9039.926876
927.835364,-2368.659014,1110.308913,-9576.193725
927.835684,-148.041188,1998.556043,-9652.803275
927.836004,740.205942,1406.391290,-9116.536426
927.836324,3404.947333,0.000000,-10265.679673
927.836644,3404.947333,-1554.432478,-9806.022374
927.836964,740.205942,-1332.370696,-9576.193725
927.837284,-814.226536,1406.391290,-9346.365076
927.837604,-1258.350101,3330.926739,-9422.974625
927.837924,0.000000,3701.029710,-10418.898773
927.838244,148.041188,1480.411884,-9729.412825
927.838564,-1332.370696,-1554.432478,-9499.584175
927.838884,-1554.432478,-2590.720797,-9959.241474
927.839203,-666.185348,-2442.679609,-9269.755526
927.839523,814.226536,-666.185348,-10342.289223
927.839843,2368.659014,1110.308913,-10801.946522
927.840163,1036.288319,962.267725,-10648.727422
927.840483,-1998.556043,222.061783,-9806.022374
927.840803,-3182.885551,-814.226536,-9576.193725
927.841123,-592.164754,-814.226536,-10572.117872
927.841443,2294.638420,0.000000,-10725.336972
927.841763,3478.967927,296.082377,-10418.898773
927.842083,3923.091493,1258.350101,-10801.946522
927.842403,740.205942,74.020594,-10572.117872
927.842723,-296.082377,-148.041188,-10572.117872
927.843043,74.020594,-814.226536,-10418.898773
927.843362,1924.535449,-1702.473667,-10035.851024
927.843682,1628.453072,-518.144159,-9652.803275
927.844002,814.226536,-296.082377,-10189.070123
927.844322,814.226536,296.082377,-10572.117872
927.844642,1406.391290,1628.453072,-10495.508323
927.844962,1924.535449,666.185348,-10725.336972
927.845282,3256.906145,-148.041188,-9346.365076
927.845602,3478.967927,-1406.391290,-10035.851024
927.845922,3108.864956,-2146.597232,-9806.022374
927.846242,1924.535449,-2146.597232,-9422.974625
927.846562,1258.350101,-2516.700203,-10495.508323
927.846882,222.061783,0.000000,-9806.022374
927.847201,592.164754,1184.329507,-10418.898773
927.847521,888.247130,2664.741391,-10725.336972
927.847841,148.041188,3552.988522,-9039.926876
927.848161,74.020594,1924.535449,-10572.117872
927.848481,74.020594,-444.123565,-9806.022374
927.848801,-222.061783,-4219.173869,-9499.584175
927.849121,-1258.350101,-5921.647536,-9652.803275
927.849441,-1480.411884,-5329.482782,-9039.926876
927.849761,-666.185348,-1036.288319,-9806.022374
927.850081,1110.308913,2738.761985,-10418.898773
927.850401,1850.514855,3256.906145,-10495.508323
927.850721,1258.350101,3108.864956,-11108.384721
927.851040,-1702.473667,444.123565,-9806.022374
927.851360,-1332.370696,-1850.514855,-9576.193725
927.851680,1036.288319,-1776.494261,-10189.070123
927.852000,1628.453072,-222.061783,-10955.165621
927.852320,1554.432478,1702.473667,-10955.165621
927.852640,-2072.576638,1110.308913,-10342.289223
927.852960,-3552.988522,1998.556043,-9806.022374
927.853280,-3923.091493,1184.329507,-10418.898773
927.853600,-2146.597232,-222.061783,-11184.994271
927.853920,-740.205942,-1850.514855,-9806.022374
927.854240,0.000000,-1258.350101,-10265.679673
927.854560,-1184.329507,444.123565,-9882.631924
927.854879,-1110.308913,1850.514855,-10189.070123
927.855199,740.205942,3034.844362,-10955.165621
927.855519,3034.844362,3923.091493,-10495.508323
927.855839,4737.318029,2738.761985,-10648.727422
927.856159,4145.153275,518.144159,-10648.727422
927.856479,2368.659014,-1406.391290,-9806.022374
927.856799,-1480.411884,370.102971,-9499.584175
927.857119,-3627.009116,74.020594,-9576.193725
927.857439,-1776.494261,370.102971,-9422.974625
927.857759,-592.164754,-666.185348,-9499.584175
927.858079,2146.597232,-1924.535449,-9193.145976
927.858399,3627.009116,-148.041188,-9652.803275
927.858718,4737.318029,1628.453072,-10572.117872
927.859038,3997.112087,3330.926739,-10112.460574
927.859358,3404.947333,2812.782580,-9959.241474
927.859678,1628.453072,3404.947333,-9959.241474
927.859998,2812.782580,1850.514855,-10418.898773
927.860318,1924.535449,-888.247130,-9576.193725
927.860638,1998.556043,-1406.391290,-9959.241474
927.860958,2516.700203,-962.267725,-10112.460574
927.861278,2664.741391,-222.061783,-9806.022374
927.861598,1480.411884,2146.597232,-10801.946522
927.861918,0.000000,1702.473667,-10189.070123
927.862238,-888.247130,2146.597232,-9422.974625
927.862557,666.185348,1406.391290,-10342.289223
927.862877,814.226536,74.020594,-9959.241474
927.863197,1332.370696,-222.061783,-10648.727422
927.863517,2368.659014,148.041188,-10342.289223
927.863837,2590.720797,962.267725,-10648.727422
927.864157,0.000000,2368.659014,-10955.165621
927.864477,-3330.926739,2812.782580,-10495.508323
927.864797,-2960.823768,1184.329507,-10112.460574
927.865117,-962.267725,-222.061783,-9729.412825
927.865437,-592.164754,-2146.597232,-10035.851024
927.865757,888.247130,-2590.720797,-9806.022374
927.866077,-4737.318029,-3182.885551,-8656.879127
927.866397,-2812.782580,-888.247130,-11414.822920
927.866716,1702.473667,666.185348,-9806.022374
927.867036,3849.070898,2146.597232,-10572.117872
927.867356,-666.185348,3775.050304,-9959.241474
927.867676,-1406.391290,3552.988522,-10648.727422
927.867996,-2072.576638,1036.288319,-11108.384721
927.868316,-1850.514855,-518.144159,-10112.460574
927.868636,-2368.659014,-1480.411884,-9882.631924
927.868956,-3256.906145,-2072.576638,-9806.022374
927.869276,-2146.597232,-2294.638420,-9806.022374
927.869596,888.247130,370.102971,-10878.556072
