#time,accel_x,accel_y,accel_z
841.496647,222.061783,296.082377,-10189.070123
841.496967,222.061783,296.082377,-10495.508323
841.497287,296.082377,444.123565,-10112.460574
841.497607,296.082377,222.061783,-9959.241474
841.497927,444.123565,518.144159,-10112.460574
841.498247,592.164754,518.144159,-9882.631924
841.498567,740.205942,148.041188,-9959.241474
841.498887,814.226536,222.061783,-9882.631924
841.499207,518.144159,518.144159,-9806.022374
841.499527,296.082377,370.102971,-9959.241474
841.499847,0.000000,74.020594,-9959.241474
841.500167,74.020594,222.061783,-10035.851024
841.500487,148.041188,148.041188,-10035.851024
841.500807,296.082377,0.000000,-10035.851024
841.501127,666.185348,74.020594,-9959.241474
841.501447,518.144159,370.102971,-10342.289223
841.501767,740.205942,666.185348,-10725.336972
841.502087,888.247130,222.061783,-10189.070123
841.502407,666.185348,296.082377,-10035.851024
841.502727,444.123565,148.041188,-9959.241474
841.503047,148.041188,0.000000,-9422.974625
841.503367,0.000000,74.020594,-9959.241474
841.503687,0.000000,370.102971,-10342.289223
841.504007,148.041188,888.247130,-10342.289223
841.504327,444.123565,740.205942,-10035.851024
841.504647,296.082377,444.123565,-10189.070123
841.504967,444.123565,74.020594,-10189.070123
841.505287,518.144159,74.020594,-10265.679673
841.505607,740.205942,0.000000,-10112.460574
841.505927,370.102971,-148.041188,-10342.289223
841.506247,-148.041188,-222.061783,-10112.460574
841.506567,0.000000,-518.144159,-10035.851024
841.506887,74.020594,-444.123565,-9806.022374
841.507207,-518.144159,-518.144159,-10112.460574
841.507528,-888.247130,-296.082377,-10035.851024
841.507848,-666.185348,-518.144159,-10035.851024
841.508168,-296.082377,-370.102971,-9882.631924
841.508488,-888.247130,-296.082377,-10189.070123
841.508808,-888.247130,-592.164754,-11568.042020
841.509128,-444.123565,-1036.288319,-10035.851024
841.509448,-222.061783,-1110.308913,-9959.241474
841.509768,-962.267725,-1184.329507,-9806.022374
841.510088,-1850.514855,-1702.473667,-10112.460574
841.510408,-1702.473667,-1258.350101,-9959.241474
841.510728,-1036.288319,-1406.391290,-9882.631924
841.511048,-1184.329507,-888.247130,-9882.631924
841.511368,-1850.514855,-1628.453072,-10112.460574
841.511688,-2442.679609,-1332.370696,-9806.022374
841.512008,-1036.288319,-1924.535449,-9806.022374
841.512328,-444.123565,-1184.329507,-9882.631924
841.512648,-1332.370696,-1628.453072,-10112.460574
841.512968,-2516.700203,-2590.720797,-10035.851024
841.513288,-3627.009116,-3034.844362,-9499.584175
841.513608,-2368.659014,-3552.988522,-9652.803275
841.513928,-1924.535449,-3775.050304,-9576.193725
841.514248,-2368.659014,-3701.029710,-9806.022374
841.514568,-2294.638420,-3330.926739,-9806.022374
841.514888,-1480.411884,-2886.803174,-9652.803275
841.515208,222.061783,-1776.494261,-10189.070123
841.515528,518.144159,-1554.432478,-10035.851024
841.515848,-740.205942,-1332.370696,-10725.336972
841.516168,-1924.535449,-1628.453072,-10572.117872
841.516488,-2738.761985,-2294.638420,-10189.070123
841.516808,-3552.988522,-3256.906145,-10265.679673
841.517128,-5033.400406,-4071.132681,-9806.022374
841.517448,-4959.379811,-4737.318029,-9729.412825
841.517768,-3256.906145,-5181.441594,-9806.022374
841.518088,-740.205942,-4737.318029,-9729.412825
841.518408,666.185348,-3330.926739,-10112.460574
841.518728,518.144159,-1702.473667,-10265.679673
841.519048,1184.329507,296.082377,-10572.117872
841.519368,1776.494261,962.267725,-10648.727422
841.519688,1776.494261,370.102971,-10342.289223
841.520008,444.123565,-740.205942,-10265.679673
841.520328,-1406.391290,-1998.556043,-10265.679673
841.520648,-2516.700203,-2368.659014,-10112.460574
841.520968,-4367.215058,-3182.885551,-9806.022374
841.521288,-5255.462188,-4441.235652,-9499.584175
841.521608,-4515.256246,-5403.503377,-9039.926876
841.521929,-1924.535449,-5995.668130,-9193.145976
841.522249,518.144159,-5477.523971,-9806.022374
841.522569,1776.494261,-3182.885551,-9959.241474
841.522889,2368.659014,-444.123565,-9806.022374
841.523209,4071.132681,2220.617826,-9806.022374
841.523529,4737.318029,3849.070898,-11031.775171
841.523849,2442.679609,2886.803174,-11108.384721
841.524169,-1258.350101,222.061783,-10495.508323
841.524489,-4737.318029,-2738.761985,-10035.851024
841.524809,-5551.544565,-6439.791695,-9576.193725
841.525129,-4293.194464,-7698.141797,-9652.803275
841.525449,-3701.029710,-7179.997637,-9422.974625
841.525769,-3034.844362,-4737.318029,-9346.365076
841.526089,-1110.308913,-1110.308913,-9882.631924
841.526409,888.247130,2516.700203,-10495.508323
841.526729,1480.411884,4663.297435,-11108.384721
841.527049,1258.350101,4663.297435,-11261.603821
841.527369,1036.288319,2590.720797,-10495.508323
841.527689,1628.453072,-518.144159,-10648.727422
841.528009,-666.185348,-1850.514855,-10725.336972
841.528329,-3552.988522,-2294.638420,-10035.851024
841.528649,-4515.256246,-2442.679609,-9806.022374
841.528969,-5847.626942,-1628.453072,-9806.022374
841.529289,-6957.935855,-2738.761985,-9729.412825
841.529609,-7402.059420,-4367.215058,-9116.536426
841.529929,-4737.318029,-5181.441594,-9039.926876
841.530249,-1184.329507,-3404.947333,-9499.584175
841.530569,2590.720797,-1184.329507,-10112.460574
841.530889,2960.823768,1628.453072,-10112.460574
841.531209,962.267725,3849.070898,-10572.117872
841.531529,888.247130,4441.235652,-9729.412825
841.531849,888.247130,2886.803174,-10418.898773
841.532169,888.247130,0.000000,-10342.289223
841.532489,-2146.597232,-3182.885551,-10112.460574
841.532809,-5181.441594,-4885.359217,-9729.412825
841.533129,-8142.265362,-4811.338623,-9193.145976
841.533449,-8068.244768,-4737.318029,-9039.926876
841.533769,-6439.791695,-4515.256246,-8963.317327
841.534089,-1850.514855,-4367.215058,-9269.755526
841.534409,2368.659014,-2886.803174,-10725.336972
841.534729,3330.926739,-2072.576638,-10648.727422
841.535049,3034.844362,296.082377,-10112.460574
841.535369,3404.947333,2516.700203,-10418.898773
841.535689,4737.318029,4589.276840,-11491.432470
841.536009,3997.112087,4145.153275,-10955.165621
841.536330,-1036.288319,370.102971,-11184.994271
841.536650,-5551.544565,-2738.761985,-10189.070123
841.536970,-8364.327145,-5921.647536,-9959.241474
841.537290,-7772.162391,-7994.224174,-9422.974625
841.537610,-5033.400406,-8734.430116,-9193.145976
841.537930,-4589.276840,-7920.203579,-9499.584175
841.538250,-3478.967927,-5625.565159,-9269.755526
841.538570,-518.144159,-2738.761985,-9959.241474
841.538890,4071.132681,1036.288319,-10648.727422
841.539210,7031.956449,2960.823768,-11338.213370
841.539530,5107.421000,3627.009116,-11491.432470
841.539850,1628.453072,2220.617826,-10801.946522
841.540170,-814.226536,-740.205942,-10035.851024
841.540490,-2442.679609,-3552.988522,-10112.460574
841.540810,-3182.885551,-6069.688724,-9882.631924
841.541130,-5921.647536,-7179.997637,-9806.022374
841.541450,-7476.080014,-7476.080014,-8886.707777
841.541770,-7179.997637,-6883.915261,-9039.926876
841.542090,-3552.988522,-5107.421000,-9499.584175
841.542410,-1406.391290,-2886.803174,-9806.022374
841.542730,-962.267725,-740.205942,-10112.460574
841.543050,-296.082377,666.185348,-9806.022374
841.543370,2960.823768,1184.329507,-10418.898773
841.543690,5255.462188,1554.432478,-10801.946522
841.544010,3330.926739,2072.576638,-11031.775171
841.544330,666.185348,740.205942,-12257.527968
841.544650,-1036.288319,-1406.391290,-10189.070123
841.544970,-2812.782580,-3182.885551,-10342.289223
841.545290,-6217.729913,-4367.215058,-9959.241474
841.545610,-8512.368333,-5921.647536,-9729.412825
841.545930,-6439.791695,-5403.503377,-8656.879127
841.546250,-3108.864956,-4885.359217,-9422.974625
841.546570,0.000000,-1628.453072,-9806.022374
841.546890,1184.329507,1406.391290,-9959.241474
841.547210,4441.235652,3108.864956,-10955.165621
841.547530,5921.647536,4589.276840,-11338.213370
841.547850,2738.761985,3923.091493,-11338.213370
841.548170,1776.494261,2812.782580,-10342.289223
841.548490,2516.700203,888.247130,-10572.117872
841.548810,1258.350101,-1406.391290,-10495.508323
841.549130,-2368.659014,-4589.276840,-9499.584175
841.549450,-5847.626942,-5921.647536,-9499.584175
841.549770,-4441.235652,-4959.379811,-8963.317327
841.550090,-2886.803174,-2146.597232,-9959.241474
841.550410,-1628.453072,0.000000,-9193.145976
841.550731,-444.123565,148.041188,-9882.631924
841.551051,2368.659014,74.020594,-9729.412825
841.551371,4589.276840,740.205942,-10112.460574
841.551691,3775.050304,3775.050304,-9959.241474
841.552011,3552.988522,4737.318029,-10572.117872
841.552331,4959.379811,3256.906145,-10725.336972
841.552651,2664.741391,1110.308913,-10495.508323
841.552971,-1258.350101,-740.205942,-10801.946522
841.553291,-5107.421000,-3182.885551,-9346.365076
841.553611,-5625.565159,-4219.173869,-9806.022374
841.553931,-3849.070898,-3034.844362,-9116.536426
841.554251,-1924.535449,-1776.494261,-10265.679673
841.554571,1036.288319,1850.514855,-10342.289223
841.554891,2442.679609,2368.659014,-10189.070123
841.555211,3330.926739,2294.638420,-11261.603821
841.555531,4515.256246,4145.153275,-10189.070123
841.555851,4145.153275,4293.194464,-11414.822920
841.556171,4441.235652,3034.844362,-11031.775171
841.556491,1628.453072,444.123565,-9959.241474
841.556811,0.000000,-1184.329507,-10495.508323
841.557131,-2220.617826,-666.185348,-9499.584175
841.557451,-3775.050304,-370.102971,-9806.022374
841.557771,-4589.276840,0.000000,-10265.679673
841.558091,-2368.659014,74.020594,-9499.584175
841.558411,222.061783,-1554.432478,-9729.412825
841.558731,2516.700203,-1850.514855,-9269.755526
841.559051,4219.173869,-1110.308913,-9422.974625
841.559371,5107.421000,592.164754,-10495.508323
841.559691,3330.926739,3108.864956,-10265.679673
841.560011,3627.009116,3627.009116,-9729.412825
841.560331,1850.514855,3330.926739,-10495.508323
841.560651,-148.041188,962.267725,-10189.070123
841.560970,-1258.350101,-1110.308913,-10035.851024
841.561290,-2146.597232,-1554.432478,-10265.679673
841.561610,-1924.535449,-1036.288319,-9882.631924
841.561930,-3182.885551,-2146.597232,-9729.412825
841.562250,-3849.070898,-2072.576638,-9269.755526
841.562570,-1258.350101,-2442.679609,-9422.974625
841.562890,1776.494261,-1258.350101,-10648.727422
841.563210,2368.659014,-296.082377,-10878.556072
841.563530,2516.700203,0.000000,-10495.508323
841.563850,3849.070898,1850.514855,-10495.508323
841.564170,2812.782580,3627.009116,-11108.384721
841.564490,444.123565,3923.091493,-11108.384721
841.564810,-1998.556043,1702.473667,-10495.508323
841.565130,-2294.638420,-1702.473667,-10112.460574
841.565450,-1924.535449,-3182.885551,-10265.679673
841.565770,-1480.411884,-3108.864956,-10801.946522
841.566090,-1184.329507,-3849.070898,-10035.851024
841.566410,-1998.556043,-2368.659014,-9882.631924
841.566730,-2812.782580,740.205942,-9882.631924
841.567050,-444.123565,1184.329507,-10112.460574
841.567370,2220.617826,1998.556043,-10265.679673
841.567690,2516.700203,1184.329507,-10035.851024
841.568010,1258.350101,0.000000,-10189.070123
841.568330,2072.576638,0.000000,-10189.070123
841.568650,2590.720797,370.102971,-10342.289223
841.568970,962.267725,962.267725,-9959.241474
841.569290,-1776.494261,740.205942,-9882.631924
841.569610,-2072.576638,296.082377,-9806.022374
841.569930,0.000000,-2146.597232,-9193.145976
841.570250,222.061783,-3923.091493,-10112.460574
841.570570,74.020594,-5107.421000,-9269.755526
841.570890,0.000000,-3182.885551,-9499.584175
841.571210,-296.082377,518.144159,-9729.412825
841.571530,1998.556043,2072.576638,-10035.851024
841.571850,3701.029710,4071.132681,-10112.460574
841.572170,3552.988522,3330.926739,-10112.460574
841.572490,2146.597232,592.164754,-10878.556072
841.572810,1332.370696,0.000000,-10265.679673
841.573130,740.205942,-222.061783,-10112.460574
841.573450,-814.226536,-518.144159,-10189.070123
841.573770,-1258.350101,148.041188,-9729.412825
841.574090,-1554.432478,-444.123565,-9806.022374
841.574410,0.000000,-1702.473667,-9729.412825
841.574730,1036.288319,-2442.679609,-9806.022374
841.575050,2294.638420,-2368.659014,-10035.851024
841.575370,4145.153275,444.123565,-10648.727422
841.575690,4293.194464,2886.803174,-10495.508323
841.576010,2516.700203,4293.194464,-10725.336972
841.576330,2590.720797,5033.400406,-10418.898773
841.576650,3182.885551,2886.803174,-10878.556072
841.576970,2442.679609,444.123565,-10725.336972
841.577290,1184.329507,-1406.391290,-10112.460574
841.577610,148.041188,-2516.700203,-9806.022374
841.577930,-1332.370696,-1776.494261,-9729.412825
841.578250,-2072.576638,-814.226536,-10035.851024
841.578570,-2590.720797,-666.185348,-8886.707777
841.578890,-3034.844362,-444.123565,-9346.365076
841.579210,-518.144159,0.000000,-9576.193725
841.579530,1480.411884,1554.432478,-10418.898773
841.579850,2442.679609,740.205942,-9116.536426
841.580170,3034.844362,-148.041188,-10189.070123
841.580490,1184.329507,1036.288319,-9806.022374
841.580810,-148.041188,2960.823768,-10112.460574
841.581130,-222.061783,2590.720797,-10418.898773
841.581450,-222.061783,-666.185348,-9576.193725
841.581770,-1480.411884,-1480.411884,-10189.070123
841.582090,-4071.132681,-2368.659014,-9576.193725
841.582410,-3552.988522,-1480.411884,-9806.022374
841.582730,-1998.556043,888.247130,-9499.584175
841.583050,-888.247130,740.205942,-10189.070123
841.583370,370.102971,-222.061783,-9806.022374
841.583690,2368.659014,1258.350101,-10418.898773
841.584010,2886.803174,1480.411884,-10265.679673
841.584330,1776.494261,2368.659014,-10878.556072
841.584650,2220.617826,1924.535449,-10342.289223
841.584970,592.164754,2368.659014,-10495.508323
841.585290,0.000000,2664.741391,-10725.336972
841.585609,-814.226536,-74.020594,-10035.851024
841.585929,-148.041188,-2738.761985,-9806.022374
841.586249,-1850.514855,-3108.864956,-9882.631924
841.586569,-1924.535449,-2072.576638,-10189.070123
841.586889,-1480.411884,592.164754,-9806.022374
841.587209,-444.123565,222.061783,-9959.241474
841.587529,1258.350101,740.205942,-9882.631924
841.587849,0.000000,1480.411884,-9959.241474
841.588169,814.226536,1998.556043,-10342.289223
841.588489,2812.782580,1924.535449,-9346.365076
841.588809,3182.885551,370.102971,-11184.994271
841.589129,2812.782580,-74.020594,-10189.070123
841.589449,592.164754,-592.164754,-10035.851024
841.589769,-1702.473667,-2220.617826,-10035.851024
841.590089,-3330.926739,-1702.473667,-9652.803275
841.590409,-2664.741391,-148.041188,-9959.241474
841.590729,-370.102971,1480.411884,-9882.631924
841.591049,1036.288319,-1184.329507,-9959.241474
841.591369,2812.782580,-1776.494261,-10495.508323
841.591689,3775.050304,-740.205942,-9882.631924
841.592009,3256.906145,2294.638420,-10572.117872
841.592329,2442.679609,3923.091493,-10648.727422
841.592649,1480.411884,2442.679609,-11108.384721
841.592969,1850.514855,2368.659014,-10189.070123
841.593289,370.102971,518.144159,-9959.241474
841.593609,-222.061783,-1110.308913,-10035.851024
841.593929,-148.041188,-1628.453072,-9806.022374
841.594249,370.102971,-148.041188,-10648.727422
841.594569,666.185348,1258.350101,-9806.022374
841.594889,444.123565,1110.308913,-10035.851024
841.595209,1036.288319,-814.226536,-10112.460574
841.595529,1702.473667,-1258.350101,-9806.022374
841.595849,2664.741391,0.000000,-10035.851024
841.596169,3404.947333,1850.514855,-10035.851024
841.596489,4737.318029,2516.700203,-10878.556072
841.596809,2516.700203,1702.473667,-10035.851024
841.597129,222.061783,1776.494261,-9959.241474
841.597449,740.205942,2072.576638,-10418.898773
841.597769,666.185348,-222.061783,-10189.070123
841.598089,666.185348,-2960.823768,-10495.508323
841.598409,-592.164754,-3034.844362,-9422.974625
841.598729,-1110.308913,-962.267725,-9806.022374
841.599049,-666.185348,1776.494261,-10418.898773
841.599369,0.000000,2368.659014,-10342.289223
841.599689,1036.288319,3627.009116,-10035.851024
841.600009,2146.597232,2442.679609,-10265.679673
841.600329,2960.823768,962.267725,-10265.679673
841.600649,2368.659014,-370.102971,-9806.022374
841.600969,1258.350101,-296.082377,-10495.508323
841.601289,-370.102971,1702.473667,-9959.241474
841.601609,-2146.597232,2146.597232,-9806.022374
841.601929,-1924.535449,740.205942,-9959.241474
841.602249,-370.102971,-592.164754,-9346.365076
841.602569,-518.144159,-1184.329507,-9806.022374
841.602889,-1554.432478,-1702.473667,-9729.412825
841.603209,-1184.329507,-2442.679609,-9346.365076
841.603529,370.102971,-1110.308913,-9576.193725
841.603849,444.123565,296.082377,-9729.412825
841.604169,1258.350101,2368.659014,-8733.488677
841.604489,2516.700203,2072.576638,-10112.460574
841.604809,3256.906145,1628.453072,-10648.727422
841.605129,1480.411884,962.267725,-10572.117872
841.605449,518.144159,-888.247130,-9576.193725
841.605769,-666.185348,-962.267725,-9882.631924
841.606089,-2664.741391,-740.205942,-9806.022374
841.606409,-3997.112087,-666.185348,-9806.022374
841.606729,-2220.617826,-1036.288319,-9652.803275
841.607049,148.041188,-666.185348,-10035.851024
841.607369,1332.370696,-1702.473667,-10035.851024
841.607689,2442.679609,-1036.288319,-10189.070123
841.608009,2442.679609,-148.041188,-10342.289223
841.608329,1258.350101,2664.741391,-10265.679673
841.608649,-444.123565,2886.803174,-10495.508323
841.608969,-666.185348,2664.741391,-10418.898773
841.609289,0.000000,1110.308913,-10495.508323
841.609609,1036.288319,-296.082377,-10342.289223
841.609929,296.082377,-1776.494261,-10035.851024
841.610248,518.144159,-3182.885551,-10189.070123
841.610568,-962.267725,-1924.535449,-9806.022374
841.610888,-1480.411884,-592.164754,-10112.460574
841.611208,-518.144159,740.205942,-10112.460574
841.611528,962.267725,-74.020594,-9806.022374
841.611848,1110.308913,518.144159,-10572.117872
841.612168,1036.288319,222.061783,-10035.851024
841.612488,2072.576638,-740.205942,-10265.679673
841.612808,3034.844362,296.082377,-9576.193725
841.613128,1406.391290,2368.659014,-10265.679673
841.613448,148.041188,1480.411884,-10112.460574
841.613768,-444.123565,222.061783,-10112.460574
841.614088,-888.247130,-444.123565,-9806.022374
841.614408,-518.144159,-1332.370696,-10572.117872
841.614728,-888.247130,-1702.473667,-9576.193725
841.615048,-962.267725,-888.247130,-9729.412825
841.615368,296.082377,-296.082377,-9806.022374
841.615688,2220.617826,1554.432478,-10418.898773
841.616008,3478.967927,2368.659014,-10265.679673
841.616328,2146.597232,1184.329507,-10035.851024
841.616648,3552.988522,1998.556043,-10725.336972
841.616968,2368.659014,1702.473667,-10648.727422
841.617288,592.164754,0.000000,-10418.898773
841.617608,0.000000,-370.102971,-9422.974625
841.617928,-740.205942,-666.185348,-10495.508323
841.618248,222.061783,-518.144159,-9729.412825
841.618568,0.000000,1554.432478,-10342.289223
841.618888,74.020594,2294.638420,-10572.117872
841.619208,962.267725,1184.329507,-10342.289223
841.619528,962.267725,370.102971,-10035.851024
841.619848,370.102971,296.082377,-11414.822920
841.620168,0.000000,1480.411884,-9959.241474
841.620488,518.144159,2442.679609,-10801.946522
841.620808,2960.823768,2812.782580,-10495.508323
841.621128,1998.556043,3034.844362,-10878.556072
841.621448,1184.329507,2294.638420,-10112.460574
841.621768,0.000000,1850.514855,-10418.898773
841.622088,-1258.350101,1554.432478,-10342.289223
841.622408,-1628.453072,962.267725,-10265.679673
841.622728,-2368.659014,-222.061783,-9193.145976
841.623048,-1554.432478,-1628.453072,-9652.803275
841.623368,1110.308913,-1554.432478,-9499.584175
841.623688,1480.411884,-1110.308913,-10035.851024
841.624008,2886.803174,148.041188,-10342.289223
841.624328,2812.782580,1998.556043,-10112.460574
841.624648,740.205942,1850.514855,-9959.241474
841.624968,370.102971,962.267725,-9882.631924
841.625288,962.267725,-1184.329507,-9193.145976
841.625608,1776.494261,-2368.659014,-9959.241474
841.625928,0.000000,-2664.741391,-9422.974625
841.626248,0.000000,-1480.411884,-9959.241474
841.626568,814.226536,-962.267725,-9576.193725
841.626888,-1110.308913,518.144159,-10189.070123
841.627208,-740.205942,2146.597232,-9499.584175
841.627528,-370.102971,1776.494261,-9729.412825
841.627848,1110.308913,1184.329507,-10189.070123
841.628168,3034.844362,1184.329507,-9959.241474
841.628488,2664.741391,-370.102971,-10189.070123
841.628808,2738.761985,-1258.350101,-10112.460574
841.629128,1554.432478,444.123565,-9729.412825
841.629448,0.000000,1480.411884,-10418.898773
841.629768,740.205942,2220.617826,-9959.241474
841.630088,888.247130,1776.494261,-10495.508323
841.630408,-370.102971,74.020594,-10801.946522
841.630728,-1258.350101,-1554.432478,-9806.022374
841.631048,-518.144159,-1480.411884,-10265.679673
841.631368,148.041188,0.000000,-10572.117872
841.631688,222.061783,518.144159,-10495.508323
841.632008,888.247130,888.247130,-10342.289223
841.632328,1776.494261,444.123565,-10572.117872
841.632648,888.247130,296.082377,-10801.946522
841.632968,518.144159,1184.329507,-10572.117872
841.633288,0.000000,1554.432478,-10955.165621
841.633608,-740.205942,1924.535449,-10878.556072
841.633928,-1110.308913,1480.411884,-10112.460574
841.634248,-1480.411884,-222.061783,-10418.898773
841.634568,-444.123565,0.000000,-9729.412825
841.634887,-74.020594,-814.226536,-10418.898773
841.635207,592.164754,-1628.453072,-9959.241474
841.635527,1850.514855,-814.226536,-9729.412825
841.635847,888.247130,-962.267725,-9882.631924
841.636167,814.226536,1110.308913,-10112.460574
841.636487,-296.082377,2368.659014,-9729.412825
841.636807,-296.082377,2220.617826,-9729.412825
841.637127,1924.535449,1554.432478,-9652.803275
841.637447,814.226536,-444.123565,-9806.022374
841.637767,518.144159,-1924.535449,-9269.755526
841.638087,962.267725,-888.247130,-9576.193725
841.638407,-444.123565,-1184.329507,-9116.536426
841.638727,-666.185348,-222.061783,-9499.584175
841.639047,-592.164754,148.041188,-9576.193725
841.639367,592.164754,814.226536,-10112.460574
841.639687,962.267725,962.267725,-9882.631924
841.640007,666.185348,1184.329507,-9729.412825
841.640327,2220.617826,1850.514855,-10495.508323
841.640647,3701.029710,3034.844362,-10801.946522
841.640967,2368.659014,2886.803174,-10725.336972
841.641287,888.247130,1628.453072,-11108.384721
841.641607,962.267725,-888.247130,-10189.070123
841.641927,-296.082377,-518.144159,-10342.289223
841.642247,1406.391290,1036.288319,-10265.679673
841.642567,148.041188,2146.597232,-10189.070123
841.642887,592.164754,2072.576638,-10572.117872
841.643207,222.061783,1998.556043,-10648.727422
841.643527,-518.144159,222.061783,-10342.289223
841.643847,1776.494261,-1258.350101,-10035.851024
841.644167,1924.535449,-888.247130,-10572.117872
841.644487,962.267725,370.102971,-10801.946522
841.644807,1850.514855,1258.350101,-10189.070123
841.645127,1554.432478,740.205942,-10342.289223
841.645447,-962.267725,1184.329507,-9882.631924
841.645767,-1776.494261,1184.329507,-9576.193725
841.646087,-1036.288319,-370.102971,-9806.022374
841.646407,1110.308913,-1036.288319,-9729.412825
841.646727,592.164754,-2368.659014,-9806.022374
841.647047,148.041188,-2664.741391,-8963.317327
841.647367,814.226536,-1110.308913,-9422.974625
841.647687,0.000000,444.123565,-9652.803275
841.648007,-592.164754,2664.741391,-9882.631924
841.648327,592.164754,2516.700203,-9959.241474
841.648647,1628.453072,1184.329507,-9959.241474
841.648967,1110.308913,-666.185348,-10035.851024
841.649287,666.185348,-1036.288319,-10418.898773
841.649607,740.205942,-962.267725,-9882.631924
841.649927,-1110.308913,888.247130,-10495.508323
841.650247,-888.247130,370.102971,-10189.070123
841.650567,-296.082377,296.082377,-9959.241474
841.650887,0.000000,370.102971,-11031.775171
841.651207,370.102971,740.205942,-11031.775171
841.651527,1258.350101,1184.329507,-11184.994271
841.651847,1554.432478,2220.617826,-11261.603821
841.652167,1924.535449,3330.926739,-11338.213370
841.652487,814.226536,3330.926739,-10572.117872
841.652807,148.041188,1776.494261,-10495.508323
841.653127,740.205942,-148.041188,-10112.460574
841.653447,2072.576638,-2368.659014,-10265.679673
841.653767,1554.432478,-2368.659014,-9882.631924
841.654087,0.000000,-2072.576638,-9806.022374
841.654406,1036.288319,-666.185348,-10112.460574
841.654726,148.041188,-74.020594,-9959.241474
841.655046,-444.123565,518.144159,-9729.412825
841.655366,-1184.329507,1036.288319,-9576.193725
841.655686,-1332.370696,592.164754,-9576.193725
841.656006,370.102971,-444.123565,-9576.193725
841.656326,222.061783,-1776.494261,-9269.755526
841.656646,-370.102971,-370.102971,-9652.803275
841.656966,-888.247130,-518.144159,-9193.145976
841.657286,-666.185348,444.123565,-9499.584175
841.657606,0.000000,1628.453072,-9116.536426
841.657926,1184.329507,740.205942,-9882.631924
841.658245,1184.329507,-518.144159,-9806.022374
841.658565,518.144159,-1480.411884,-9652.803275
841.658885,592.164754,-592.164754,-9729.412825
841.659205,0.000000,370.102971,-10189.070123
841.659525,-1184.329507,296.082377,-10035.851024
841.659845,-518.144159,444.123565,-10801.946522
841.660165,814.226536,444.123565,-10265.679673
841.660485,1184.329507,444.123565,-10878.556072
841.660805,962.267725,296.082377,-10572.117872
841.661125,814.226536,2072.576638,-10265.679673
841.661445,148.041188,2590.720797,-10801.946522
841.661765,-296.082377,2368.659014,-10955.165621
841.662084,-1184.329507,1258.350101,-10189.070123
841.662404,0.000000,-814.226536,-10342.289223
841.662724,1554.432478,-1480.411884,-10572.117872
841.663044,1702.473667,222.061783,-10495.508323
841.663364,1554.432478,1924.535449,-10572.117872
841.663684,2368.659014,2886.803174,-10725.336972
841.664004,1110.308913,2886.803174,-9806.022374
841.664324,1406.391290,1036.288319,-9882.631924
841.664644,1850.514855,148.041188,-9806.022374
841.664964,2368.659014,888.247130,-10189.070123
841.665284,2146.597232,1258.350101,-10342.289223
841.665604,1702.473667,962.267725,-9806.022374
841.665923,888.247130,148.041188,-9959.241474
841.666243,370.102971,0.000000,-9652.803275
841.666563,-888.247130,-370.102971,-9193.145976
841.666883,-1184.329507,444.123565,-9652.803275
841.667203,2220.617826,1332.370696,-9806.022374
841.667523,2516.700203,1036.288319,-10265.679673
841.667843,1776.494261,-444.123565,-9806.022374
841.668163,1036.288319,-1850.514855,-9576.193725
841.668483,518.144159,-296.082377,-9806.022374
841.668803,-444.123565,0.000000,-9882.631924
841.669123,444.123565,1110.308913,-10342.289223
841.669443,1258.350101,1036.288319,-9959.241474
841.669762,666.185348,0.000000,-10342.289223
841.670082,-148.041188,-222.061783,-10572.117872
841.670402,-666.185348,962.267725,-10495.508323
841.670722,-1110.308913,1924.535449,-10955.165621
841.671042,-2590.720797,2220.617826,-10265.679673
841.671362,-1480.411884,0.000000,-9959.241474
841.671682,148.041188,-1998.556043,-9729.412825
841.672002,1850.514855,-3034.844362,-10418.898773
841.672322,2220.617826,-2072.576638,-10495.508323
841.672642,1998.556043,-148.041188,-10189.070123
841.672962,1480.411884,2072.576638,-10725.336972
841.673282,-370.102971,3256.906145,-10495.508323
841.673601,-2442.679609,2886.803174,-10265.679673
841.673921,-2664.741391,1406.391290,-10189.070123
841.674241,-592.164754,-1702.473667,-10035.851024
841.674561,814.226536,-3108.864956,-10189.070123
841.674881,1628.453072,-3997.112087,-9806.022374
841.675201,1702.473667,-2368.659014,-9806.022374
841.675521,-222.061783,-518.144159,-9422.974625
841.675841,-1776.494261,1924.535449,-9959.241474
841.676161,-1776.494261,2590.720797,-10112.460574
841.676481,296.082377,2072.576638,-9959.241474
841.676801,1110.308913,222.061783,-10112.460574
841.677121,1480.411884,-2368.659014,-9499.584175
841.677440,1850.514855,-3701.029710,-9806.022374
841.677760,962.267725,-2368.659014,-9806.022374
841.678080,-370.102971,-666.185348,-9806.022374
841.678400,-444.123565,814.226536,-10725.336972
841.678720,74.020594,1776.494261,-9576.193725
841.679040,-444.123565,740.205942,-10035.851024
841.679360,-666.185348,74.020594,-10495.508323
841.679680,296.082377,-740.205942,-10495.508323
841.680000,222.061783,-1406.391290,-10801.946522
841.680320,0.000000,-1554.432478,-9806.022374
841.680640,1110.308913,-740.205942,-10112.460574
841.680960,2072.576638,222.061783,-10265.679673
841.681279,1628.453072,518.144159,-10035.851024
841.681599,518.144159,1776.494261,-10801.946522
841.681919,814.226536,666.185348,-10342.289223
841.682239,444.123565,814.226536,-10648.727422
841.682559,-296.082377,518.144159,-10265.679673
841.682879,-1998.556043,-740.205942,-10189.070123
841.683199,370.102971,-666.185348,-10265.679673
841.683519,1850.514855,0.000000,-10418.898773
841.683839,2146.597232,370.102971,-10725.336972
841.684159,740.205942,1850.514855,-10418.898773
841.684479,1406.391290,3552.988522,-10725.336972
841.684799,1332.370696,3552.988522,-10725.336972
841.685118,296.082377,2368.659014,-10112.460574
841.685438,592.164754,740.205942,-10035.851024
841.685758,1850.514855,-888.247130,-9806.022374
841.686078,1332.370696,518.144159,-10495.508323
841.686398,1184.329507,1480.411884,-9806.022374
841.686718,2072.576638,1776.494261,-10035.851024
841.687038,1628.453072,2664.741391,-10189.070123
841.687358,-518.144159,1998.556043,-9806.022374
841.687678,-518.144159,444.123565,-9806.022374
841.687998,1036.288319,-1628.453072,-9576.193725
841.688318,1628.453072,-1332.370696,-10878.556072
841.688638,2072.576638,-74.020594,-9806.022374
841.688957,2442.679609,666.185348,-9806.022374
841.689277,1924.535449,1480.411884,-10035.851024
841.689597,444.123565,1776.494261,-9193.145976
841.689917,-666.185348,666.185348,-9193.145976
841.690237,-370.102971,518.144159,-9576.193725
841.690557,518.144159,-148.041188,-9806.022374
841.690877,888.247130,-592.164754,-10342.289223
841.691197,1998.556043,-1998.556043,-9729.412825
841.691517,962.267725,-296.082377,-10189.070123
841.691837,-444.123565,592.164754,-10035.851024
841.692157,-740.205942,1924.535449,-9882.631924
841.692477,74.020594,3034.844362,-9806.022374
841.692796,444.123565,1702.473667,-10265.679673
841.693116,518.144159,74.020594,-10342.289223
841.693436,814.226536,-1258.350101,-10112.460574
841.693756,0.000000,-962.267725,-10112.460574
841.694076,-1406.391290,0.000000,-10112.460574
841.694396,-1110.308913,814.226536,-10495.508323
841.694716,0.000000,370.102971,-10035.851024
841.695036,1332.370696,222.061783,-10572.117872
841.695356,296.082377,0.000000,-10418.898773
841.695676,296.082377,-296.082377,-10112.460574
841.695996,666.185348,74.020594,-10495.508323
841.696315,74.020594,296.082377,-10418.898773
841.696635,370.102971,-370.102971,-10112.460574
841.696955,296.082377,-962.267725,-9729.412825
841.697275,888.247130,-1406.391290,-9882.631924
841.697595,518.144159,-666.185348,-10189.070123
841.697915,74.020594,296.082377,-10035.851024
841.698235,592.164754,518.144159,-10189.070123
841.698555,1110.308913,148.041188,-9959.241474
841.698875,148.041188,-666.185348,-10112.460574
841.699195,-222.061783,-1924.535449,-10265.679673
841.699515,1184.329507,-1850.514855,-10265.679673
841.699835,1628.453072,-1480.411884,-10112.460574
841.700154,1258.350101,740.205942,-10265.679673
841.700474,1184.329507,2368.659014,-10725.336972
841.700794,222.061783,2516.700203,-10725.336972
841.701114,-296.082377,2516.700203,-9959.241474
841.701434,-370.102971,1036.288319,-10189.070123
841.701754,1036.288319,-1036.288319,-10189.070123
841.702074,1924.535449,-2516.700203,-9959.241474
841.702394,0.000000,-3034.844362,-10112.460574
841.702714,-814.226536,-2220.617826,-9422.974625
841.703034,-592.164754,-444.123565,-9959.241474
841.703354,-666.185348,1258.350101,-10112.460574
841.703674,-740.205942,2442.679609,-9959.241474
841.703993,-1184.329507,1850.514855,-9652.803275
841.704313,1184.329507,0.000000,-10112.460574
841.704633,1258.350101,-1998.556043,-10189.070123
841.704953,0.000000,-3182.885551,-9269.755526
841.705273,74.020594,-2442.679609,-9729.412825
841.705593,-296.082377,666.185348,-9959.241474
841.705913,-296.082377,3034.844362,-10418.898773
841.706233,0.000000,3404.947333,-10189.070123
841.706553,0.000000,2368.659014,-9959.241474
841.706873,444.123565,-148.041188,-9959.241474
841.707193,2960.823768,-962.267725,-9882.631924
841.707513,1406.391290,-2146.597232,-10265.679673
841.707832,-592.164754,-1184.329507,-9193.145976
841.708152,-1110.308913,814.226536,-9959.241474
841.708472,1628.453072,2368.659014,-10189.070123
841.708792,2368.659014,2738.761985,-10418.898773
841.709112,1998.556043,2738.761985,-10955.165621
841.709432,888.247130,962.267725,-10725.336972
841.709752,1332.370696,0.000000,-10035.851024
841.710072,1184.329507,814.226536,-11261.603821
841.710392,0.000000,814.226536,-10035.851024
841.710712,-666.185348,888.247130,-10265.679673
841.711032,222.061783,444.123565,-10189.070123
841.711352,592.164754,1184.329507,-10112.460574
841.711671,-666.185348,1406.391290,-10495.508323
841.711991,0.000000,1850.514855,-9959.241474
841.712311,2442.679609,2072.576638,-10572.117872
841.712631,3404.947333,1184.329507,-9652.803275
841.712951,2072.576638,74.020594,-10265.679673
841.713271,740.205942,-962.267725,-9806.022374
841.713591,1258.350101,-1258.350101,-9806.022374
841.713911,444.123565,444.123565,-9499.584175
841.714231,148.041188,1628.453072,-9959.241474
841.714551,888.247130,2146.597232,-9959.241474
841.714871,-444.123565,1332.370696,-9882.631924
841.715191,-888.247130,-888.247130,-9806.022374
841.715510,444.123565,-2442.679609,-9422.974625
841.715830,444.123565,-1924.535449,-9806.022374
841.716150,148.041188,-222.061783,-9959.241474
841.716470,0.000000,1184.329507,-9576.193725
841.716790,0.000000,2590.720797,-10265.679673
841.717110,370.102971,2664.741391,-10572.117872
841.717430,-740.205942,962.267725,-9652.803275
841.717750,-592.164754,-1258.350101,-10112.460574
841.718070,1998.556043,-2664.741391,-9882.631924
841.718390,2294.638420,-2664.741391,-9806.022374
841.718710,1184.329507,-1628.453072,-10035.851024
841.719030,592.164754,592.164754,-10189.070123
841.719349,592.164754,2738.761985,-10878.556072
841.719669,-148.041188,3330.926739,-9729.412825
841.719989,-888.247130,2072.576638,-10495.508323
841.720309,666.185348,-444.123565,-9882.631924
841.720629,2368.659014,-1924.535449,-10112.460574
841.720949,2220.617826,-1998.556043,-10342.289223
841.721269,592.164754,-1258.350101,-10035.851024
841.721589,-444.123565,0.000000,-10035.851024
841.721909,-740.205942,1850.514855,-10418.898773
841.722229,-1110.308913,1628.453072,-9806.022374
841.722549,-222.061783,814.226536,-10495.508323
841.722869,222.061783,0.000000,-10035.851024
841.723188,666.185348,-1110.308913,-10189.070123
841.723508,1554.432478,-1702.473667,-10112.460574
841.723828,2368.659014,-1628.453072,-8427.050478
841.724148,444.123565,-814.226536,-9806.022374
841.724468,-740.205942,-740.205942,-9652.803275
841.724788,222.061783,-666.185348,-9806.022374
841.725108,1924.535449,-296.082377,-9729.412825
841.725428,1406.391290,222.061783,-10112.460574
841.725748,0.000000,0.000000,-10035.851024
841.726068,-148.041188,-814.226536,-9959.241474
841.726388,-592.164754,-148.041188,-10035.851024
841.726708,-1406.391290,-74.020594,-10418.898773
841.727027,-1628.453072,-370.102971,-9959.241474
841.727347,0.000000,-1332.370696,-10342.289223
841.727667,1332.370696,-814.226536,-10572.117872
841.727987,444.123565,518.144159,-10265.679673
841.728307,-740.205942,1406.391290,-10265.679673
841.728627,-296.082377,1924.535449,-10801.946522
841.728947,-222.061783,1406.391290,-10725.336972
841.729267,592.164754,296.082377,-10342.289223
841.729587,962.267725,0.000000,-10112.460574
841.729907,592.164754,666.185348,-10572.117872
841.730227,-296.082377,740.205942,-10878.556072
841.730547,74.020594,740.205942,-10495.508323
841.730866,444.123565,592.164754,-10265.679673
841.731186,444.123565,666.185348,-10189.070123
841.731506,148.041188,888.247130,-9806.022374
841.731826,1110.308913,962.267725,-10035.851024
841.732146,2664.741391,1332.370696,-10342.289223
841.732466,2590.720797,1110.308913,-11108.384721
841.732786,1110.308913,518.144159,-9882.631924
841.733106,1776.494261,-148.041188,-9652.803275
841.733426,888.247130,-444.123565,-9882.631924
841.733746,296.082377,0.000000,-9039.926876
841.734066,518.144159,888.247130,-9652.803275
841.734386,1258.350101,1998.556043,-10342.289223
841.734705,1924.535449,666.185348,-9729.412825
841.735025,1258.350101,74.020594,-9729.412825
841.735345,814.226536,444.123565,-9806.022374
841.735665,1258.350101,1776.494261,-9882.631924
841.735985,1110.308913,2812.782580,-10342.289223
841.736305,370.102971,2220.617826,-9806.022374
841.736625,1776.494261,444.123565,-11797.870669
841.736945,2368.659014,-666.185348,-9652.803275
841.737265,1480.411884,222.061783,-10495.508323
841.737585,1036.288319,1554.432478,-10418.898773
841.737905,740.205942,3182.885551,-10648.727422
841.738225,-444.123565,2960.823768,-10495.508323
841.738544,0.000000,2072.576638,-10189.070123
841.738864,74.020594,-518.144159,-10112.460574
841.739184,814.226536,-1924.535449,-10035.851024
841.739504,370.102971,-2368.659014,-9652.803275
841.739824,148.041188,-1184.329507,-9882.631924
841.740144,-296.082377,296.082377,-10265.679673
841.740464,-1036.288319,1628.453072,-10265.679673
841.740784,-1554.432478,1554.432478,-10112.460574
841.741104,0.000000,1110.308913,-10342.289223
841.741424,1184.329507,370.102971,-10495.508323
841.741744,1554.432478,-666.185348,-10189.070123
841.742063,1702.473667,-1554.432478,-9806.022374
841.742383,1110.308913,-1258.350101,-9116.536426
841.742703,296.082377,-888.247130,-9806.022374
841.743023,-1110.308913,222.061783,-9806.022374
841.743343,-1332.370696,740.205942,-9959.241474
841.743663,370.102971,1332.370696,-9882.631924
841.743983,1184.329507,148.041188,-9882.631924
841.744303,962.267725,-740.205942,-9882.631924
841.744623,962.267725,-1702.473667,-9499.584175
841.744943,592.164754,-1406.391290,-9422.974625
841.745263,296.082377,74.020594,-9729.412825
841.745583,-444.123565,0.000000,-9806.022374
841.745902,148.041188,0.000000,-10189.070123
841.746222,-222.061783,0.000000,-10189.070123
841.746542,-370.102971,-370.102971,-10035.851024
841.746862,370.102971,-518.144159,-10342.289223
841.747182,1036.288319,0.000000,-10572.117872
841.747502,0.000000,592.164754,-10572.117872
841.747822,74.020594,740.205942,-10725.336972
841.748142,1258.350101,-148.041188,-10342.289223
841.748462,296.082377,444.123565,-10725.336972
841.748782,-148.041188,0.000000,-10265.679673
841.749102,518.144159,-222.061783,-10572.117872
841.749422,1110.308913,444.123565,-10189.070123
841.749741,0.000000,222.061783,-10035.851024
841.750061,-1480.411884,-370.102971,-9806.022374
841.750381,-518.144159,-296.082377,-9806.022374
841.750701,148.041188,-1036.288319,-10035.851024
841.751021,0.000000,-1480.411884,-9422.974625
841.751341,-296.082377,-1554.432478,-9652.803275
841.751661,148.041188,-1184.329507,-9422.974625
841.751981,518.144159,1184.329507,-9806.022374
841.752301,370.102971,2294.638420,-9346.365076
841.752621,740.205942,1998.556043,-9576.193725
841.752941,1702.473667,666.185348,-9576.193725
841.753261,3552.988522,-1110.308913,-9882.631924
841.753580,2738.761985,-1702.473667,-9576.193725
841.753900,1184.329507,-592.164754,-9499.584175
841.754220,-444.123565,1184.329507,-9576.193725
841.754540,-1036.288319,1332.370696,-9729.412825
841.754860,-740.205942,1850.514855,-10035.851024
841.755180,962.267725,518.144159,-11338.213370
841.755500,1628.453072,370.102971,-10265.679673
841.755820,1036.288319,888.247130,-10725.336972
841.756140,1406.391290,1776.494261,-10572.117872
841.756460,1258.350101,2590.720797,-10495.508323
841.756780,592.164754,2738.761985,-11491.432470
841.757100,888.247130,1554.432478,-10878.556072
841.757421,222.061783,-296.082377,-10265.679673
841.757741,666.185348,-740.205942,-10725.336972
841.758061,1850.514855,370.102971,-10495.508323
841.758381,2960.823768,2590.720797,-11031.775171
841.758701,3182.885551,3627.009116,-11261.603821
841.759021,1406.391290,4145.153275,-10878.556072
841.759341,-222.061783,1998.556043,-10342.289223
841.759661,0.000000,74.020594,-9806.022374
841.759981,0.000000,-1702.473667,-10035.851024
841.760302,370.102971,-2368.659014,-9652.803275
841.760622,1258.350101,-1184.329507,-9729.412825
841.760942,1332.370696,1036.288319,-9346.365076
841.761262,-518.144159,2960.823768,-9806.022374
841.761582,-1110.308913,3849.070898,-9806.022374
841.761902,740.205942,2368.659014,-9806.022374
841.762222,3108.864956,-888.247130,-9499.584175
841.762542,2516.700203,-2738.761985,-9346.365076
841.762863,814.226536,-2812.782580,-9193.145976
841.763183,0.000000,-592.164754,-9193.145976
841.763503,-518.144159,1406.391290,-9652.803275
841.763823,-1406.391290,2146.597232,-9422.974625
841.764143,-296.082377,1406.391290,-9729.412825
841.764463,1110.308913,0.000000,-9806.022374
841.764783,2146.597232,-1702.473667,-9882.631924
841.765103,1258.350101,-814.226536,-9882.631924
841.765424,222.061783,-740.205942,-9729.412825
841.765744,-1258.350101,814.226536,-9882.631924
841.766064,-2886.803174,1554.432478,-10418.898773
841.766384,-2886.803174,888.247130,-10265.679673
841.766704,-1036.288319,-740.205942,-10418.898773
841.767024,1036.288319,-1184.329507,-10112.460574
841.767344,1480.411884,-814.226536,-10955.165621
841.767664,1480.411884,-296.082377,-11031.775171
841.767985,222.061783,1406.391290,-11491.432470
841.768305,-962.267725,2368.659014,-10878.556072
841.768625,-1776.494261,2294.638420,-10572.117872
841.768945,0.000000,888.247130,-11031.775171
841.769265,2886.803174,-370.102971,-10801.946522
841.769585,2368.659014,-1406.391290,-11184.994271
841.769905,1702.473667,-444.123565,-10342.289223
841.770225,814.226536,148.041188,-10035.851024
841.770546,-814.226536,592.164754,-10112.460574
841.770866,-1184.329507,148.041188,-9576.193725
841.771186,-888.247130,-962.267725,-9576.193725
841.771506,1036.288319,-1480.411884,-9806.022374
841.771826,888.247130,-1406.391290,-9269.755526
841.772146,1036.288319,-740.205942,-9576.193725
841.772466,814.226536,0.000000,-10112.460574
841.772786,888.247130,666.185348,-9652.803275
841.773107,888.247130,370.102971,-9576.193725
841.773427,1258.350101,-666.185348,-9193.145976
841.773747,962.267725,-1776.494261,-9499.584175
841.774067,962.267725,-2220.617826,-9882.631924
841.774387,-370.102971,-1480.411884,-9882.631924
841.774707,-740.205942,-148.041188,-10112.460574
841.775027,-1332.370696,1628.453072,-10112.460574
841.775347,-1628.453072,2886.803174,-10265.679673
841.775668,444.123565,2738.761985,-10342.289223
841.775988,2368.659014,962.267725,-10418.898773
841.776308,2516.700203,-1110.308913,-10265.679673
841.776628,1628.453072,-1702.473667,-10801.946522
841.776948,1258.350101,-1554.432478,-10112.460574
841.777268,518.144159,444.123565,-10801.946522
841.777588,-1332.370696,2960.823768,-10725.336972
841.777908,-1998.556043,4071.132681,-11721.261119
841.778229,-518.144159,2960.823768,-10648.727422
841.778549,1998.556043,2072.576638,-11108.384721
841.778869,2146.597232,222.061783,-10648.727422
841.779189,1628.453072,-888.247130,-10342.289223
841.779509,1036.288319,-740.205942,-10648.727422
841.779829,-444.123565,518.144159,-10189.070123
841.780149,-1258.350101,1924.535449,-10035.851024
841.780469,-962.267725,2812.782580,-10035.851024
841.780790,1184.329507,1998.556043,-10189.070123
841.781110,1702.473667,814.226536,-10112.460574
841.781430,2516.700203,148.041188,-9652.803275
841.781750,2368.659014,222.061783,-9882.631924
841.782070,1110.308913,592.164754,-9806.022374
841.782390,0.000000,0.000000,-9422.974625
841.782710,-1332.370696,-592.164754,-9039.926876
841.783030,0.000000,-888.247130,-9193.145976
841.783351,888.247130,-1258.350101,-9499.584175
841.783671,1776.494261,-592.164754,-9576.193725
841.783991,1406.391290,518.144159,-9729.412825
841.784311,1406.391290,2368.659014,-9652.803275
841.784631,370.102971,2738.761985,-10035.851024
841.784951,148.041188,1332.370696,-10189.070123
841.785271,2072.576638,-592.164754,-10035.851024
841.785591,1110.308913,-1850.514855,-9882.631924
841.785912,296.082377,-1480.411884,-10112.460574
841.786232,518.144159,-222.061783,-9959.241474
841.786552,888.247130,1184.329507,-10648.727422
841.786872,0.000000,1628.453072,-10265.679673
841.787192,444.123565,1850.514855,-10342.289223
841.787512,1776.494261,444.123565,-10342.289223
841.787832,1776.494261,148.041188,-10265.679673
841.788152,2368.659014,296.082377,-11184.994271
841.788473,2664.741391,148.041188,-10801.946522
841.788793,1998.556043,888.247130,-10648.727422
841.789113,-444.123565,2220.617826,-11031.775171
841.789433,-1406.391290,2516.700203,-10495.508323
841.789753,-222.061783,1406.391290,-10265.679673
841.790073,1480.411884,444.123565,-10648.727422
841.790393,888.247130,-1036.288319,-10112.460574
841.790713,-370.102971,-1258.350101,-9652.803275
841.791033,-740.205942,-1702.473667,-9806.022374
841.791354,-1258.350101,0.000000,-9652.803275
841.791674,-1628.453072,1110.308913,-9729.412825
841.791994,-1406.391290,1184.329507,-9499.584175
841.792314,74.020594,370.102971,-9422.974625
841.792634,1110.308913,-1480.411884,-10112.460574
841.792954,1184.329507,-2368.659014,-9729.412825
841.793274,1110.308913,-1850.514855,-9882.631924
841.793594,0.000000,0.000000,-9882.631924
841.793915,-1184.329507,740.205942,-9882.631924
841.794235,-2220.617826,518.144159,-9959.241474
841.794555,-888.247130,-592.164754,-10189.070123
841.794875,370.102971,-518.144159,-10189.070123
841.795195,814.226536,-740.205942,-10342.289223
841.795515,1702.473667,-74.020594,-10572.117872
841.795835,296.082377,814.226536,-10725.336972
841.796155,-1776.494261,2072.576638,-9959.241474
841.796476,-2368.659014,1258.350101,-9806.022374
841.796796,-1406.391290,296.082377,-9806.022374
841.797116,222.061783,-666.185348,-10265.679673
841.797436,1924.535449,-1110.308913,-10035.851024
841.797756,1480.411884,-1036.288319,-9806.022374
841.798076,1110.308913,0.000000,-10035.851024
841.798396,-148.041188,1406.391290,-9882.631924
841.798716,-1406.391290,1036.288319,-10035.851024
841.799037,-370.102971,222.061783,-9346.365076
841.799357,1258.350101,74.020594,-8733.488677
841.799677,1258.350101,-444.123565,-10572.117872
841.799997,1628.453072,-1036.288319,-9806.022374
841.800317,1998.556043,-148.041188,-9882.631924
841.800637,1998.556043,1480.411884,-10189.070123
841.800957,1036.288319,2294.638420,-9882.631924
841.801277,148.041188,1924.535449,-10418.898773
841.801598,0.000000,148.041188,-9806.022374
841.801918,1258.350101,-962.267725,-9882.631924
841.802238,888.247130,-1776.494261,-10189.070123
841.802558,1110.308913,-592.164754,-9806.022374
841.802878,74.020594,1406.391290,-10265.679673
841.803198,-296.082377,3256.906145,-10495.508323
841.803518,888.247130,3330.926739,-10418.898773
841.803838,1776.494261,2294.638420,-10801.946522
841.804159,1924.535449,296.082377,-10112.460574
841.804479,2072.576638,-1480.411884,-10572.117872
841.804799,2516.700203,-1628.453072,-10112.460574
841.805119,2294.638420,-370.102971,-10418.898773
841.805439,296.082377,1554.432478,-10265.679673
841.805759,-962.267725,2294.638420,-10035.851024
841.806079,1258.350101,2812.782580,-10801.946522
841.806399,3182.885551,2072.576638,-10572.117872
841.806720,3552.988522,296.082377,-10878.556072
841.807040,1628.453072,-370.102971,-9729.412825
841.807360,-666.185348,74.020594,-10342.289223
841.807680,-2368.659014,962.267725,-9576.193725
841.808000,-3256.906145,740.205942,-9729.412825
841.808320,-2516.700203,-370.102971,-9193.145976
841.808640,0.000000,-888.247130,-9652.803275
841.808960,1702.473667,-1776.494261,-9959.241474
841.809281,2220.617826,-148.041188,-8886.707777
841.809601,1332.370696,1480.411884,-10265.679673
841.809921,-1110.308913,2738.761985,-10112.460574
841.810241,-1406.391290,2368.659014,-9652.803275
841.810561,444.123565,518.144159,-9806.022374
841.810881,1480.411884,-1184.329507,-9729.412825
841.811201,1258.350101,-1924.535449,-9806.022374
841.811521,1110.308913,-1554.432478,-9729.412825
841.811842,3478.967927,-148.041188,-9959.241474
841.812162,2294.638420,1554.432478,-11644.651570
841.812482,-518.144159,1480.411884,-10418.898773
841.812802,-2960.823768,1480.411884,-9806.022374
841.813122,-2590.720797,592.164754,-10035.851024
841.813442,-1184.329507,0.000000,-9576.193725
841.813762,0.000000,-1628.453072,-10648.727422
841.814082,1850.514855,-1554.432478,-10342.289223
841.814403,1998.556043,-296.082377,-10418.898773
841.814723,592.164754,1036.288319,-10495.508323
841.815043,-518.144159,1480.411884,-9729.412825
841.815363,222.061783,962.267725,-10112.460574
841.815683,1406.391290,0.000000,-10418.898773
841.816003,2146.597232,-1480.411884,-10495.508323
841.816323,2220.617826,-1406.391290,-10265.679673
841.816643,2442.679609,-1036.288319,-10648.727422
841.816964,1850.514855,1332.370696,-10495.508323
841.817284,222.061783,3256.906145,-10495.508323
841.817604,592.164754,3256.906145,-10418.898773
841.817924,296.082377,1702.473667,-10189.070123
841.818244,74.020594,-740.205942,-10342.289223
841.818564,0.000000,-3330.926739,-9652.803275
841.818884,222.061783,-3108.864956,-9652.803275
841.819204,-1184.329507,-592.164754,-9576.193725
841.819525,-2590.720797,1110.308913,-9499.584175
841.819845,-2220.617826,1406.391290,-9806.022374
841.820165,-592.164754,666.185348,-9806.022374
841.820485,148.041188,-370.102971,-9959.241474
841.820805,74.020594,-1480.411884,-9729.412825
841.821125,888.247130,-1702.473667,-9959.241474
841.821445,814.226536,-592.164754,-10342.289223
841.821765,-370.102971,888.247130,-9959.241474
841.822085,-888.247130,2590.720797,-10572.117872
841.822406,0.000000,1406.391290,-10035.851024
841.822726,0.000000,740.205942,-10035.851024
841.823046,518.144159,-444.123565,-10648.727422
841.823366,1628.453072,-888.247130,-9729.412825
841.823686,1850.514855,518.144159,-11184.994271
841.824006,962.267725,1184.329507,-10035.851024
841.824326,0.000000,2294.638420,-10035.851024
841.824646,444.123565,1776.494261,-10265.679673
841.824967,1480.411884,2146.597232,-9806.022374
841.825287,2664.741391,444.123565,-10418.898773
841.825607,2220.617826,148.041188,-10342.289223
841.825927,1406.391290,0.000000,-10648.727422
841.826247,740.205942,0.000000,-9959.241474
841.826567,-370.102971,518.144159,-9652.803275
841.826887,-814.226536,1258.350101,-9882.631924
841.827207,148.041188,1406.391290,-10112.460574
841.827528,962.267725,740.205942,-10342.289223
841.827848,1702.473667,0.000000,-10035.851024
841.828168,1406.391290,-370.102971,-9959.241474
841.828488,814.226536,0.000000,-10035.851024
841.828808,592.164754,666.185348,-10189.070123
841.829128,592.164754,592.164754,-10035.851024
841.829448,1480.411884,0.000000,-9576.193725
841.829768,2072.576638,-1036.288319,-9806.022374
841.830089,1110.308913,-1554.432478,-9652.803275
841.830409,1184.329507,-814.226536,-9806.022374
841.830729,148.041188,444.123565,-10112.460574
841.831049,-1554.432478,1258.350101,-9806.022374
841.831369,-2516.700203,370.102971,-10112.460574
841.831689,-1110.308913,-1036.288319,-9806.022374
841.832009,148.041188,-2368.659014,-9959.241474
841.832329,1036.288319,-2368.659014,-10265.679673
841.832650,1702.473667,-814.226536,-10495.508323
841.832970,740.205942,666.185348,-10189.070123
841.833290,-666.185348,2664.741391,-10572.117872
841.833610,-1406.391290,2220.617826,-10495.508323
841.833930,-1184.329507,962.267725,-10342.289223
841.834250,-370.102971,-592.164754,-10342.289223
841.834570,-370.102971,-2146.597232,-10418.898773
841.834890,592.164754,-1924.535449,-10189.070123
841.835211,1258.350101,-666.185348,-11031.775171
841.835531,592.164754,1406.391290,-10495.508323
841.835851,-962.267725,2516.700203,-10648.727422
841.836171,-1850.514855,2072.576638,-10418.898773
841.836491,0.000000,1406.391290,-10418.898773
841.836811,1036.288319,0.000000,-10801.946522
841.837131,1998.556043,-962.267725,-9806.022374
841.837451,2738.761985,-962.267725,-10112.460574
841.837772,2590.720797,0.000000,-10955.165621
841.838092,1850.514855,0.000000,-9806.022374
841.838412,2146.597232,74.020594,-9652.803275
841.838732,2220.617826,1110.308913,-9882.631924
841.839052,1406.391290,740.205942,-10112.460574
841.839372,1406.391290,592.164754,-10265.679673
841.839692,2442.679609,-296.082377,-9882.631924
841.840012,2368.659014,-1258.350101,-9576.193725
841.840333,592.164754,-1184.329507,-9806.022374
841.840653,-518.144159,-370.102971,-9269.755526
841.840973,444.123565,666.185348,-9882.631924
841.841293,888.247130,2146.597232,-10342.289223
841.841613,370.102971,2442.679609,-10878.556072
841.841933,74.020594,2294.638420,-10265.679673
841.842253,296.082377,1702.473667,-9959.241474
841.842573,666.185348,592.164754,-10572.117872
841.842894,592.164754,-518.144159,-9806.022374
841.843214,1480.411884,-1554.432478,-10189.070123
841.843534,1480.411884,-592.164754,-10112.460574
841.843854,-740.205942,1184.329507,-10265.679673
841.844174,-1998.556043,2220.617826,-10495.508323
841.844494,-1998.556043,3330.926739,-10265.679673
841.844814,-1406.391290,2812.782580,-10265.679673
841.845134,-222.061783,444.123565,-9806.022374
841.845455,444.123565,-1998.556043,-9576.193725
841.845775,74.020594,-2738.761985,-9729.412825
841.846095,444.123565,-2516.700203,-9882.631924
841.846415,222.061783,-1258.350101,-9652.803275
841.846735,0.000000,1036.288319,-10189.070123
841.847055,-888.247130,2812.782580,-9882.631924
841.847375,-814.226536,3182.885551,-9806.022374
841.847695,888.247130,2812.782580,-10112.460574
841.848016,3108.864956,1036.288319,-10495.508323
841.848336,2294.638420,-1406.391290,-10189.070123
841.848656,1184.329507,-3478.967927,-9729.412825
841.848976,444.123565,-3034.844362,-9576.193725
841.849296,0.000000,0.000000,-10035.851024
841.849616,-666.185348,2960.823768,-10189.070123
841.849936,-814.226536,4441.235652,-10342.289223
841.850256,1332.370696,3701.029710,-10112.460574
841.850577,2886.803174,1110.308913,-10418.898773
841.850897,2960.823768,-1406.391290,-10189.070123
841.851217,2294.638420,-2516.700203,-9806.022374
841.851537,666.185348,-2146.597232,-9882.631924
841.851857,296.082377,-444.123565,-9806.022374
841.852177,592.164754,814.226536,-9806.022374
841.852497,1184.329507,1924.535449,-10342.289223
841.852817,1776.494261,2146.597232,-10265.679673
841.853137,2072.576638,1554.432478,-10342.289223
841.853458,2664.741391,296.082377,-10189.070123
841.853778,2960.823768,-444.123565,-10418.898773
841.854098,2220.617826,-1332.370696,-10342.289223
841.854418,0.000000,-2738.761985,-10035.851024
841.854738,-814.226536,-2516.700203,-9806.022374
841.855058,-888.247130,0.000000,-9882.631924
841.855378,-888.247130,2072.576638,-10725.336972
841.855698,-296.082377,2886.803174,-10725.336972
841.856018,370.102971,2220.617826,-10648.727422
841.856338,222.061783,1628.453072,-10572.117872
841.856658,-814.226536,-444.123565,-10189.070123
841.856978,-222.061783,-2072.576638,-10035.851024
841.857298,0.000000,-2368.659014,-9806.022374
841.857618,148.041188,-1110.308913,-9882.631924
841.857938,0.000000,-148.041188,-10265.679673
841.858259,1110.308913,518.144159,-9959.241474
841.858579,888.247130,1850.514855,-10572.117872
841.858899,888.247130,1702.473667,-10112.460574
841.859219,814.226536,814.226536,-10112.460574
841.859539,1184.329507,0.000000,-9882.631924
841.859859,-222.061783,-1332.370696,-9806.022374
841.860179,-1110.308913,-2146.597232,-9576.193725
841.860499,-1258.350101,-1776.494261,-9729.412825
841.860819,-1258.350101,0.000000,-9882.631924
841.861139,-1480.411884,1184.329507,-10189.070123
841.861459,-814.226536,1850.514855,-9959.241474
841.861779,666.185348,1998.556043,-10189.070123
841.862099,1110.308913,1776.494261,-10342.289223
841.862419,-148.041188,0.000000,-10112.460574
841.862739,0.000000,-1628.453072,-9806.022374
841.863059,666.185348,-1628.453072,-10265.679673
841.863379,296.082377,-888.247130,-10112.460574
841.863699,296.082377,222.061783,-9806.022374
841.864019,1702.473667,1776.494261,-10418.898773
841.864339,1628.453072,2738.761985,-10572.117872
841.864659,222.061783,1998.556043,-10648.727422
841.864979,1184.329507,1184.329507,-10418.898773
841.865299,962.267725,0.000000,-10801.946522
841.865619,-592.164754,-962.267725,-10265.679673
841.865939,-2220.617826,-1110.308913,-9959.241474
841.866259,-962.267725,0.000000,-9882.631924
841.866579,-518.144159,2368.659014,-10495.508323
841.866899,592.164754,5107.421000,-11108.384721
841.867219,0.000000,4441.235652,-11031.775171
841.867539,962.267725,2516.700203,-10189.070123
841.867859,370.102971,888.247130,-10342.289223
841.868179,-370.102971,-1554.432478,-9269.755526
841.868499,-1110.308913,-1998.556043,-9193.145976
841.868819,1480.411884,-2442.679609,-9346.365076
841.869140,2738.761985,-1998.556043,-9269.755526
841.869460,2812.782580,148.041188,-9729.412825
841.869780,1924.535449,2664.741391,-9806.022374
841.870100,2294.638420,3478.967927,-10112.460574
841.870420,2220.617826,3552.988522,-10112.460574
841.870740,2368.659014,1036.288319,-9652.803275
841.871060,1702.473667,-1628.453072,-9346.365076
841.871380,1110.308913,-3552.988522,-9116.536426
841.871700,962.267725,-3849.070898,-9422.974625
841.872020,1110.308913,-2146.597232,-9499.584175
841.872340,1184.329507,1110.308913,-9882.631924
841.872660,1110.308913,3404.947333,-10035.851024
841.872980,148.041188,4145.153275,-10418.898773
841.873300,-444.123565,2368.659014,-9882.631924
841.873620,-518.144159,0.000000,-9576.193725
841.873940,-296.082377,-2294.638420,-9882.631924
841.874260,1628.453072,-3552.988522,-9882.631924
841.874580,3108.864956,-3330.926739,-10342.289223
841.874900,2294.638420,-666.185348,-10189.070123
841.875220,1110.308913,2146.597232,-10878.556072
841.875540,1480.411884,3478.967927,-10801.946522
841.875860,592.164754,3775.050304,-11031.775171
841.876180,74.020594,2146.597232,-10418.898773
841.876500,-666.185348,-592.164754,-10572.117872
841.876820,0.000000,-2294.638420,-10342.289223
841.877140,-296.082377,-2960.823768,-10035.851024
841.877460,-1332.370696,-2294.638420,-10189.070123
841.877780,-962.267725,-888.247130,-9652.803275
841.878100,0.000000,0.000000,-9959.241474
841.878420,74.020594,1332.370696,-10418.898773
841.878740,-296.082377,1184.329507,-10495.508323
841.879060,-444.123565,888.247130,-10189.070123
841.879380,-666.185348,592.164754,-10342.289223
841.879700,-740.205942,-444.123565,-10035.851024
841.880021,-1628.453072,-1924.535449,-9882.631924
841.880341,-296.082377,-3404.947333,-9346.365076
841.880661,1332.370696,-3478.967927,-9576.193725
841.880981,1332.370696,-1776.494261,-9806.022374
841.881301,444.123565,666.185348,-10189.070123
841.881621,444.123565,1924.535449,-9806.022374
841.881941,-222.061783,2886.803174,-9652.803275
841.882261,0.000000,962.267725,-9806.022374
841.882581,296.082377,-1776.494261,-9346.365076
841.882901,444.123565,-2812.782580,-9959.241474
841.883221,1258.350101,-2738.761985,-10035.851024
841.883541,1406.391290,-518.144159,-9576.193725
841.883861,740.205942,1110.308913,-10342.289223
841.884181,-444.123565,2146.597232,-10265.679673
841.884501,-1554.432478,2220.617826,-10878.556072
841.884821,74.020594,962.267725,-11184.994271
841.885141,1776.494261,296.082377,-10648.727422
841.885461,1776.494261,370.102971,-11261.603821
841.885781,1480.411884,962.267725,-10342.289223
841.886101,1332.370696,2442.679609,-10878.556072
841.886421,-518.144159,2960.823768,-10572.117872
841.886741,0.000000,1776.494261,-10342.289223
841.887061,0.000000,370.102971,-10342.289223
841.887381,1110.308913,-962.267725,-9882.631924
841.887701,888.247130,-1776.494261,-9806.022374
841.888021,-222.061783,-148.041188,-10265.679673
841.888341,296.082377,518.144159,-10112.460574
841.888661,74.020594,1406.391290,-10035.851024
841.888981,-296.082377,2368.659014,-9882.631924
841.889301,-370.102971,1850.514855,-9806.022374
841.889621,1258.350101,222.061783,-9346.365076
841.889941,2812.782580,-740.205942,-9499.584175
841.890261,3108.864956,-1406.391290,-9729.412825
841.890581,3034.844362,-1184.329507,-9576.193725
841.890901,1332.370696,0.000000,-9729.412825
841.891222,-740.205942,2072.576638,-9193.145976
841.891542,-1554.432478,2738.761985,-9729.412825
841.891862,-148.041188,3404.947333,-9882.631924
841.892182,666.185348,2516.700203,-10035.851024
841.892502,962.267725,74.020594,-9806.022374
841.892822,444.123565,-1702.473667,-9499.584175
841.893142,1036.288319,-2146.597232,-9882.631924
841.893462,592.164754,296.082377,-9806.022374
841.893782,-666.185348,2516.700203,-10189.070123
841.894102,0.000000,3478.967927,-10495.508323
841.894422,2072.576638,3256.906145,-10418.898773
841.894742,2442.679609,2368.659014,-11568.042020
841.895062,1702.473667,518.144159,-10648.727422
841.895382,962.267725,-444.123565,-10265.679673
841.895702,222.061783,0.000000,-10801.946522
841.896022,-962.267725,444.123565,-10342.289223
841.896342,-962.267725,-666.185348,-10418.898773
841.896662,-296.082377,-148.041188,-9959.241474
841.896982,962.267725,518.144159,-10342.289223
841.897302,1332.370696,1332.370696,-10648.727422
841.897622,1406.391290,1480.411884,-10418.898773
841.897942,370.102971,888.247130,-10189.070123
841.898262,-1036.288319,370.102971,-9882.631924
841.898582,-1184.329507,-1184.329507,-9346.365076
841.898902,-296.082377,-2146.597232,-9806.022374
841.899222,222.061783,-1554.432478,-9806.022374
841.899542,0.000000,-740.205942,-9882.631924
841.899862,962.267725,888.247130,-10035.851024
841.900182,2516.700203,1258.350101,-10035.851024
841.900502,1110.308913,1776.494261,-9882.631924
841.900822,-666.185348,222.061783,-9729.412825
841.901142,-740.205942,-1036.288319,-9882.631924
841.901462,-74.020594,-1998.556043,-9729.412825
841.901782,-518.144159,-2220.617826,-9346.365076
841.902103,740.205942,-1776.494261,-8963.317327
841.902423,2146.597232,-666.185348,-9806.022374
841.902743,1554.432478,814.226536,-9959.241474
841.903063,-222.061783,1184.329507,-10495.508323
841.903383,-296.082377,296.082377,-10035.851024
841.903703,1110.308913,-814.226536,-10342.289223
841.904023,1628.453072,-1924.535449,-10265.679673
841.904343,1480.411884,-1628.453072,-10265.679673
841.904663,1036.288319,-962.267725,-10112.460574
841.904983,148.041188,666.185348,-10418.898773
841.905303,148.041188,1998.556043,-10418.898773
841.905623,592.164754,888.247130,-10495.508323
841.905943,2146.597232,222.061783,-10418.898773
841.906263,1850.514855,-888.247130,-9729.412825
841.906583,1628.453072,-1332.370696,-10265.679673
841.906903,2812.782580,-1110.308913,-10572.117872
841.907223,1998.556043,222.061783,-10648.727422
841.907543,-222.061783,1480.411884,-9959.241474
841.907863,-1480.411884,1702.473667,-9806.022374
841.908183,-962.267725,888.247130,-10189.070123
841.908503,148.041188,0.000000,-10035.851024
841.908823,666.185348,0.000000,-10265.679673
841.909143,1258.350101,444.123565,-10189.070123
841.909463,592.164754,888.247130,-10342.289223
841.909783,148.041188,1406.391290,-10035.851024
841.910103,-518.144159,740.205942,-9806.022374
841.910423,-518.144159,0.000000,-9269.755526
841.910743,370.102971,-148.041188,-9806.022374
841.911063,962.267725,0.000000,-9882.631924
841.911383,1628.453072,296.082377,-9806.022374
841.911703,962.267725,888.247130,-9882.631924
841.912023,-1036.288319,1480.411884,-9806.022374
841.912343,-2664.741391,1036.288319,-9882.631924
841.912663,-3108.864956,222.061783,-9806.022374
841.912984,-1702.473667,0.000000,-10418.898773
841.913304,148.041188,814.226536,-10572.117872
841.913624,444.123565,1850.514855,-10418.898773
841.913944,148.041188,2220.617826,-10801.946522
841.914264,222.061783,2368.659014,-10572.117872
841.914584,740.205942,2220.617826,-10112.460574
841.914904,518.144159,1776.494261,-11491.432470
841.915224,1110.308913,222.061783,-10265.679673
841.915544,1702.473667,518.144159,-10495.508323
841.915864,1110.308913,1406.391290,-10418.898773
841.916184,1924.535449,2294.638420,-10112.460574
841.916504,1924.535449,3256.906145,-10955.165621
841.916824,148.041188,3182.885551,-10495.508323
841.917144,-518.144159,1406.391290,-9806.022374
841.917464,74.020594,296.082377,-9806.022374
841.917784,1702.473667,-444.123565,-9652.803275
841.918104,1406.391290,-888.247130,-9652.803275
841.918424,1110.308913,-1110.308913,-9806.022374
841.918744,2960.823768,74.020594,-9882.631924
841.919064,2590.720797,1480.411884,-10265.679673
841.919384,1776.494261,1406.391290,-9576.193725
841.919704,2146.597232,888.247130,-9959.241474
841.920024,3256.906145,-222.061783,-9729.412825
841.920344,3478.967927,-962.267725,-10572.117872
841.920664,2812.782580,-1850.514855,-10112.460574
841.920984,1702.473667,-1554.432478,-9959.241474
841.921304,-518.144159,-740.205942,-9806.022374
841.921624,-814.226536,814.226536,-9729.412825
841.921944,-444.123565,1924.535449,-10035.851024
841.922264,518.144159,888.247130,-10495.508323
841.922584,592.164754,-666.185348,-10801.946522
841.922904,888.247130,-1554.432478,-10189.070123
841.923224,444.123565,-1332.370696,-10342.289223
841.923544,-666.185348,-592.164754,-10418.898773
841.923864,-888.247130,814.226536,-10648.727422
841.924185,222.061783,1554.432478,-10572.117872
841.924505,1110.308913,1332.370696,-10648.727422
841.924825,0.000000,740.205942,-11568.042020
841.925145,-1850.514855,-296.082377,-10418.898773
841.925465,-1776.494261,-1184.329507,-10112.460574
841.925785,-740.205942,-1258.350101,-10342.289223
841.926105,-814.226536,-888.247130,-8886.707777
841.926425,-1702.473667,-1332.370696,-10035.851024
841.926745,-1554.432478,-888.247130,-10035.851024
841.927065,370.102971,0.000000,-10035.851024
841.927385,962.267725,370.102971,-10418.898773
841.927705,1998.556043,-296.082377,-9729.412825
841.928025,962.267725,-370.102971,-10265.679673
841.928345,74.020594,-592.164754,-10189.070123
841.928665,-1110.308913,-592.164754,-9499.584175
841.928985,0.000000,-592.164754,-10342.289223
841.929305,962.267725,-814.226536,-9806.022374
841.929625,518.144159,-518.144159,-10112.460574
841.929945,74.020594,-148.041188,-10035.851024
841.930265,666.185348,222.061783,-10189.070123
841.930585,592.164754,518.144159,-10112.460574
841.930905,-370.102971,666.185348,-9959.241474
841.931225,-444.123565,-518.144159,-9806.022374
841.931545,444.123565,-1036.288319,-9882.631924
841.931865,1406.391290,-1480.411884,-10112.460574
841.932185,1036.288319,518.144159,-10035.851024
841.932505,1110.308913,1628.453072,-10572.117872
841.932825,1924.535449,2072.576638,-10035.851024
841.933145,1776.494261,2146.597232,-10035.851024
841.933465,1258.350101,1036.288319,-10189.070123
841.933785,740.205942,296.082377,-9882.631924
841.934105,0.000000,74.020594,-10265.679673
841.934425,370.102971,74.020594,-10112.460574
841.934745,1110.308913,74.020594,-9116.536426
841.935066,592.164754,-666.185348,-10189.070123
841.935386,-888.247130,-518.144159,-9959.241474
841.935706,-1332.370696,-296.082377,-9959.241474
841.936026,-148.041188,1184.329507,-10189.070123
841.936346,1110.308913,1924.535449,-9959.241474
841.936666,962.267725,1998.556043,-10189.070123
841.936986,1258.350101,1406.391290,-10495.508323
841.937306,888.247130,1110.308913,-10035.851024
841.937626,370.102971,1332.370696,-10112.460574
841.937946,-592.164754,222.061783,-9806.022374
841.938266,296.082377,222.061783,-9882.631924
841.938586,1702.473667,962.267725,-10035.851024
841.938906,1998.556043,1480.411884,-10648.727422
841.939226,888.247130,2220.617826,-10418.898773
841.939546,0.000000,2664.741391,-10112.460574
841.939866,-1480.411884,2886.803174,-10112.460574
841.940186,-1702.473667,2960.823768,-9806.022374
841.940506,-1110.308913,2220.617826,-9652.803275
841.940826,1036.288319,0.000000,-9729.412825
841.941146,2146.597232,-296.082377,-10112.460574
841.941466,2960.823768,-148.041188,-9959.241474
841.941786,2960.823768,740.205942,-10035.851024
841.942106,1998.556043,2664.741391,-10495.508323
841.942426,814.226536,2738.761985,-10035.851024
841.942746,-296.082377,1628.453072,-9882.631924
841.943066,0.000000,518.144159,-9806.022374
841.943386,444.123565,-740.205942,-10112.460574
841.943706,1480.411884,-740.205942,-10112.460574
841.944026,2442.679609,0.000000,-10495.508323
841.944346,1036.288319,814.226536,-10189.070123
841.944666,-666.185348,1554.432478,-9959.241474
841.944986,-370.102971,1554.432478,-10342.289223
841.945306,1554.432478,1628.453072,-10495.508323
841.945626,1184.329507,666.185348,-10342.289223
841.945947,0.000000,-518.144159,-9959.241474
841.946267,-592.164754,-1110.308913,-9652.803275
841.946587,740.205942,-1332.370696,-9882.631924
841.946907,1110.308913,-222.061783,-10418.898773
841.947227,370.102971,370.102971,-9959.241474
841.947547,0.000000,1554.432478,-11721.261119
841.947867,296.082377,1924.535449,-10189.070123
841.948187,148.041188,962.267725,-10189.070123
841.948507,-296.082377,-444.123565,-9959.241474
841.948827,-148.041188,-518.144159,-9806.022374
841.949147,296.082377,-1184.329507,-10955.165621
841.949467,-370.102971,-1184.329507,-9806.022374
841.949787,-666.185348,-1554.432478,-9499.584175
841.950107,-370.102971,-962.267725,-9882.631924
841.950427,814.226536,-1628.453072,-9882.631924
841.950747,740.205942,0.000000,-10189.070123
841.951067,740.205942,444.123565,-10189.070123
841.951387,1036.288319,814.226536,-10265.679673
841.951707,1184.329507,962.267725,-10342.289223
841.952027,1554.432478,-666.185348,-10342.289223
841.952347,1258.350101,-1628.453072,-9959.241474
841.952667,740.205942,-2146.597232,-10342.289223
841.952987,0.000000,-2590.720797,-10265.679673
841.953307,962.267725,-962.267725,-10189.070123
841.953627,-592.164754,1406.391290,-10572.117872
841.953947,-1332.370696,2590.720797,-10648.727422
841.954267,-1184.329507,1628.453072,-10265.679673
841.954587,148.041188,-444.123565,-10189.070123
841.954908,518.144159,-2590.720797,-10189.070123
841.955228,-370.102971,-2886.803174,-9882.631924
841.955548,-148.041188,-1998.556043,-9806.022374
841.955868,592.164754,370.102971,-10342.289223
841.956188,148.041188,2664.741391,-10342.289223
841.956508,148.041188,2294.638420,-10342.289223
841.956828,1110.308913,962.267725,-10112.460574
841.957148,1480.411884,-666.185348,-10418.898773
841.957468,296.082377,-1480.411884,-9882.631924
841.957789,222.061783,-1406.391290,-10035.851024
841.958109,-222.061783,74.020594,-10189.070123
841.958429,-1036.288319,1406.391290,-9882.631924
841.958749,-1850.514855,1480.411884,-10035.851024
841.959069,-666.185348,518.144159,-10112.460574
841.959389,222.061783,-148.041188,-9959.241474
841.959709,-444.123565,-592.164754,-10112.460574
841.960029,-148.041188,-592.164754,-9806.022374
841.960350,1110.308913,148.041188,-9959.241474
841.960670,1998.556043,1332.370696,-10112.460574
841.960990,1258.350101,1628.453072,-10189.070123
841.961310,1184.329507,962.267725,-9959.241474
841.961630,2368.659014,666.185348,-10342.289223
841.961950,1702.473667,222.061783,-10265.679673
841.962270,666.185348,444.123565,-10342.289223
841.962590,444.123565,592.164754,-9806.022374
841.962911,1332.370696,1554.432478,-10189.070123
841.963231,1110.308913,2072.576638,-9806.022374
841.963551,74.020594,1850.514855,-10265.679673
841.963871,222.061783,1628.453072,-9959.241474
841.964191,296.082377,296.082377,-9882.631924
841.964511,222.061783,296.082377,-10035.851024
841.964831,1258.350101,0.000000,-9959.241474
841.965151,1628.453072,814.226536,-9806.022374
841.965472,592.164754,2294.638420,-10112.460574
841.965792,-444.123565,2146.597232,-9882.631924
841.966112,148.041188,1036.288319,-9116.536426
841.966432,2368.659014,-370.102971,-10418.898773
841.966752,2146.597232,-1554.432478,-10035.851024
841.967072,2294.638420,-296.082377,-9806.022374
841.967392,1406.391290,74.020594,-9882.631924
841.967712,222.061783,1184.329507,-9729.412825
841.968033,-1184.329507,1184.329507,-9959.241474
841.968353,0.000000,74.020594,-10189.070123
841.968673,-296.082377,0.000000,-9882.631924
841.968993,0.000000,-222.061783,-11414.822920
841.969313,-740.205942,592.164754,-9806.022374
841.969633,0.000000,1184.329507,-10189.070123
841.969953,0.000000,1850.514855,-10342.289223
841.970273,74.020594,1406.391290,-8963.317327
841.970594,1406.391290,0.000000,-10189.070123
841.970914,2294.638420,-1480.411884,-10035.851024
841.971234,2294.638420,-1110.308913,-10035.851024
841.971554,1332.370696,296.082377,-10342.289223
841.971874,222.061783,1110.308913,-9576.193725
841.972194,740.205942,2368.659014,-10418.898773
841.972514,74.020594,2590.720797,-10418.898773
841.972834,-370.102971,1480.411884,-10035.851024
841.973154,888.247130,-296.082377,-9959.241474
841.973475,1702.473667,-2072.576638,-10265.679673
841.973795,1480.411884,-1776.494261,-10265.679673
841.974115,666.185348,-1480.411884,-10035.851024
841.974435,1110.308913,888.247130,-9882.631924
841.974755,-148.041188,2072.576638,-10035.851024
841.975075,296.082377,1924.535449,-10112.460574
841.975395,1258.350101,740.205942,-10189.070123
841.975715,1924.535449,0.000000,-10572.117872
841.976036,2072.576638,-1332.370696,-10189.070123
841.976356,1554.432478,-1998.556043,-9499.584175
841.976676,-296.082377,-1258.350101,-10035.851024
841.976996,-1184.329507,296.082377,-9806.022374
841.977316,-888.247130,1480.411884,-10112.460574
841.977636,148.041188,1480.411884,-10265.679673
841.977956,444.123565,1332.370696,-10342.289223
841.978276,222.061783,0.000000,-10495.508323
841.978597,-592.164754,-1036.288319,-9806.022374
841.978917,296.082377,-962.267725,-10955.165621
841.979237,-296.082377,0.000000,-10265.679673
841.979557,-666.185348,0.000000,-9959.241474
841.979877,-740.205942,-296.082377,-9806.022374
841.980197,148.041188,-592.164754,-9806.022374
841.980517,74.020594,-370.102971,-10648.727422
841.980837,222.061783,222.061783,-10418.898773
841.981158,0.000000,740.205942,-9959.241474
841.981478,222.061783,740.205942,-10035.851024
841.981798,-148.041188,148.041188,-9652.803275
841.982118,-370.102971,-1776.494261,-9882.631924
841.982438,444.123565,-1998.556043,-10112.460574
841.982758,592.164754,-1110.308913,-10495.508323
841.983078,0.000000,962.267725,-11031.775171
841.983398,222.061783,1406.391290,-10648.727422
841.983719,666.185348,1924.535449,-10418.898773
841.984039,-296.082377,1924.535449,-10495.508323
841.984359,-962.267725,444.123565,-9882.631924
841.984679,1258.350101,-1184.329507,-10495.508323
841.984999,2886.803174,-1554.432478,-9882.631924
841.985319,2960.823768,-1406.391290,-10418.898773
841.985639,1628.453072,-814.226536,-9652.803275
841.985959,296.082377,1258.350101,-10112.460574
841.986280,-740.205942,3701.029710,-10495.508323
841.986600,-1258.350101,4589.276840,-10418.898773
841.986920,-222.061783,4293.194464,-10265.679673
841.987240,1702.473667,2072.576638,-10265.679673
841.987560,2368.659014,-740.205942,-10265.679673
841.987880,2590.720797,-3108.864956,-10035.851024
841.988200,1332.370696,-2368.659014,-9652.803275
841.988520,0.000000,-296.082377,-9806.022374
841.988840,-444.123565,1776.494261,-9116.536426
841.989161,444.123565,2590.720797,-9882.631924
841.989481,1702.473667,2072.576638,-10189.070123
841.989801,1554.432478,1110.308913,-10495.508323
841.990121,1702.473667,-666.185348,-10112.460574
841.990441,1554.432478,-814.226536,-9882.631924
841.990761,666.185348,0.000000,-9806.022374
841.991081,-888.247130,148.041188,-9882.631924
841.991401,-1184.329507,518.144159,-9806.022374
841.991722,-148.041188,592.164754,-9576.193725
841.992042,0.000000,-148.041188,-10189.070123
841.992362,740.205942,-296.082377,-9882.631924
841.992682,1258.350101,370.102971,-10035.851024
841.993002,1480.411884,1702.473667,-10342.289223
841.993322,1036.288319,1924.535449,-10112.460574
841.993642,222.061783,1036.288319,-10265.679673
841.993962,1036.288319,74.020594,-10189.070123
841.994283,1258.350101,-1036.288319,-10189.070123
841.994603,2368.659014,-1776.494261,-9959.241474
841.994923,962.267725,-592.164754,-9959.241474
841.995243,0.000000,962.267725,-10418.898773
841.995563,-666.185348,1702.473667,-10112.460574
841.995883,-1258.350101,1554.432478,-9882.631924
841.996203,-814.226536,0.000000,-9806.022374
841.996523,888.247130,-1036.288319,-10035.851024
841.996844,1480.411884,-2220.617826,-10189.070123
841.997164,0.000000,-2368.659014,-9576.193725
841.997484,-222.061783,1184.329507,-9652.803275
841.997804,148.041188,2294.638420,-10418.898773
841.998124,0.000000,3552.988522,-9959.241474
841.998444,1480.411884,3034.844362,-10572.117872
841.998764,2664.741391,1110.308913,-10189.070123
841.999084,2072.576638,-1332.370696,-10265.679673
841.999405,0.000000,-2960.823768,-9652.803275
841.999725,74.020594,-2368.659014,-9576.193725
842.000045,-1480.411884,444.123565,-9806.022374
842.000365,-3404.947333,2072.576638,-9269.755526
842.000685,-2516.700203,2368.659014,-9499.584175
842.001005,-296.082377,296.082377,-9882.631924
842.001325,148.041188,-1480.411884,-10265.679673
842.001645,1110.308913,-2738.761985,-9882.631924
842.001966,1998.556043,-1480.411884,-10035.851024
842.002286,1850.514855,1184.329507,-10112.460574
842.002606,518.144159,2738.761985,-10342.289223
842.002926,666.185348,1628.453072,-10035.851024
842.003246,370.102971,-666.185348,-11108.384721
842.003566,1924.535449,-2220.617826,-10189.070123
842.003886,1110.308913,-1406.391290,-10265.679673
842.004206,888.247130,888.247130,-10572.117872
842.004526,74.020594,2072.576638,-10572.117872
842.004847,-1184.329507,2368.659014,-10648.727422
842.005167,-1702.473667,1480.411884,-9959.241474
842.005487,-592.164754,-1184.329507,-10265.679673
842.005807,814.226536,-1258.350101,-10342.289223
842.006127,962.267725,-1554.432478,-10801.946522
842.006447,962.267725,0.000000,-10572.117872
842.006767,1924.535449,1554.432478,-10725.336972
842.007087,1110.308913,2738.761985,-10725.336972
842.007408,-888.247130,2368.659014,-10342.289223
842.007728,296.082377,962.267725,-10342.289223
842.008048,2146.597232,666.185348,-10189.070123
842.008368,1628.453072,-740.205942,-10418.898773
842.008688,1480.411884,-1258.350101,-9959.241474
842.009008,1554.432478,0.000000,-10035.851024
842.009328,2368.659014,222.061783,-10112.460574
842.009648,0.000000,1480.411884,-9806.022374
842.009969,-1036.288319,2368.659014,-9959.241474
842.010289,222.061783,1406.391290,-9806.022374
842.010609,444.123565,888.247130,-9422.974625
842.010929,296.082377,74.020594,-10112.460574
842.011249,592.164754,-888.247130,-9422.974625
842.011569,518.144159,222.061783,-9422.974625
842.011889,0.000000,962.267725,-10189.070123
842.012209,-370.102971,1702.473667,-8963.317327
842.012530,1406.391290,1110.308913,-10189.070123
842.012850,3330.926739,518.144159,-9652.803275
842.013170,2220.617826,-814.226536,-9729.412825
842.013490,2220.617826,-296.082377,-10112.460574
842.013810,962.267725,74.020594,-10265.679673
842.014130,-740.205942,888.247130,-10112.460574
842.014450,-1184.329507,2220.617826,-9729.412825
842.014770,296.082377,888.247130,-10418.898773
842.015091,1406.391290,740.205942,-10495.508323
842.015411,1702.473667,222.061783,-11108.384721
842.015731,222.061783,444.123565,-10418.898773
842.016051,222.061783,1036.288319,-10572.117872
842.016371,-296.082377,1628.453072,-10342.289223
842.016691,-666.185348,1924.535449,-10265.679673
842.017011,-222.061783,296.082377,-10189.070123
842.017331,962.267725,0.000000,-10189.070123
842.017652,2368.659014,148.041188,-10572.117872
842.017972,1924.535449,1258.350101,-10495.508323
842.018292,1924.535449,1776.494261,-10801.946522
842.018612,740.205942,1850.514855,-10648.727422
842.018932,-1406.391290,1702.473667,-10189.070123
842.019252,-1850.514855,-296.082377,-9576.193725
842.019572,0.000000,-1184.329507,-9652.803275
842.019892,666.185348,-1406.391290,-9882.631924
842.020212,370.102971,-1184.329507,-9806.022374
842.020533,-592.164754,0.000000,-9652.803275
842.020853,74.020594,740.205942,-10035.851024
842.021173,814.226536,740.205942,-9806.022374
842.021493,0.000000,148.041188,-9499.584175
842.021813,-296.082377,-296.082377,-9652.803275
842.022133,-370.102971,-1184.329507,-9652.803275
842.022453,1184.329507,-2368.659014,-9729.412825
842.022773,2072.576638,-2220.617826,-9729.412825
842.023094,2442.679609,-1258.350101,-10265.679673
842.023414,888.247130,0.000000,-9882.631924
842.023734,0.000000,1258.350101,-10189.070123
842.024054,740.205942,1332.370696,-10189.070123
842.024374,962.267725,148.041188,-10342.289223
842.024694,2072.576638,-518.144159,-10342.289223
842.025014,2516.700203,-740.205942,-10725.336972
842.025334,1998.556043,74.020594,-10648.727422
842.025655,0.000000,2220.617826,-10955.165621
842.025975,-1036.288319,3627.009116,-11108.384721
842.026295,-148.041188,2072.576638,-10572.117872
842.026615,814.226536,740.205942,-10418.898773
842.026935,740.205942,-1554.432478,-10342.289223
842.027255,666.185348,-2812.782580,-10112.460574
842.027575,1628.453072,-2146.597232,-10418.898773
842.027895,0.000000,-962.267725,-10265.679673
842.028216,-3108.864956,888.247130,-10112.460574
842.028536,-3775.050304,1258.350101,-9959.241474
842.028856,-222.061783,1258.350101,-10112.460574
842.029176,962.267725,740.205942,-10572.117872
842.029496,962.267725,148.041188,-10495.508323
842.029816,74.020594,-296.082377,-10265.679673
842.030136,-1554.432478,-1184.329507,-9806.022374
842.030456,-2516.700203,-592.164754,-9652.803275
842.030777,-2738.761985,0.000000,-9499.584175
842.031097,148.041188,148.041188,-9806.022374
842.031417,2146.597232,-222.061783,-9882.631924
842.031737,1776.494261,370.102971,-10495.508323
842.032057,962.267725,296.082377,-9729.412825
842.032377,370.102971,1110.308913,-9882.631924
842.032697,-1110.308913,1480.411884,-9806.022374
842.033017,-1184.329507,1628.453072,-9652.803275
842.033337,-1480.411884,1480.411884,-9652.803275
842.033658,1332.370696,1110.308913,-9959.241474
842.033978,2368.659014,666.185348,-10265.679673
842.034298,2294.638420,74.020594,-10035.851024
842.034618,1776.494261,444.123565,-10189.070123
842.034938,814.226536,1480.411884,-10035.851024
842.035258,-296.082377,2590.720797,-10265.679673
842.035578,-296.082377,2738.761985,-10418.898773
842.035898,1258.350101,1406.391290,-10955.165621
842.036219,2442.679609,-518.144159,-10801.946522
842.036539,2590.720797,-1480.411884,-10265.679673
842.036859,2442.679609,0.000000,-10725.336972
842.037179,592.164754,2294.638420,-10495.508323
842.037499,-518.144159,3404.947333,-10725.336972
842.037819,518.144159,3404.947333,-10418.898773
842.038139,1924.535449,1332.370696,-10189.070123
842.038459,1850.514855,-1702.473667,-10035.851024
842.038780,1406.391290,-2812.782580,-10035.851024
842.039100,1702.473667,-1998.556043,-9882.631924
842.039420,814.226536,-370.102971,-10035.851024
842.039740,-148.041188,2072.576638,-9959.241474
842.040060,-666.185348,2886.803174,-9806.022374
842.040380,1036.288319,1776.494261,-10495.508323
842.040700,1850.514855,592.164754,-9806.022374
842.041020,2368.659014,-1628.453072,-10112.460574
842.041341,1850.514855,-1702.473667,-9806.022374
842.041661,2220.617826,-2516.700203,-9576.193725
842.041981,370.102971,-222.061783,-9729.412825
842.042301,-888.247130,592.164754,-9499.584175
842.042621,-740.205942,1110.308913,-9576.193725
842.042941,444.123565,370.102971,-10342.289223
842.043261,1702.473667,-148.041188,-9806.022374
842.043581,2294.638420,-740.205942,-10342.289223
842.043902,666.185348,-518.144159,-10189.070123
842.044222,-666.185348,518.144159,-9882.631924
842.044542,-1924.535449,1332.370696,-9959.241474
842.044862,-1406.391290,444.123565,-9959.241474
842.045182,666.185348,222.061783,-10189.070123
842.045502,1406.391290,-148.041188,-10418.898773
842.045822,1184.329507,0.000000,-9882.631924
842.046142,1258.350101,148.041188,-10495.508323
842.046463,888.247130,0.000000,-10418.898773
842.046783,-296.082377,0.000000,-9882.631924
842.047103,-592.164754,0.000000,-10112.460574
842.047423,74.020594,-370.102971,-10112.460574
842.047743,888.247130,0.000000,-10342.289223
842.048063,-444.123565,370.102971,-10342.289223
842.048383,74.020594,296.082377,-10955.165621
842.048703,222.061783,592.164754,-9959.241474
842.049023,-814.226536,444.123565,-10189.070123
842.049344,-1554.432478,148.041188,-10035.851024
842.049664,740.205942,-148.041188,-10112.460574
842.049984,1702.473667,222.061783,-10572.117872
842.050304,1776.494261,-814.226536,-10342.289223
842.050624,740.205942,0.000000,-9959.241474
842.050944,-444.123565,1332.370696,-10495.508323
842.051264,-1628.453072,1628.453072,-10189.070123
842.051584,-1998.556043,1406.391290,-9959.241474
842.051905,-1258.350101,-666.185348,-9422.974625
842.052225,444.123565,-1628.453072,-9806.022374
842.052545,814.226536,-2368.659014,-9652.803275
842.052865,518.144159,-1776.494261,-9882.631924
842.053185,592.164754,-222.061783,-9499.584175
842.053505,740.205942,1850.514855,-9959.241474
842.053825,1480.411884,1702.473667,-10112.460574
842.054145,2664.741391,962.267725,-10265.679673
842.054466,2072.576638,444.123565,-9959.241474
842.054786,1628.453072,-148.041188,-10648.727422
842.055106,888.247130,-148.041188,-9882.631924
842.055426,1924.535449,666.185348,-10572.117872
842.055746,1776.494261,1628.453072,-10265.679673
842.056066,0.000000,1924.535449,-10342.289223
842.056386,-518.144159,888.247130,-10112.460574
842.056706,1406.391290,296.082377,-10035.851024
842.057027,1924.535449,-296.082377,-10189.070123
842.057347,888.247130,444.123565,-11338.213370
842.057667,148.041188,1184.329507,-10265.679673
842.057987,-296.082377,2146.597232,-10342.289223
842.058307,-1406.391290,2072.576638,-9806.022374
842.058627,-1184.329507,1776.494261,-9652.803275
842.058947,1406.391290,370.102971,-9806.022374
842.059268,2516.700203,-518.144159,-10035.851024
842.059588,2442.679609,-518.144159,-9882.631924
842.059908,1850.514855,-592.164754,-9882.631924
842.060228,1406.391290,74.020594,-9959.241474
842.060548,296.082377,1332.370696,-10035.851024
842.060868,-222.061783,1924.535449,-10189.070123
842.061188,222.061783,1998.556043,-10035.851024
842.061509,1258.350101,1110.308913,-10495.508323
842.061829,1110.308913,-148.041188,-9806.022374
842.062149,1110.308913,-888.247130,-10418.898773
842.062469,222.061783,-1036.288319,-10112.460574
842.062789,-1924.535449,0.000000,-10035.851024
842.063109,-2516.700203,740.205942,-9959.241474
842.063429,-1554.432478,1702.473667,-9729.412825
842.063750,444.123565,1332.370696,-10035.851024
842.064070,1110.308913,740.205942,-10648.727422
842.064390,1850.514855,-1776.494261,-10112.460574
842.064710,1924.535449,-1628.453072,-10418.898773
842.065030,814.226536,0.000000,-10112.460574
842.065350,-222.061783,444.123565,-10418.898773
842.065670,-296.082377,518.144159,-9576.193725
842.065991,148.041188,1036.288319,-10418.898773
842.066311,74.020594,444.123565,-10112.460574
842.066631,222.061783,-666.185348,-9882.631924
842.066951,1332.370696,0.000000,-9806.022374
842.067271,1628.453072,370.102971,-10035.851024
842.067591,1036.288319,370.102971,-10189.070123
842.067911,-740.205942,-148.041188,-9729.412825
842.068232,-888.247130,-1258.350101,-9882.631924
842.068552,-222.061783,-1184.329507,-10035.851024
842.068872,-814.226536,0.000000,-9576.193725
842.069192,296.082377,0.000000,-9806.022374
842.069512,1036.288319,592.164754,-10035.851024
842.069832,1110.308913,666.185348,-10112.460574
842.070152,666.185348,0.000000,-8886.707777
842.070473,2368.659014,-1184.329507,-9959.241474
842.070793,2294.638420,-962.267725,-10112.460574
842.071113,74.020594,-740.205942,-10189.070123
842.071433,-444.123565,-148.041188,-9806.022374
842.071753,-740.205942,74.020594,-10648.727422
842.072073,-222.061783,592.164754,-10418.898773
842.072393,-962.267725,962.267725,-10342.289223
842.072713,370.102971,1702.473667,-10342.289223
842.073034,1776.494261,1110.308913,-10189.070123
842.073354,1110.308913,0.000000,-10648.727422
842.073674,592.164754,-1184.329507,-9806.022374
842.073994,1036.288319,-1258.350101,-10265.679673
842.074314,-814.226536,-518.144159,-9422.974625
842.074634,-1258.350101,1332.370696,-10189.070123
842.074954,-1184.329507,1184.329507,-9882.631924
842.075275,296.082377,666.185348,-10265.679673
842.075595,962.267725,370.102971,-9806.022374
842.075915,444.123565,-1036.288319,-10112.460574
842.076235,222.061783,-1406.391290,-9576.193725
842.076555,148.041188,-148.041188,-10342.289223
842.076875,-1110.308913,962.267725,-9806.022374
842.077195,-1850.514855,1406.391290,-9882.631924
842.077516,0.000000,222.061783,-9806.022374
842.077836,1998.556043,74.020594,-9882.631924
842.078156,1776.494261,148.041188,-10112.460574
842.078476,2590.720797,1776.494261,-9959.241474
842.078796,2146.597232,3182.885551,-10265.679673
842.079116,-444.123565,2664.741391,-9882.631924
842.079436,-444.123565,740.205942,-9882.631924
842.079757,1036.288319,-1776.494261,-9422.974625
842.080077,1924.535449,-1776.494261,-9193.145976
842.080397,962.267725,-962.267725,-9269.755526
842.080717,1332.370696,1184.329507,-10112.460574
842.081037,2368.659014,2886.803174,-10265.679673
842.081357,1776.494261,4145.153275,-10265.679673
842.081677,740.205942,3849.070898,-10648.727422
842.081998,592.164754,1628.453072,-9729.412825
842.082318,2220.617826,0.000000,-9959.241474
842.082638,2442.679609,74.020594,-9882.631924
842.082958,1480.411884,-1480.411884,-11261.603821
842.083278,1998.556043,-370.102971,-10725.336972
842.083598,0.000000,444.123565,-9806.022374
842.083918,-1110.308913,2220.617826,-10418.898773
842.084239,-1332.370696,2664.741391,-10035.851024
842.084559,-296.082377,1702.473667,-10265.679673
842.084879,592.164754,1184.329507,-10725.336972
842.085199,1776.494261,-666.185348,-10342.289223
842.085519,2664.741391,-1036.288319,-10112.460574
842.085839,2368.659014,-1110.308913,-10648.727422
842.086159,74.020594,1776.494261,-10495.508323
842.086480,-666.185348,2294.638420,-10572.117872
842.086800,1554.432478,2516.700203,-10418.898773
842.087120,2072.576638,962.267725,-10342.289223
842.087440,1702.473667,-370.102971,-10648.727422
842.087760,666.185348,-1110.308913,-10035.851024
842.088080,-444.123565,-296.082377,-10112.460574
842.088400,-1554.432478,148.041188,-9882.631924
842.088721,-2886.803174,-370.102971,-9729.412825
842.089041,-1332.370696,-296.082377,-9806.022374
842.089361,222.061783,-666.185348,-10112.460574
842.089681,518.144159,0.000000,-9959.241474
842.090001,592.164754,-370.102971,-9806.022374
842.090321,518.144159,518.144159,-9959.241474
842.090641,666.185348,296.082377,-9652.803275
842.090962,1332.370696,-814.226536,-9882.631924
842.091282,1332.370696,-2220.617826,-9576.193725
842.091602,1258.350101,-2294.638420,-9882.631924
842.091922,222.061783,-1554.432478,-9652.803275
842.092242,-962.267725,0.000000,-10035.851024
842.092562,-148.041188,1036.288319,-10035.851024
842.092882,-1036.288319,962.267725,-9959.241474
842.093203,-1998.556043,-296.082377,-9806.022374
842.093523,0.000000,-1480.411884,-10342.289223
842.093843,1924.535449,-1184.329507,-10342.289223
842.094163,1554.432478,-1776.494261,-10265.679673
842.094483,740.205942,-1110.308913,-9652.803275
842.094803,-814.226536,-888.247130,-10418.898773
842.095123,-1036.288319,-518.144159,-10418.898773
842.095444,-1036.288319,1110.308913,-10265.679673
842.095764,-666.185348,1924.535449,-10265.679673
842.096084,444.123565,1184.329507,-10418.898773
842.096404,1184.329507,444.123565,-10955.165621
842.096724,444.123565,-444.123565,-10801.946522
842.097044,814.226536,-1850.514855,-10495.508323
842.097364,296.082377,-1332.370696,-10112.460574
842.097685,-592.164754,-444.123565,-10342.289223
842.098005,296.082377,1628.453072,-10495.508323
842.098325,1258.350101,1998.556043,-10572.117872
842.098645,0.000000,814.226536,-11491.432470
842.098965,-666.185348,-666.185348,-9959.241474
842.099285,222.061783,-2220.617826,-10112.460574
842.099605,1258.350101,-2146.597232,-9882.631924
842.099925,888.247130,-444.123565,-9959.241474
842.100246,-592.164754,518.144159,-9729.412825
842.100566,518.144159,1110.308913,-10418.898773
842.100886,1850.514855,888.247130,-9959.241474
842.101206,1776.494261,592.164754,-10342.289223
842.101526,1480.411884,1036.288319,-9346.365076
842.101846,1702.473667,1554.432478,-10495.508323
842.102166,2146.597232,2072.576638,-10112.460574
842.102487,0.000000,1628.453072,-9806.022374
842.102807,-592.164754,370.102971,-9729.412825
842.103127,962.267725,0.000000,-9729.412825
842.103447,1332.370696,666.185348,-9652.803275
842.103767,296.082377,1480.411884,-9959.241474
842.104087,1184.329507,2072.576638,-9652.803275
842.104407,1036.288319,3552.988522,-10189.070123
842.104728,74.020594,1702.473667,-9959.241474
842.105048,518.144159,1184.329507,-9422.974625
842.105368,2072.576638,592.164754,-9806.022374
842.105688,2590.720797,-518.144159,-9806.022374
842.106008,2146.597232,-1184.329507,-9806.022374
842.106328,1332.370696,-888.247130,-9806.022374
842.106648,1184.329507,1184.329507,-9806.022374
842.106969,222.061783,3775.050304,-10035.851024
842.107289,444.123565,3997.112087,-11644.651570
842.107609,1184.329507,2146.597232,-10572.117872
842.107929,1998.556043,0.000000,-10418.898773
842.108249,962.267725,-2146.597232,-9499.584175
842.108569,888.247130,-1110.308913,-10189.070123
842.108889,592.164754,518.144159,-10648.727422
842.109210,444.123565,2072.576638,-10725.336972
842.109530,-444.123565,2146.597232,-9959.241474
842.109850,-1110.308913,444.123565,-10189.070123
842.110170,-518.144159,0.000000,-10189.070123
842.110490,-1036.288319,0.000000,-9882.631924
842.110810,370.102971,444.123565,-10189.070123
842.111130,1554.432478,814.226536,-10035.851024
842.111451,2146.597232,148.041188,-10342.289223
842.111771,666.185348,0.000000,-9652.803275
842.112091,-962.267725,-444.123565,-9729.412825
842.112411,-296.082377,-518.144159,-9882.631924
842.112731,-592.164754,-444.123565,-9806.022374
842.113051,666.185348,-444.123565,-9806.022374
842.113371,1554.432478,-148.041188,-9959.241474
842.113692,814.226536,-222.061783,-10035.851024
842.114012,0.000000,74.020594,-9882.631924
842.114332,-1924.535449,-296.082377,-9576.193725
842.114652,0.000000,-1628.453072,-10112.460574
842.114972,148.041188,-1776.494261,-9882.631924
842.115292,888.247130,-1258.350101,-10112.460574
842.115612,1184.329507,-1036.288319,-10112.460574
842.115933,1332.370696,370.102971,-10725.336972
842.116253,74.020594,1332.370696,-10648.727422
842.116573,74.020594,518.144159,-10189.070123
842.116893,1110.308913,-1184.329507,-10112.460574
842.117213,1332.370696,-2072.576638,-10725.336972
842.117533,0.000000,-1628.453072,-10878.556072
842.117853,-1036.288319,-1702.473667,-10189.070123
842.118174,740.205942,666.185348,-10648.727422
842.118494,148.041188,1702.473667,-9729.412825
842.118814,518.144159,1998.556043,-10035.851024
842.119134,1258.350101,1480.411884,-10418.898773
842.119454,2146.597232,-444.123565,-10572.117872
842.119774,1776.494261,-1998.556043,-10342.289223
842.120094,1776.494261,-2516.700203,-9806.022374
842.120415,0.000000,-1110.308913,-9806.022374
842.120735,-666.185348,592.164754,-10189.070123
842.121055,-1776.494261,1554.432478,-9729.412825
842.121375,-1554.432478,2220.617826,-9729.412825
842.121695,74.020594,1406.391290,-10189.070123
842.122015,444.123565,148.041188,-10265.679673
842.122335,740.205942,-222.061783,-10112.460574
842.122656,2368.659014,-1258.350101,-9882.631924
842.122976,370.102971,-740.205942,-10035.851024
842.123296,-1628.453072,0.000000,-9269.755526
842.123616,-1480.411884,-518.144159,-9652.803275
842.123936,1998.556043,592.164754,-10112.460574
842.124256,1850.514855,962.267725,-10265.679673
842.124576,1406.391290,148.041188,-10189.070123
842.124897,-296.082377,74.020594,-9959.241474
842.125217,-296.082377,2072.576638,-10035.851024
842.125537,-740.205942,1702.473667,-10112.460574
842.125857,0.000000,666.185348,-10035.851024
842.126177,296.082377,-962.267725,-9959.241474
842.126497,962.267725,-1480.411884,-10189.070123
842.126817,1554.432478,-592.164754,-10035.851024
842.127138,2368.659014,1702.473667,-10265.679673
842.127458,518.144159,3849.070898,-10572.117872
842.127778,-666.185348,3627.009116,-10878.556072
842.128098,-1258.350101,2368.659014,-9729.412825
842.128418,-370.102971,740.205942,-9882.631924
842.128738,1776.494261,0.000000,-10418.898773
842.129058,1110.308913,-148.041188,-10189.070123
842.129378,2590.720797,222.061783,-10189.070123
842.129699,3108.864956,2590.720797,-10112.460574
842.130019,1036.288319,3849.070898,-9806.022374
842.130339,-370.102971,2294.638420,-9806.022374
842.130659,-444.123565,740.205942,-9346.365076
842.130979,814.226536,-444.123565,-10112.460574
842.131299,1924.535449,-1628.453072,-10265.679673
842.131619,888.247130,-1406.391290,-9806.022374
842.131940,592.164754,0.000000,-9729.412825
842.132260,444.123565,2368.659014,-9959.241474
842.132580,-296.082377,3627.009116,-9959.241474
842.132900,-518.144159,3478.967927,-9806.022374
842.133220,444.123565,370.102971,-10189.070123
842.133540,1110.308913,-2294.638420,-10265.679673
842.133860,1036.288319,-3256.906145,-9882.631924
842.134181,1332.370696,-2516.700203,-10189.070123
842.134501,518.144159,1036.288319,-10265.679673
842.134821,0.000000,3256.906145,-10495.508323
842.135141,74.020594,3404.947333,-10418.898773
842.135461,1036.288319,2664.741391,-10495.508323
842.135781,592.164754,444.123565,-10495.508323
842.136101,148.041188,-1258.350101,-10342.289223
842.136422,370.102971,-1924.535449,-10112.460574
842.136742,888.247130,-2368.659014,-10418.898773
842.137062,370.102971,-1628.453072,-9806.022374
842.137382,-444.123565,-666.185348,-10189.070123
842.137702,0.000000,222.061783,-10342.289223
842.138022,666.185348,1480.411884,-10418.898773
842.138342,962.267725,1628.453072,-10648.727422
842.138663,814.226536,592.164754,-9652.803275
842.138983,-296.082377,148.041188,-9806.022374
842.139303,-962.267725,-962.267725,-9806.022374
842.139623,-222.061783,-1332.370696,-9652.803275
842.139943,814.226536,-2442.679609,-9729.412825
842.140263,1850.514855,-2146.597232,-9499.584175
842.140583,592.164754,-1110.308913,-9882.631924
842.140904,740.205942,-518.144159,-9806.022374
842.141224,592.164754,740.205942,-9652.803275
842.141544,-1850.514855,1332.370696,-9806.022374
842.141864,-2664.741391,1554.432478,-9806.022374
842.142184,-1258.350101,-740.205942,-10189.070123
842.142504,2220.617826,-1924.535449,-10035.851024
842.142824,2516.700203,-3108.864956,-9959.241474
842.143145,1406.391290,-1406.391290,-9882.631924
842.143465,222.061783,0.000000,-10418.898773
842.143785,-740.205942,1998.556043,-10418.898773
842.144105,-1628.453072,2738.761985,-10418.898773
842.144425,-1702.473667,2664.741391,-10342.289223
842.144745,-814.226536,666.185348,-10265.679673
842.145065,1480.411884,-1110.308913,-10955.165621
842.145386,1332.370696,-1554.432478,-10572.117872
842.145706,1036.288319,-1332.370696,-10189.070123
842.146026,666.185348,1258.350101,-10112.460574
842.146346,-444.123565,2516.700203,-10418.898773
842.146666,-1184.329507,3404.947333,-9959.241474
842.146986,296.082377,2664.741391,-10572.117872
842.147306,1406.391290,1702.473667,-10342.289223
842.147627,1776.494261,74.020594,-10265.679673
842.147947,2072.576638,-740.205942,-10265.679673
842.148267,2442.679609,-444.123565,-10112.460574
842.148587,1628.453072,-296.082377,-9269.755526
842.148907,74.020594,1702.473667,-9729.412825
842.149227,-1406.391290,2220.617826,-9652.803275
842.149547,0.000000,3034.844362,-10342.289223
842.149868,74.020594,2738.761985,-10035.851024
842.150188,1850.514855,1480.411884,-9959.241474
842.150508,3552.988522,74.020594,-9806.022374
842.150828,1776.494261,0.000000,-9806.022374
842.151148,-296.082377,444.123565,-9576.193725
842.151468,814.226536,666.185348,-9269.755526
842.151788,1924.535449,370.102971,-9499.584175
842.152109,2738.761985,222.061783,-9806.022374
842.152429,1554.432478,740.205942,-9499.584175
842.152749,1776.494261,1776.494261,-8886.707777
842.153069,2516.700203,2812.782580,-10495.508323
842.153389,1110.308913,2886.803174,-9959.241474
842.153709,814.226536,592.164754,-10035.851024
842.154029,962.267725,-1258.350101,-9576.193725
842.154350,1850.514855,-1776.494261,-10112.460574
842.154670,888.247130,-1776.494261,-9882.631924
842.154990,518.144159,592.164754,-10265.679673
842.155310,-148.041188,2442.679609,-10418.898773
842.155630,-2220.617826,2812.782580,-10418.898773
842.155950,-962.267725,1110.308913,-10572.117872
842.156270,592.164754,-666.185348,-10418.898773
842.156590,370.102971,-1036.288319,-10112.460574
842.156911,0.000000,-962.267725,-10342.289223
842.157231,-1628.453072,-1110.308913,-9959.241474
842.157551,-370.102971,-888.247130,-10418.898773
842.157871,-296.082377,-1110.308913,-9882.631924
842.158191,370.102971,-740.205942,-10112.460574
842.158511,1998.556043,-518.144159,-9882.631924
842.158831,3552.988522,962.267725,-10725.336972
842.159152,1036.288319,1406.391290,-10342.289223
842.159472,-370.102971,1184.329507,-10342.289223
842.159792,-592.164754,-148.041188,-9959.241474
842.160112,-740.205942,-2516.700203,-9652.803275
842.160432,-444.123565,-2812.782580,-9729.412825
842.160752,-1258.350101,-1998.556043,-10035.851024
842.161072,518.144159,-518.144159,-9729.412825
842.161392,1998.556043,1480.411884,-9959.241474
842.161712,1184.329507,0.000000,-9882.631924
842.162032,1406.391290,-1332.370696,-10418.898773
842.162352,-444.123565,-1110.308913,-9959.241474
842.162673,-2516.700203,222.061783,-10572.117872
842.162993,-2368.659014,-222.061783,-9499.584175
842.163313,-888.247130,-1332.370696,-10112.460574
842.163633,-370.102971,-1998.556043,-10189.070123
842.163953,518.144159,-2368.659014,-10189.070123
842.164273,1406.391290,-740.205942,-10189.070123
842.164593,2220.617826,1406.391290,-10648.727422
842.164913,740.205942,2220.617826,-10801.946522
842.165233,-1258.350101,1702.473667,-10418.898773
842.165553,-370.102971,-1184.329507,-10265.679673
842.165873,74.020594,-1776.494261,-9806.022374
842.166193,814.226536,-888.247130,-10112.460574
842.166514,74.020594,-740.205942,-10112.460574
842.166834,-444.123565,-444.123565,-10495.508323
842.167154,-518.144159,592.164754,-10189.070123
842.167474,-814.226536,1776.494261,-10572.117872
842.167794,1110.308913,370.102971,-10189.070123
842.168114,1924.535449,-370.102971,-10035.851024
842.168434,1332.370696,-370.102971,-9269.755526
842.168754,-1184.329507,0.000000,-9729.412825
842.169074,-740.205942,1036.288319,-10189.070123
842.169394,-370.102971,1924.535449,-9959.241474
842.169714,74.020594,1480.411884,-10189.070123
842.170034,148.041188,444.123565,-9269.755526
842.170355,1406.391290,74.020594,-9806.022374
842.170675,1924.535449,962.267725,-10265.679673
842.170995,1258.350101,1776.494261,-9729.412825
842.171315,1184.329507,1924.535449,-9959.241474
842.171635,740.205942,-296.082377,-9116.536426
842.171955,222.061783,-888.247130,-9652.803275
842.172275,0.000000,-888.247130,-9346.365076
842.172595,2812.782580,518.144159,-9652.803275
842.172915,3552.988522,2738.761985,-10572.117872
842.173235,2516.700203,3775.050304,-10265.679673
842.173555,962.267725,3256.906145,-10495.508323
842.173875,1036.288319,2368.659014,-10648.727422
842.174196,370.102971,1776.494261,-10342.289223
842.174516,666.185348,1110.308913,-10418.898773
842.174836,592.164754,148.041188,-9959.241474
842.175156,1110.308913,0.000000,-9959.241474
842.175476,2442.679609,814.226536,-10495.508323
842.175796,2220.617826,888.247130,-10035.851024
842.176116,3108.864956,2368.659014,-10801.946522
842.176436,2220.617826,2738.761985,-10878.556072
842.176756,74.020594,3552.988522,-10648.727422
842.177076,370.102971,2294.638420,-10342.289223
842.177396,1110.308913,1258.350101,-10418.898773
842.177717,1184.329507,74.020594,-10112.460574
842.178037,814.226536,-740.205942,-10112.460574
842.178357,740.205942,-444.123565,-10342.289223
842.178677,-592.164754,0.000000,-10112.460574
842.178997,-1850.514855,1480.411884,-9882.631924
842.179317,-2294.638420,962.267725,-10112.460574
842.179637,-814.226536,1036.288319,-9959.241474
842.179957,-666.185348,814.226536,-9959.241474
842.180277,74.020594,-518.144159,-9806.022374
842.180597,888.247130,-592.164754,-10112.460574
842.180917,0.000000,-962.267725,-9422.974625
842.181237,-1258.350101,-148.041188,-10265.679673
842.181558,-1258.350101,-148.041188,-9729.412825
842.181878,444.123565,148.041188,-10112.460574
842.182198,1702.473667,0.000000,-9806.022374
842.182518,592.164754,518.144159,-9806.022374
842.182838,0.000000,148.041188,-11031.775171
842.183158,518.144159,-888.247130,-9806.022374
842.183478,0.000000,-888.247130,-9729.412825
842.183798,-1406.391290,-814.226536,-9806.022374
842.184118,-222.061783,-1480.411884,-9576.193725
842.184438,-370.102971,-1702.473667,-10572.117872
842.184758,444.123565,-2220.617826,-9882.631924
842.185078,518.144159,-1332.370696,-10342.289223
842.185399,1702.473667,-296.082377,-10265.679673
842.185719,1036.288319,222.061783,-10495.508323
842.186039,-2220.617826,518.144159,-10572.117872
842.186359,-740.205942,-370.102971,-10572.117872
842.186679,444.123565,0.000000,-10725.336972
842.186999,1184.329507,-444.123565,-11031.775171
842.187319,0.000000,-962.267725,-10648.727422
842.187639,962.267725,-814.226536,-11108.384721
842.187959,888.247130,740.205942,-11031.775171
842.188279,666.185348,1036.288319,-10801.946522
842.188599,814.226536,888.247130,-10495.508323
842.188919,1332.370696,1110.308913,-10878.556072
842.189240,1036.288319,814.226536,-10725.336972
842.189560,1036.288319,740.205942,-10265.679673
842.189880,1406.391290,740.205942,-10572.117872
842.190200,888.247130,0.000000,-10112.460574
842.190520,296.082377,0.000000,-9806.022374
842.190840,-666.185348,-814.226536,-9576.193725
842.191160,444.123565,74.020594,-9652.803275
842.191480,1332.370696,888.247130,-9959.241474
842.191800,1332.370696,1036.288319,-9806.022374
842.192120,1406.391290,296.082377,-9652.803275
842.192440,592.164754,1554.432478,-9959.241474
842.192760,-1184.329507,1258.350101,-9346.365076
842.193081,-962.267725,1036.288319,-9193.145976
842.193401,1480.411884,444.123565,-9652.803275
842.193721,2368.659014,0.000000,-9576.193725
842.194041,2146.597232,-740.205942,-9806.022374
842.194361,1036.288319,-222.061783,-9576.193725
842.194681,962.267725,814.226536,-9882.631924
842.195001,-370.102971,1702.473667,-9729.412825
842.195321,-518.144159,1480.411884,-9576.193725
842.195641,1480.411884,444.123565,-10112.460574
842.195961,2072.576638,222.061783,-9959.241474
842.196281,2368.659014,444.123565,-10418.898773
842.196601,1184.329507,296.082377,-10112.460574
842.196922,962.267725,1480.411884,-10648.727422
842.197242,-222.061783,2368.659014,-10725.336972
842.197562,-888.247130,2738.761985,-10801.946522
842.197882,-222.061783,1258.350101,-10342.289223
842.198202,1184.329507,444.123565,-10648.727422
842.198522,814.226536,0.000000,-10955.165621
842.198842,1184.329507,0.000000,-10342.289223
842.199162,1628.453072,1184.329507,-10648.727422
842.199482,1850.514855,2368.659014,-10648.727422
842.199802,148.041188,1850.514855,-10878.556072
842.200122,-1184.329507,1110.308913,-10189.070123
842.200442,-592.164754,0.000000,-9959.241474
842.200763,370.102971,-370.102971,-10035.851024
842.201083,814.226536,-888.247130,-10265.679673
842.201403,1332.370696,-962.267725,-9959.241474
842.201723,814.226536,-222.061783,-9729.412825
842.202043,-666.185348,814.226536,-9652.803275
842.202363,-888.247130,518.144159,-9806.022374
842.202683,1036.288319,222.061783,-9116.536426
842.203003,1036.288319,-962.267725,-9499.584175
842.203323,370.102971,-1332.370696,-9652.803275
842.203643,592.164754,-2294.638420,-9652.803275
842.203963,1184.329507,-1924.535449,-8580.269578
842.204283,518.144159,-740.205942,-9269.755526
842.204604,0.000000,-370.102971,-9652.803275
842.204924,1110.308913,-518.144159,-9882.631924
842.205244,2294.638420,-888.247130,-9729.412825
842.205564,592.164754,-962.267725,-9806.022374
842.205884,-592.164754,-666.185348,-9806.022374
842.206204,-370.102971,74.020594,-10265.679673
842.206524,-148.041188,888.247130,-10265.679673
842.206844,-1110.308913,740.205942,-10035.851024
842.207164,370.102971,-444.123565,-10418.898773
842.207484,2442.679609,-1184.329507,-10342.289223
842.207804,2368.659014,-814.226536,-10878.556072
842.208125,888.247130,888.247130,-10572.117872
842.208445,0.000000,2294.638420,-10878.556072
842.208765,444.123565,2294.638420,-11108.384721
842.209085,-888.247130,888.247130,-10878.556072
842.209405,-1406.391290,-1110.308913,-10265.679673
842.209725,-444.123565,-1998.556043,-10112.460574
842.210045,444.123565,-1702.473667,-10801.946522
842.210365,0.000000,-592.164754,-10342.289223
842.210685,-666.185348,592.164754,-10648.727422
842.211005,-740.205942,2146.597232,-10342.289223
842.211325,-1850.514855,2368.659014,-10648.727422
842.211645,-1110.308913,1554.432478,-9959.241474
842.211966,740.205942,-370.102971,-9806.022374
842.212286,2442.679609,-888.247130,-10035.851024
842.212606,3182.885551,-592.164754,-9959.241474
842.212926,2664.741391,0.000000,-10265.679673
842.213246,1480.411884,1036.288319,-9652.803275
842.213566,-1554.432478,1702.473667,-9499.584175
842.213886,-2664.741391,1776.494261,-9346.365076
842.214206,-1332.370696,1184.329507,-9806.022374
842.214526,0.000000,222.061783,-9652.803275
842.214846,370.102971,-888.247130,-9576.193725
842.215166,888.247130,-888.247130,-9499.584175
842.215486,1332.370696,1184.329507,-9806.022374
842.215807,740.205942,1036.288319,-9806.022374
842.216127,0.000000,2664.741391,-9806.022374
842.216447,296.082377,2146.597232,-10035.851024
842.216767,888.247130,1480.411884,-10878.556072
842.217087,740.205942,-296.082377,-10265.679673
842.217407,0.000000,-222.061783,-9729.412825
842.217727,888.247130,0.000000,-10112.460574
842.218047,2072.576638,1480.411884,-10342.289223
842.218367,2146.597232,2220.617826,-11414.822920
842.218687,1480.411884,2368.659014,-10418.898773
842.219007,1998.556043,1850.514855,-10495.508323
842.219327,2664.741391,888.247130,-10495.508323
842.219648,2368.659014,1184.329507,-10342.289223
842.219968,1332.370696,962.267725,-10725.336972
842.220288,-592.164754,1776.494261,-10265.679673
842.220608,-1628.453072,1850.514855,-9882.631924
842.220928,-222.061783,1480.411884,-9959.241474
842.221248,2072.576638,444.123565,-10725.336972
842.221568,2664.741391,0.000000,-10112.460574
842.221888,1406.391290,222.061783,-10342.289223
842.222208,444.123565,888.247130,-9959.241474
842.222528,74.020594,2146.597232,-9039.926876
842.222848,-370.102971,1998.556043,-10265.679673
842.223168,-222.061783,666.185348,-9652.803275
842.223489,1554.432478,-1110.308913,-9576.193725
842.223809,3256.906145,-1998.556043,-9806.022374
842.224129,2516.700203,-2146.597232,-8810.098227
842.224449,1258.350101,-592.164754,-9346.365076
842.224769,148.041188,74.020594,-9959.241474
842.225089,-1332.370696,1110.308913,-9499.584175
842.225409,-3256.906145,148.041188,-9269.755526
842.225729,-2220.617826,-1036.288319,-9422.974625
842.226049,0.000000,-1258.350101,-9959.241474
842.226369,1258.350101,-814.226536,-10189.070123
842.226689,1110.308913,-666.185348,-10342.289223
842.227009,1480.411884,1332.370696,-10265.679673
842.227330,370.102971,296.082377,-10418.898773
842.227650,-592.164754,-444.123565,-10189.070123
842.227970,-1554.432478,-296.082377,-9959.241474
842.228290,370.102971,-666.185348,-10265.679673
842.228610,1850.514855,0.000000,-10495.508323
842.228930,1850.514855,666.185348,-10648.727422
842.229250,1406.391290,222.061783,-11184.994271
842.229570,-962.267725,740.205942,-10725.336972
842.229890,-296.082377,444.123565,-10342.289223
842.230210,-740.205942,222.061783,-10265.679673
842.230530,0.000000,-1998.556043,-10112.460574
842.230850,444.123565,-962.267725,-10418.898773
842.231171,814.226536,-1850.514855,-9269.755526
842.231491,814.226536,148.041188,-10189.070123
842.231811,1776.494261,148.041188,-10265.679673
842.232131,666.185348,592.164754,-9882.631924
842.232451,-518.144159,74.020594,-9422.974625
842.232771,74.020594,-888.247130,-9269.755526
842.233091,222.061783,-2294.638420,-9346.365076
842.233411,518.144159,-1406.391290,-10265.679673
842.233731,888.247130,-2442.679609,-8886.707777
842.234051,222.061783,-1702.473667,-9576.193725
842.234371,-740.205942,1702.473667,-9422.974625
842.234692,-1184.329507,2072.576638,-9882.631924
842.235012,666.185348,518.144159,-9116.536426
842.235332,888.247130,0.000000,-10648.727422
842.235652,592.164754,-1554.432478,-9269.755526
842.235972,0.000000,1184.329507,-10342.289223
842.236292,-1110.308913,-296.082377,-9576.193725
842.236612,-296.082377,1776.494261,-10572.117872
842.236932,-1110.308913,666.185348,-9806.022374
842.237252,296.082377,2368.659014,-10955.165621
842.237572,592.164754,-1036.288319,-9576.193725
842.237892,1110.308913,-2368.659014,-10801.946522
842.238212,-1184.329507,-1850.514855,-9269.755526
842.238533,-222.061783,1258.350101,-11261.603821
842.238853,1924.535449,3034.844362,-10112.460574
842.239173,814.226536,4145.153275,-11184.994271
842.239493,-888.247130,4663.297435,-10801.946522
842.239813,-592.164754,2146.597232,-10878.556072
842.240133,2368.659014,-1850.514855,-9806.022374
842.240453,2220.617826,-296.082377,-10418.898773
842.240773,1184.329507,-666.185348,-9959.241474
842.241093,814.226536,740.205942,-10342.289223
842.241413,-296.082377,1110.308913,-9806.022374
842.241733,740.205942,3552.988522,-10189.070123
842.242053,888.247130,3034.844362,-10112.460574
842.242374,1924.535449,1702.473667,-9729.412825
842.242694,2294.638420,518.144159,-10189.070123
842.243014,2442.679609,0.000000,-9576.193725
842.243334,3108.864956,1258.350101,-10418.898773
842.243654,1406.391290,2294.638420,-9499.584175
842.243974,0.000000,1406.391290,-9116.536426
842.244294,1110.308913,1554.432478,-9576.193725
842.244614,2220.617826,-222.061783,-9806.022374
842.244934,2220.617826,-518.144159,-9959.241474
842.245254,1406.391290,370.102971,-9882.631924
842.245574,1850.514855,0.000000,-10189.070123
842.245894,1480.411884,148.041188,-9882.631924
842.246215,-1258.350101,1184.329507,-9806.022374
842.246535,-1406.391290,1036.288319,-9729.412825
842.246855,814.226536,0.000000,-10878.556072
842.247175,1998.556043,-370.102971,-10189.070123
842.247495,1998.556043,296.082377,-10418.898773
842.247815,1850.514855,0.000000,-10342.289223
842.248135,518.144159,296.082377,-10495.508323
842.248455,-518.144159,148.041188,-10035.851024
842.248775,-1258.350101,0.000000,-10035.851024
842.249095,-1184.329507,-1332.370696,-10265.679673
842.249415,-962.267725,-2294.638420,-10189.070123
842.249735,-444.123565,-1406.391290,-10112.460574
842.250056,592.164754,-666.185348,-10418.898773
842.250376,1924.535449,1036.288319,-11031.775171
842.250696,518.144159,888.247130,-10572.117872
842.251016,-2442.679609,0.000000,-10418.898773
842.251336,-2664.741391,-740.205942,-10035.851024
842.251656,-370.102971,-1702.473667,-10189.070123
842.251976,1332.370696,-2886.803174,-9652.803275
842.252296,148.041188,-2812.782580,-9729.412825
842.252616,-1184.329507,-1776.494261,-9499.584175
842.252936,-1776.494261,296.082377,-9959.241474
842.253256,-740.205942,1258.350101,-10418.898773
842.253576,2294.638420,740.205942,-9882.631924
842.253897,2590.720797,-148.041188,-10801.946522
842.254217,1554.432478,-1036.288319,-9806.022374
842.254537,1406.391290,-962.267725,-9882.631924
842.254857,2146.597232,-222.061783,-10495.508323
842.255177,2294.638420,518.144159,-10342.289223
842.255497,1332.370696,740.205942,-10265.679673
842.255817,740.205942,888.247130,-9576.193725
842.256137,1924.535449,-666.185348,-9806.022374
842.256457,1480.411884,-1702.473667,-10189.070123
842.256777,148.041188,-3108.864956,-9039.926876
842.257097,962.267725,-2442.679609,-10342.289223
842.257417,-666.185348,-444.123565,-10035.851024
842.257738,-1554.432478,2294.638420,-10265.679673
842.258058,-2294.638420,3552.988522,-9959.241474
842.258378,-444.123565,2368.659014,-10495.508323
842.258727,1406.391290,962.267725,-10648.727422
842.259047,2072.576638,-1184.329507,-10801.946522
842.259367,2886.803174,-1406.391290,-10035.851024
842.259688,1406.391290,296.082377,-10801.946522
842.260008,148.041188,3108.864956,-10189.070123
842.260328,-2072.576638,4367.215058,-10495.508323
842.260648,-1998.556043,2590.720797,-9806.022374
842.260968,-592.164754,1110.308913,-10495.508323
842.261288,592.164754,-1554.432478,-9959.241474
842.261608,-222.061783,-296.082377,-10035.851024
842.261928,-666.185348,1850.514855,-10112.460574
842.262248,-740.205942,2886.803174,-9882.631924
842.262568,-2812.782580,2664.741391,-10189.070123
842.262888,-1258.350101,0.000000,-9959.241474
842.263208,1036.288319,-1110.308913,-9652.803275
842.263528,1850.514855,-666.185348,-9959.241474
842.263849,2368.659014,666.185348,-10035.851024
842.264169,2590.720797,2220.617826,-10112.460574
842.264489,1480.411884,2886.803174,-9959.241474
842.264809,222.061783,2442.679609,-10035.851024
842.265129,-74.020594,814.226536,-9576.193725
842.265449,592.164754,-148.041188,-10418.898773
842.265769,1554.432478,-592.164754,-9882.631924
842.266089,2072.576638,296.082377,-10189.070123
842.266409,1036.288319,1406.391290,-10342.289223
842.266729,444.123565,2146.597232,-10035.851024
842.267049,0.000000,2368.659014,-10112.460574
842.267369,592.164754,2886.803174,-9806.022374
842.267689,1480.411884,1924.535449,-10035.851024
842.268010,2294.638420,148.041188,-9959.241474
842.268330,1406.391290,-1184.329507,-10035.851024
842.268650,1554.432478,-888.247130,-10035.851024
842.268970,1776.494261,1554.432478,-10342.289223
842.269290,814.226536,2516.700203,-10572.117872
842.269610,74.020594,3108.864956,-10035.851024
842.269930,370.102971,2516.700203,-10265.679673
842.270250,1554.432478,740.205942,-10342.289223
842.270570,2738.761985,-1480.411884,-10035.851024
842.270890,2146.597232,-2220.617826,-9959.241474
842.271210,444.123565,-2368.659014,-9882.631924
842.271530,-1406.391290,0.000000,-9806.022374
842.271850,-2738.761985,148.041188,-9652.803275
842.272171,-1332.370696,1110.308913,-10112.460574
842.272491,518.144159,0.000000,-10265.679673
842.272811,1406.391290,-1258.350101,-10189.070123
842.273131,1406.391290,-1702.473667,-10189.070123
842.273451,1110.308913,-1332.370696,-10265.679673
842.273771,296.082377,74.020594,-10265.679673
842.274091,-1628.453072,592.164754,-10418.898773
842.274411,-1628.453072,592.164754,-10112.460574
842.274731,296.082377,-740.205942,-9959.241474
842.275051,2072.576638,-1406.391290,-10112.460574
842.275371,1702.473667,-1776.494261,-10189.070123
842.275691,2220.617826,-1776.494261,-10418.898773
842.276011,1924.535449,-740.205942,-9959.241474
842.276332,444.123565,0.000000,-10112.460574
842.276652,-1924.535449,1036.288319,-9729.412825
842.276972,-1406.391290,0.000000,-10035.851024
842.277292,-148.041188,-444.123565,-9959.241474
842.277612,1702.473667,-1924.535449,-9882.631924
842.277932,2368.659014,-2146.597232,-10189.070123
842.278252,2442.679609,-1332.370696,-10112.460574
842.278572,-148.041188,-222.061783,-10342.289223
842.278892,-444.123565,814.226536,-9806.022374
842.279212,-370.102971,740.205942,-10112.460574
842.279532,1184.329507,-444.123565,-9882.631924
842.279852,148.041188,-740.205942,-10265.679673
842.280172,518.144159,-1406.391290,-10418.898773
842.280493,370.102971,-1702.473667,-10035.851024
842.280813,148.041188,-740.205942,-10035.851024
842.281133,-1406.391290,444.123565,-9729.412825
842.281453,-1776.494261,814.226536,-10265.679673
842.281773,-592.164754,814.226536,-10342.289223
842.282093,-296.082377,370.102971,-9959.241474
842.282413,814.226536,370.102971,-10495.508323
842.282733,1332.370696,814.226536,-10648.727422
842.283053,444.123565,1332.370696,-10342.289223
842.283373,222.061783,2368.659014,-10418.898773
842.283693,222.061783,1406.391290,-10265.679673
842.284013,1036.288319,888.247130,-10725.336972
842.284333,666.185348,-296.082377,-10418.898773
842.284654,-296.082377,-296.082377,-9959.241474
842.284974,74.020594,148.041188,-9806.022374
842.285294,148.041188,1702.473667,-9652.803275
842.285614,-1184.329507,2368.659014,-9806.022374
842.285934,-2220.617826,2516.700203,-9806.022374
842.286254,-518.144159,1628.453072,-10112.460574
842.286574,1110.308913,592.164754,-10112.460574
842.286894,2516.700203,-592.164754,-9806.022374
842.287214,2220.617826,-1110.308913,-9806.022374
842.287534,1480.411884,0.000000,-9729.412825
842.287854,1184.329507,1924.535449,-9806.022374
842.288174,-296.082377,4071.132681,-9422.974625
842.288494,-666.185348,3182.885551,-9806.022374
842.288815,740.205942,1850.514855,-9806.022374
842.289135,2516.700203,0.000000,-9806.022374
842.289455,3701.029710,-1406.391290,-9882.631924
842.289775,4441.235652,-1036.288319,-9959.241474
842.290095,3108.864956,1110.308913,-10035.851024
842.290415,222.061783,3182.885551,-10112.460574
842.290735,-1332.370696,4515.256246,-10035.851024
842.291055,-888.247130,4441.235652,-10342.289223
842.291375,1776.494261,1998.556043,-10035.851024
842.291695,2886.803174,518.144159,-9959.241474
842.292015,4219.173869,-444.123565,-10265.679673
842.292335,2960.823768,-962.267725,-10112.460574
842.292655,148.041188,74.020594,-9959.241474
842.292976,-1554.432478,1406.391290,-9959.241474
842.293296,-888.247130,2072.576638,-10112.460574
842.293616,296.082377,2146.597232,-10342.289223
842.293936,1036.288319,1184.329507,-10112.460574
842.294256,1554.432478,0.000000,-10189.070123
842.294576,1480.411884,-1110.308913,-9959.241474
842.294896,1110.308913,-666.185348,-9882.631924
842.295216,0.000000,0.000000,-9806.022374
