#time,accel_x,accel_y,accel_z
953.789129,222.061783,74.020594,-10189.070123
953.789449,518.144159,74.020594,-10112.460574
953.789769,444.123565,148.041188,-10112.460574
953.790089,1036.288319,-148.041188,-10265.679673
953.790409,592.164754,888.247130,-10342.289223
953.790729,666.185348,666.185348,-10342.289223
953.791049,666.185348,518.144159,-10342.289223
953.791369,518.144159,370.102971,-10112.460574
953.791689,518.144159,148.041188,-9959.241474
953.792009,296.082377,296.082377,-9959.241474
953.792329,592.164754,222.061783,-10035.851024
953.792649,740.205942,370.102971,-10035.851024
953.792969,666.185348,518.144159,-10265.679673
953.793289,592.164754,518.144159,-10035.851024
953.793609,-148.041188,74.020594,-10035.851024
953.793929,74.020594,74.020594,-10035.851024
953.794249,444.123565,222.061783,-10035.851024
953.794569,444.123565,444.123565,-10265.679673
953.794889,370.102971,666.185348,-10035.851024
953.795209,222.061783,444.123565,-10342.289223
953.795529,814.226536,666.185348,-10035.851024
953.795849,740.205942,74.020594,-10418.898773
953.796170,0.000000,0.000000,-10112.460574
953.796490,-518.144159,-296.082377,-10112.460574
953.796810,-222.061783,0.000000,-9882.631924
953.797130,74.020594,0.000000,-9806.022374
953.797450,-370.102971,74.020594,-10265.679673
953.797770,-518.144159,-148.041188,-9806.022374
953.798090,-592.164754,-148.041188,-9882.631924
953.798410,222.061783,-296.082377,-10112.460574
953.798730,0.000000,740.205942,-10189.070123
953.799050,-592.164754,-296.082377,-9959.241474
953.799370,-222.061783,-296.082377,-9806.022374
953.799690,0.000000,-740.205942,-10112.460574
953.800010,-814.226536,-1036.288319,-10035.851024
953.800330,-962.267725,-1258.350101,-9729.412825
953.800650,-1036.288319,-1110.308913,-10189.070123
953.800970,-740.205942,-1110.308913,-10112.460574
953.801290,-1110.308913,-962.267725,-9959.241474
953.801610,-2442.679609,-1110.308913,-10035.851024
953.801930,-1628.453072,-1554.432478,-9882.631924
953.802250,-666.185348,-1628.453072,-9882.631924
953.802570,-592.164754,-1554.432478,-9882.631924
953.802890,-1036.288319,-1924.535449,-9652.803275
953.803210,-1110.308913,-2442.679609,-9806.022374
953.803531,-222.061783,-2220.617826,-9882.631924
953.803851,74.020594,-1998.556043,-9806.022374
953.804171,-1036.288319,-1702.473667,-10035.851024
953.804491,-2516.700203,-2368.659014,-8580.269578
953.804811,-3034.844362,-2960.823768,-9882.631924
953.805131,-2442.679609,-3108.864956,-9882.631924
953.805451,-2146.597232,-3182.885551,-9806.022374
953.805771,-2294.638420,-3404.947333,-9882.631924
953.806091,-2516.700203,-3330.926739,-10035.851024
953.806411,-1332.370696,-2960.823768,-9882.631924
953.806731,370.102971,-1998.556043,-10495.508323
953.807051,814.226536,-1480.411884,-10495.508323
953.807371,-518.144159,-888.247130,-10725.336972
953.807691,-1850.514855,-1406.391290,-10495.508323
953.808011,-2664.741391,-2368.659014,-10189.070123
953.808331,-3701.029710,-3330.926739,-10112.460574
953.808651,-5107.421000,-3923.091493,-11338.213370
953.808971,-5107.421000,-4811.338623,-9576.193725
953.809291,-3182.885551,-4885.359217,-9652.803275
953.809611,-962.267725,-4663.297435,-10265.679673
953.809931,444.123565,-3404.947333,-10189.070123
953.810251,592.164754,-1406.391290,-10495.508323
953.810572,888.247130,0.000000,-10648.727422
953.810892,1776.494261,1184.329507,-10648.727422
953.811212,1998.556043,962.267725,-10342.289223
953.811532,592.164754,0.000000,-10418.898773
953.811852,-1258.350101,-1554.432478,-10265.679673
953.812172,-3182.885551,-3108.864956,-10112.460574
953.812492,-4737.318029,-4071.132681,-9652.803275
953.812812,-5477.523971,-4737.318029,-9346.365076
953.813132,-4737.318029,-4885.359217,-8733.488677
953.813452,-1924.535449,-4959.379811,-9576.193725
953.813772,888.247130,-3775.050304,-9806.022374
953.814092,2072.576638,-1702.473667,-10035.851024
953.814412,3182.885551,1554.432478,-9652.803275
953.814732,3923.091493,2812.782580,-10418.898773
953.815052,4071.132681,3478.967927,-11031.775171
953.815372,1628.453072,2590.720797,-10955.165621
953.815692,-2886.803174,-222.061783,-10495.508323
953.816012,-5921.647536,-3108.864956,-9576.193725
953.816332,-6439.791695,-5181.441594,-9652.803275
953.816652,-4589.276840,-6291.750507,-9422.974625
953.816972,-3330.926739,-6439.791695,-9346.365076
953.817292,-2220.617826,-4737.318029,-9499.584175
953.817612,-592.164754,-2294.638420,-9576.193725
953.817933,1332.370696,1480.411884,-10265.679673
953.818253,2220.617826,3997.112087,-10342.289223
953.818573,1850.514855,3923.091493,-10342.289223
953.818893,2368.659014,1924.535449,-10265.679673
953.819213,2442.679609,74.020594,-10495.508323
953.819533,296.082377,-1924.535449,-10342.289223
953.819853,-2886.803174,-3256.906145,-9806.022374
953.820173,-4737.318029,-3478.967927,-9652.803275
953.820493,-5921.647536,-3923.091493,-9652.803275
953.820813,-7476.080014,-4737.318029,-9576.193725
953.821133,-7476.080014,-6069.688724,-9039.926876
953.821453,-4737.318029,-5255.462188,-8963.317327
953.821773,0.000000,-3182.885551,-9959.241474
953.822093,3478.967927,222.061783,-10878.556072
953.822413,3849.070898,3034.844362,-10955.165621
953.822733,2072.576638,4219.173869,-10725.336972
953.823053,1480.411884,4219.173869,-11031.775171
953.823373,1776.494261,2368.659014,-11108.384721
953.823693,370.102971,-1406.391290,-11108.384721
953.824013,-3108.864956,-3701.029710,-10801.946522
953.824333,-6217.729913,-4441.235652,-9882.631924
953.824653,-8438.347739,-3182.885551,-9882.631924
953.824973,-9030.512492,-2738.761985,-9193.145976
953.825294,-6735.874072,-2886.803174,-9499.584175
953.825614,-2294.638420,-3627.009116,-9422.974625
953.825934,2072.576638,-4145.153275,-9806.022374
953.826254,3404.947333,-3330.926739,-10035.851024
953.826574,3775.050304,-1406.391290,-9652.803275
953.826894,3997.112087,1258.350101,-10112.460574
953.827214,4515.256246,2442.679609,-9729.412825
953.827534,2368.659014,2442.679609,-10801.946522
953.827854,-1554.432478,148.041188,-10342.289223
953.828174,-4811.338623,-3034.844362,-9959.241474
953.828494,-5699.585753,-5995.668130,-9729.412825
953.828814,-5921.647536,-8290.306550,-8580.269578
953.829134,-5403.503377,-8808.450710,-9116.536426
953.829454,-5329.482782,-8438.347739,-9422.974625
953.829774,-4663.297435,-6291.750507,-8963.317327
953.830094,-1776.494261,-2072.576638,-9576.193725
953.830414,2442.679609,1406.391290,-10112.460574
953.830734,5847.626942,3404.947333,-11568.042020
953.831054,5403.503377,3552.988522,-11644.651570
953.831374,2368.659014,1480.411884,-11491.432470
953.831694,-962.267725,-888.247130,-10725.336972
953.832014,-3108.864956,-2812.782580,-10418.898773
953.832335,-4219.173869,-4367.215058,-10495.508323
953.832655,-5995.668130,-5033.400406,-10418.898773
953.832975,-8808.450710,-6513.812290,-9499.584175
953.833295,-6957.935855,-6661.853478,-9269.755526
953.833615,-3256.906145,-5699.585753,-10035.851024
953.833935,-592.164754,-3256.906145,-10418.898773
953.834255,-1184.329507,-222.061783,-10572.117872
953.834575,-1110.308913,-666.185348,-9499.584175
953.834895,1406.391290,1258.350101,-10189.070123
953.835215,3849.070898,2072.576638,-10418.898773
953.835535,2960.823768,666.185348,-10801.946522
953.835855,444.123565,-814.226536,-10418.898773
953.836175,-1554.432478,-3775.050304,-9576.193725
953.836495,-3330.926739,-5329.482782,-10265.679673
953.836815,-5921.647536,-5181.441594,-8963.317327
953.837135,-7254.018232,-4959.379811,-9269.755526
953.837455,-4737.318029,-3478.967927,-8886.707777
953.837775,-2072.576638,-2220.617826,-9729.412825
953.838095,222.061783,-2368.659014,-9652.803275
953.838415,1110.308913,-2072.576638,-9806.022374
953.838735,2294.638420,-1110.308913,-10112.460574
953.839055,2664.741391,-222.061783,-10342.289223
953.839375,1036.288319,1258.350101,-10112.460574
953.839696,370.102971,2220.617826,-10342.289223
953.840016,1480.411884,1258.350101,-10495.508323
953.840336,888.247130,-962.267725,-10418.898773
953.840656,-1850.514855,-3182.885551,-10112.460574
953.840976,-3701.029710,-3552.988522,-10112.460574
953.841296,-4293.194464,-2664.741391,-10572.117872
953.841616,-4071.132681,-2368.659014,-10189.070123
953.841936,-4219.173869,-3108.864956,-9652.803275
953.842256,-1998.556043,-2738.761985,-9729.412825
953.842576,-592.164754,-2368.659014,-10035.851024
953.842896,1110.308913,-296.082377,-10418.898773
953.843216,4737.318029,1998.556043,-10418.898773
953.843536,2590.720797,2960.823768,-11874.480219
953.843856,888.247130,3034.844362,-10342.289223
953.844176,-2812.782580,222.061783,-10342.289223
953.844496,-3034.844362,-2738.761985,-10035.851024
953.844816,-3552.988522,-3404.947333,-9652.803275
953.845136,-4589.276840,-3923.091493,-10572.117872
953.845456,-5033.400406,-4589.276840,-9039.926876
953.845776,-4663.297435,-4219.173869,-9576.193725
953.846095,-2886.803174,-3701.029710,-9346.365076
953.846415,-1036.288319,-2442.679609,-9346.365076
953.846735,370.102971,-1332.370696,-9576.193725
953.847055,740.205942,0.000000,-9729.412825
953.847375,1258.350101,-148.041188,-10801.946522
953.847695,1110.308913,-370.102971,-10265.679673
953.848015,0.000000,888.247130,-9652.803275
953.848335,-666.185348,666.185348,-10725.336972
953.848655,222.061783,-740.205942,-9576.193725
953.848975,74.020594,-2072.576638,-10955.165621
953.849294,-1702.473667,-4293.194464,-10495.508323
953.849614,-3182.885551,-6143.709319,-9652.803275
953.849934,-3997.112087,-6291.750507,-9652.803275
953.850254,-3404.947333,-1554.432478,-9959.241474
953.850574,-3182.885551,-518.144159,-10112.460574
953.850894,-2368.659014,-222.061783,-10495.508323
953.851214,-1184.329507,-518.144159,-10648.727422
953.851534,814.226536,-518.144159,-10342.289223
953.851854,2072.576638,-1110.308913,-10342.289223
953.852174,2220.617826,-1258.350101,-10572.117872
953.852494,2516.700203,-2516.700203,-10265.679673
953.852813,-1554.432478,-2368.659014,-9882.631924
953.853133,-5995.668130,-2368.659014,-10265.679673
953.853453,-6365.771101,-3330.926739,-10112.460574
953.853773,-4145.153275,-3404.947333,-9729.412825
953.854093,-3108.864956,-2294.638420,-10189.070123
953.854413,-1258.350101,-2442.679609,-9729.412825
953.854733,-296.082377,-3552.988522,-10189.070123
953.855053,0.000000,-3108.864956,-9959.241474
953.855373,-1184.329507,-2516.700203,-9959.241474
953.855693,-2516.700203,-1924.535449,-9193.145976
953.856012,-1924.535449,-814.226536,-9959.241474
953.856332,-962.267725,-1036.288319,-10801.946522
953.856652,-1110.308913,-962.267725,-10572.117872
953.856972,-3256.906145,-592.164754,-10572.117872
953.857292,-4293.194464,-1332.370696,-10189.070123
953.857612,-2072.576638,-2738.761985,-9729.412825
953.857932,-1110.308913,-4441.235652,-10189.070123
953.858252,-3108.864956,-4737.318029,-9806.022374
953.858572,-5255.462188,-7105.977043,-8886.707777
953.858892,-2664.741391,-5181.441594,-9039.926876
953.859212,1554.432478,-2368.659014,-9422.974625
953.859531,3182.885551,1184.329507,-10955.165621
953.859851,2738.761985,1258.350101,-10035.851024
953.860171,740.205942,-740.205942,-10342.289223
953.860491,-370.102971,-962.267725,-10342.289223
953.860811,-518.144159,-1850.514855,-10112.460574
953.861131,-1554.432478,-2368.659014,-10648.727422
953.861451,-3997.112087,-1850.514855,-9652.803275
953.861771,-5477.523971,-3256.906145,-9729.412825
953.862091,-6217.729913,-4441.235652,-9346.365076
953.862411,-5107.421000,-4367.215058,-9193.145976
953.862730,-814.226536,-2368.659014,-8886.707777
953.863050,4737.318029,-888.247130,-10112.460574
953.863370,6735.874072,1258.350101,-11414.822920
953.863690,6291.750507,1628.453072,-10878.556072
953.864010,4737.318029,2220.617826,-10648.727422
953.864330,2516.700203,1036.288319,-11184.994271
953.864650,370.102971,444.123565,-10265.679673
953.864970,-1850.514855,-1258.350101,-10955.165621
953.865290,-1480.411884,-2516.700203,-9652.803275
953.865610,0.000000,-4145.153275,-10112.460574
953.865930,-148.041188,-4959.379811,-10035.851024
953.866249,-1628.453072,-2886.803174,-9806.022374
953.866569,-1850.514855,-1702.473667,-10035.851024
953.866889,-370.102971,2590.720797,-9806.022374
953.867209,666.185348,4663.297435,-11338.213370
953.867529,518.144159,3849.070898,-10495.508323
953.867849,2072.576638,3034.844362,-10189.070123
953.868169,3775.050304,666.185348,-9882.631924
953.868489,3775.050304,-1184.329507,-9729.412825
953.868809,518.144159,-1628.453072,-10112.460574
953.869129,-2516.700203,-1406.391290,-9806.022374
953.869448,-4071.132681,-592.164754,-9499.584175
953.869768,-2664.741391,-370.102971,-10189.070123
953.870088,-444.123565,-370.102971,-9806.022374
953.870408,-814.226536,962.267725,-10189.070123
953.870728,-1628.453072,1406.391290,-10265.679673
953.871048,-444.123565,3404.947333,-10265.679673
953.871368,3108.864956,4441.235652,-11031.775171
953.871688,4737.318029,3404.947333,-11184.994271
953.872008,2220.617826,1628.453072,-10955.165621
953.872328,-1110.308913,-1924.535449,-10418.898773
953.872648,-3552.988522,-1184.329507,-9806.022374
953.872967,-2368.659014,740.205942,-10112.460574
953.873287,-888.247130,2886.803174,-10648.727422
953.873607,-518.144159,3404.947333,-10189.070123
953.873927,666.185348,-148.041188,-9959.241474
953.874247,0.000000,-1924.535449,-9652.803275
953.874567,1998.556043,-148.041188,-10189.070123
953.874887,1628.453072,1850.514855,-10955.165621
953.875207,1998.556043,2072.576638,-9882.631924
953.875527,1850.514855,2664.741391,-9269.755526
953.875847,2072.576638,2960.823768,-9806.022374
953.876166,3182.885551,2368.659014,-9346.365076
953.876486,2368.659014,2220.617826,-10725.336972
953.876806,3701.029710,1406.391290,-9959.241474
953.877126,3108.864956,0.000000,-9576.193725
953.877446,3404.947333,-1036.288319,-9346.365076
953.877766,592.164754,-1036.288319,-9116.536426
953.878086,-2516.700203,-2294.638420,-9116.536426
953.878406,-2368.659014,-222.061783,-8197.221829
953.878726,-1554.432478,1480.411884,-9576.193725
953.879046,2664.741391,2664.741391,-9959.241474
953.879366,6069.688724,4515.256246,-10572.117872
953.879685,4811.338623,3404.947333,-10572.117872
953.880005,1776.494261,1184.329507,-9959.241474
953.880325,1036.288319,-2368.659014,-9576.193725
953.880645,74.020594,-3775.050304,-9499.584175
953.880965,-1628.453072,-2590.720797,-9959.241474
953.881285,-1258.350101,-888.247130,-9422.974625
953.881605,-2368.659014,0.000000,-11031.775171
953.881925,-2960.823768,814.226536,-9882.631924
953.882245,-3034.844362,0.000000,-10495.508323
953.882565,148.041188,-3108.864956,-9959.241474
953.882884,2368.659014,-2590.720797,-9806.022374
953.883204,2738.761985,-2146.597232,-10878.556072
953.883524,2220.617826,0.000000,-10572.117872
953.883844,370.102971,-148.041188,-10955.165621
953.884164,740.205942,444.123565,-10801.946522
953.884484,-296.082377,1776.494261,-10878.556072
953.884804,-1776.494261,2442.679609,-10495.508323
953.885124,-2738.761985,740.205942,-10189.070123
953.885444,-2072.576638,-2590.720797,-9576.193725
953.885764,-1554.432478,-4441.235652,-9806.022374
953.886084,-1702.473667,-4145.153275,-9652.803275
953.886403,-1554.432478,-2072.576638,-10035.851024
953.886723,-1258.350101,-1258.350101,-9806.022374
953.887043,-148.041188,1184.329507,-8810.098227
953.887363,0.000000,1036.288319,-10572.117872
953.887683,1480.411884,1184.329507,-9729.412825
953.888003,2664.741391,296.082377,-10648.727422
953.888323,1776.494261,1184.329507,-9729.412825
953.888643,-222.061783,296.082377,-10265.679673
953.888963,-1110.308913,-2516.700203,-9269.755526
953.889283,0.000000,-3182.885551,-9422.974625
953.889602,296.082377,-4219.173869,-10035.851024
953.889922,-370.102971,-3034.844362,-9576.193725
953.890242,-592.164754,-2220.617826,-9882.631924
953.890562,148.041188,148.041188,-9576.193725
953.890882,1184.329507,2664.741391,-10495.508323
953.891202,3182.885551,2812.782580,-11721.261119
953.891522,3997.112087,962.267725,-10878.556072
953.891842,3997.112087,-740.205942,-10495.508323
953.892162,3034.844362,-1702.473667,-10418.898773
953.892482,592.164754,-740.205942,-10112.460574
953.892802,148.041188,518.144159,-11338.213370
953.893121,592.164754,1998.556043,-10265.679673
953.893441,1184.329507,1850.514855,-10189.070123
953.893761,-148.041188,1110.308913,-10495.508323
953.894081,1110.308913,-444.123565,-10035.851024
953.894401,2368.659014,-2146.597232,-10035.851024
953.894721,4737.318029,-1776.494261,-9882.631924
953.895041,5033.400406,666.185348,-10342.289223
953.895361,3256.906145,2220.617826,-10495.508323
953.895681,1776.494261,1776.494261,-10112.460574
953.896001,592.164754,2220.617826,-10418.898773
953.896320,-666.185348,1184.329507,-9882.631924
953.896640,1628.453072,296.082377,-9959.241474
953.896960,-814.226536,-296.082377,-10189.070123
953.897280,-1924.535449,-1184.329507,-9269.755526
953.897600,-370.102971,444.123565,-9346.365076
953.897920,1850.514855,2442.679609,-10648.727422
953.898240,1998.556043,3552.988522,-10725.336972
953.898560,-1332.370696,2812.782580,-10189.070123
953.898880,-2368.659014,4071.132681,-9422.974625
953.899200,-1184.329507,1776.494261,-9959.241474
953.899520,962.267725,2516.700203,-10112.460574
953.899839,-148.041188,1036.288319,-9806.022374
953.900159,-592.164754,962.267725,-9806.022374
953.900479,-592.164754,-1406.391290,-9806.022374
953.900799,0.000000,-2220.617826,-9882.631924
953.901119,-666.185348,-814.226536,-9729.412825
953.901439,-2886.803174,1332.370696,-9959.241474
953.901759,-888.247130,2812.782580,-9882.631924
953.902079,1702.473667,4959.379811,-11261.603821
953.902399,814.226536,6143.709319,-11568.042020
953.902719,-1110.308913,3775.050304,-10878.556072
953.903038,-222.061783,740.205942,-9806.022374
953.903358,2368.659014,-2146.597232,-10495.508323
953.903678,2886.803174,-2738.761985,-9729.412825
953.903998,-444.123565,-888.247130,-9806.022374
953.904318,-2812.782580,592.164754,-10035.851024
953.904638,-1628.453072,2442.679609,-9882.631924
953.904958,1332.370696,1406.391290,-11108.384721
953.905278,1776.494261,1258.350101,-10572.117872
953.905598,1776.494261,1702.473667,-9269.755526
953.905918,-1554.432478,2516.700203,-9806.022374
953.906238,1406.391290,2664.741391,-9882.631924
953.906557,3849.070898,962.267725,-8733.488677
953.906877,1332.370696,-1998.556043,-11338.213370
953.907197,1554.432478,-4589.276840,-8656.879127
953.907517,1332.370696,-5847.626942,-9116.536426
953.907837,1184.329507,-2442.679609,-9422.974625
953.908157,-222.061783,666.185348,-9269.755526
953.908477,666.185348,3256.906145,-11108.384721
953.908797,3775.050304,3404.947333,-10495.508323
953.909117,3552.988522,666.185348,-10725.336972
953.909437,1258.350101,-1924.535449,-9806.022374
953.909756,296.082377,-2812.782580,-9422.974625
953.910076,1776.494261,-3775.050304,-9576.193725
953.910396,4145.153275,-592.164754,-10265.679673
953.910716,1480.411884,148.041188,-11031.775171
953.911036,-370.102971,1258.350101,-11414.822920
953.911356,-2368.659014,-1184.329507,-10801.946522
953.911676,-2590.720797,-1036.288319,-10955.165621
953.911996,-2146.597232,-1332.370696,-10112.460574
953.912316,-1110.308913,-518.144159,-11184.994271
953.912636,814.226536,-370.102971,-11261.603821
953.912956,1702.473667,-1406.391290,-11184.994271
953.913275,296.082377,-3478.967927,-9882.631924
953.913595,-3775.050304,-2368.659014,-9193.145976
953.913915,-3775.050304,1036.288319,-9576.193725
953.914235,-1776.494261,2368.659014,-10648.727422
953.914555,1702.473667,3330.926739,-10725.336972
953.914875,0.000000,2072.576638,-9729.412825
953.915195,-1332.370696,-1332.370696,-9882.631924
953.915515,0.000000,-1998.556043,-9729.412825
953.915835,2812.782580,-3552.988522,-9269.755526
953.916155,1998.556043,-666.185348,-9729.412825
953.916474,666.185348,814.226536,-10189.070123
953.916794,148.041188,2960.823768,-8733.488677
953.917114,-444.123565,2368.659014,-10189.070123
953.917434,1850.514855,2960.823768,-10112.460574
953.917754,1332.370696,2516.700203,-10572.117872
953.918074,1702.473667,74.020594,-10955.165621
953.918394,296.082377,-518.144159,-8886.707777
953.918714,-1850.514855,-2664.741391,-10112.460574
953.919034,-222.061783,-962.267725,-9576.193725
953.919354,-962.267725,370.102971,-9959.241474
953.919674,1406.391290,2368.659014,-10112.460574
953.919993,2664.741391,1628.453072,-10572.117872
953.920313,3330.926739,296.082377,-10495.508323
953.920633,2886.803174,0.000000,-9959.241474
953.920953,2220.617826,444.123565,-10342.289223
953.921273,3256.906145,3256.906145,-10112.460574
953.921593,3404.947333,2146.597232,-10801.946522
953.921913,3552.988522,1924.535449,-10572.117872
953.922233,592.164754,1554.432478,-10265.679673
953.922553,-222.061783,-666.185348,-9882.631924
953.922873,-888.247130,-592.164754,-9652.803275
953.923192,666.185348,814.226536,-9959.241474
953.923512,2368.659014,592.164754,-9652.803275
953.923832,814.226536,0.000000,-9729.412825
953.924152,1036.288319,-296.082377,-9576.193725
953.924472,-370.102971,222.061783,-9806.022374
953.924792,1628.453072,1406.391290,-10035.851024
953.925112,1480.411884,2812.782580,-10189.070123
953.925432,2294.638420,2442.679609,-9422.974625
953.925752,-1406.391290,888.247130,-9499.584175
953.926072,-2590.720797,-370.102971,-10112.460574
953.926392,-962.267725,-148.041188,-9806.022374
953.926711,444.123565,-666.185348,-10342.289223
953.927031,1480.411884,-370.102971,-9882.631924
953.927351,-1554.432478,740.205942,-10495.508323
953.927671,-3775.050304,1628.453072,-10725.336972
953.927991,-4367.215058,3330.926739,-9499.584175
953.928311,-3108.864956,3330.926739,-10342.289223
953.928631,-222.061783,3404.947333,-9729.412825
953.928951,1184.329507,2146.597232,-11184.994271
953.929271,4293.194464,-518.144159,-10342.289223
953.929591,3108.864956,-2516.700203,-10035.851024
953.929910,444.123565,-2368.659014,-9652.803275
953.930230,-2220.617826,-444.123565,-9422.974625
953.930550,-2516.700203,74.020594,-9422.974625
953.930870,-2072.576638,1554.432478,-9806.022374
953.931190,-370.102971,1702.473667,-10342.289223
953.931510,5403.503377,1924.535449,-10495.508323
953.931830,4367.215058,296.082377,-11108.384721
953.932150,2516.700203,-666.185348,-9882.631924
953.932470,444.123565,-592.164754,-10112.460574
953.932790,518.144159,-1998.556043,-10035.851024
953.933110,1628.453072,1184.329507,-10265.679673
953.933429,-1554.432478,3478.967927,-10342.289223
953.933749,-3256.906145,4515.256246,-10418.898773
953.934069,-2220.617826,3108.864956,-10418.898773
953.934389,518.144159,-740.205942,-10112.460574
953.934709,3034.844362,-2886.803174,-10878.556072
953.935029,3404.947333,-3701.029710,-9193.145976
953.935349,3849.070898,-1184.329507,-9806.022374
953.935669,4663.297435,3034.844362,-10725.336972
953.935989,2516.700203,5107.421000,-10572.117872
953.936309,1258.350101,5033.400406,-10955.165621
953.936629,1184.329507,1184.329507,-9729.412825
953.936948,2516.700203,-3627.009116,-9269.755526
953.937268,3256.906145,-5921.647536,-9499.584175
953.937588,814.226536,-3701.029710,-9806.022374
953.937908,-444.123565,-962.267725,-9806.022374
953.938228,518.144159,2072.576638,-10035.851024
953.938548,1554.432478,814.226536,-10265.679673
953.938868,222.061783,370.102971,-9422.974625
953.939188,-2220.617826,0.000000,-9959.241474
953.939508,-2368.659014,-296.082377,-9269.755526
953.939828,74.020594,-962.267725,-10955.165621
953.940147,2960.823768,-888.247130,-9422.974625
953.940467,3108.864956,-2220.617826,-9806.022374
953.940787,1776.494261,-1998.556043,-10572.117872
953.941107,-1702.473667,-296.082377,-9193.145976
953.941427,-2886.803174,2368.659014,-10648.727422
953.941747,-1702.473667,4293.194464,-10112.460574
953.942067,-814.226536,2368.659014,-10342.289223
953.942387,-962.267725,-592.164754,-10112.460574
953.942707,-1702.473667,-4293.194464,-9576.193725
953.943027,-1998.556043,-4293.194464,-9193.145976
953.943347,0.000000,-296.082377,-10342.289223
953.943666,1184.329507,4589.276840,-10495.508323
953.943986,-222.061783,6069.688724,-11031.775171
953.944306,296.082377,4515.256246,-10495.508323
953.944626,-888.247130,1998.556043,-10265.679673
953.944946,-3478.967927,0.000000,-10725.336972
953.945266,-3034.844362,-1258.350101,-9422.974625
953.945586,0.000000,-1628.453072,-10342.289223
953.945906,1036.288319,-740.205942,-9499.584175
953.946226,222.061783,1110.308913,-9882.631924
953.946546,-888.247130,2738.761985,-10878.556072
953.946866,1702.473667,2368.659014,-9576.193725
953.947186,74.020594,2516.700203,-10112.460574
953.947505,3330.926739,3034.844362,-10648.727422
953.947825,3478.967927,1850.514855,-10112.460574
953.948145,1776.494261,814.226536,-10648.727422
953.948465,2220.617826,-1924.535449,-9269.755526
953.948785,2738.761985,-3108.864956,-9576.193725
953.949105,3182.885551,-2072.576638,-9882.631924
953.949425,888.247130,444.123565,-9882.631924
953.949745,1554.432478,2886.803174,-9499.584175
953.950065,3034.844362,2664.741391,-9806.022374
953.950385,4293.194464,962.267725,-9882.631924
953.950705,4145.153275,-592.164754,-10189.070123
953.951025,2294.638420,-148.041188,-9806.022374
953.951345,888.247130,666.185348,-9882.631924
953.951665,592.164754,1332.370696,-9806.022374
953.951985,0.000000,1850.514855,-10189.070123
953.952305,-2886.803174,814.226536,-9576.193725
953.952625,-444.123565,-962.267725,-10495.508323
953.952945,2072.576638,-1036.288319,-10725.336972
953.953265,0.000000,-444.123565,-9116.536426
953.953585,-1184.329507,370.102971,-10035.851024
953.953905,1776.494261,370.102971,-9806.022374
953.954225,3330.926739,740.205942,-10648.727422
953.954545,4367.215058,1110.308913,-11491.432470
953.954865,1776.494261,814.226536,-10418.898773
953.955185,-2220.617826,1184.329507,-11031.775171
953.955505,-2442.679609,1998.556043,-10342.289223
953.955825,-1702.473667,1110.308913,-10725.336972
953.956144,-2146.597232,370.102971,-10572.117872
953.956464,-6291.750507,-1332.370696,-10265.679673
953.956784,-5403.503377,-2886.803174,-9346.365076
953.957104,-2368.659014,-2368.659014,-9269.755526
953.957424,814.226536,-666.185348,-10648.727422
953.957744,74.020594,-962.267725,-9652.803275
953.958064,-1554.432478,-592.164754,-9576.193725
953.958384,-1184.329507,-444.123565,-8580.269578
953.958704,-296.082377,444.123565,-10112.460574
953.959024,666.185348,1036.288319,-10265.679673
953.959344,-1110.308913,1628.453072,-10189.070123
953.959664,-2368.659014,2220.617826,-8580.269578
953.959984,-2368.659014,222.061783,-8886.707777
953.960304,-1406.391290,-1628.453072,-10189.070123
953.960624,-1036.288319,-1776.494261,-9499.584175
953.960944,-1998.556043,-1850.514855,-9116.536426
953.961264,-1924.535449,-1036.288319,-9346.365076
953.961584,444.123565,-370.102971,-9806.022374
953.961904,2516.700203,296.082377,-10112.460574
953.962224,2368.659014,444.123565,-9576.193725
953.962544,3775.050304,740.205942,-11108.384721
953.962864,4959.379811,1110.308913,-10265.679673
953.963184,5921.647536,1406.391290,-11184.994271
953.963504,3478.967927,2738.761985,-10572.117872
953.963824,3552.988522,3775.050304,-10648.727422
953.964144,5033.400406,3478.967927,-11568.042020
953.964464,4885.359217,666.185348,-10878.556072
953.964783,3775.050304,-3034.844362,-10418.898773
953.965103,1628.453072,-3923.091493,-10265.679673
953.965423,814.226536,-3182.885551,-10648.727422
953.965743,2442.679609,518.144159,-10112.460574
953.966063,222.061783,3108.864956,-10648.727422
953.966383,-222.061783,4293.194464,-10418.898773
953.966703,1258.350101,4367.215058,-10495.508323
953.967023,2146.597232,1924.535449,-10112.460574
953.967343,2960.823768,-2516.700203,-9576.193725
953.967663,4219.173869,-4885.359217,-8810.098227
953.967983,4071.132681,-3849.070898,-9422.974625
953.968303,1776.494261,0.000000,-9576.193725
953.968623,1628.453072,2294.638420,-9652.803275
953.968943,962.267725,3627.009116,-9422.974625
953.969263,-148.041188,2590.720797,-9499.584175
953.969583,-2960.823768,518.144159,-9116.536426
953.969903,-4737.318029,-1924.535449,-9269.755526
953.970223,-3404.947333,-3627.009116,-9116.536426
953.970543,-740.205942,-5255.462188,-9269.755526
953.970863,-888.247130,-3108.864956,-8963.317327
953.971183,-2294.638420,666.185348,-9652.803275
953.971503,-2368.659014,2664.741391,-9729.412825
953.971823,-1998.556043,4071.132681,-10495.508323
953.972143,-1184.329507,3256.906145,-10495.508323
953.972463,-814.226536,2294.638420,-10648.727422
953.972783,-2664.741391,-1332.370696,-10725.336972
953.973103,-1554.432478,-2146.597232,-10648.727422
953.973422,-3256.906145,-1406.391290,-10725.336972
953.973742,-5625.565159,1110.308913,-10265.679673
953.974062,-5107.421000,2368.659014,-10725.336972
953.974382,-814.226536,2220.617826,-10801.946522
953.974702,1702.473667,2960.823768,-12027.699319
953.975022,2738.761985,1258.350101,-11491.432470
953.975342,0.000000,1480.411884,-10342.289223
953.975662,74.020594,-444.123565,-10648.727422
953.975982,3182.885551,148.041188,-9882.631924
953.976302,3182.885551,-1036.288319,-10801.946522
953.976622,3627.009116,-1480.411884,-10265.679673
953.976942,-370.102971,444.123565,-9806.022374
953.977262,-2072.576638,666.185348,-9806.022374
953.977582,-222.061783,1110.308913,-9116.536426
953.977902,-592.164754,-740.205942,-10265.679673
953.978222,2368.659014,-2738.761985,-8580.269578
953.978542,2146.597232,-3182.885551,-8733.488677
953.978862,3997.112087,-1702.473667,-9346.365076
953.979182,7254.018232,740.205942,-9806.022374
953.979502,8290.306550,2886.803174,-9882.631924
953.979822,3627.009116,3997.112087,-9959.241474
953.980142,1110.308913,2960.823768,-9422.974625
953.980462,1776.494261,-148.041188,-9576.193725
953.980782,3182.885551,-2664.741391,-9652.803275
953.981102,2220.617826,-2146.597232,-9499.584175
953.981422,370.102971,-1184.329507,-9806.022374
953.981742,2368.659014,-592.164754,-10189.070123
953.982061,4663.297435,-1258.350101,-10112.460574
953.982381,4959.379811,222.061783,-10112.460574
953.982701,1776.494261,1776.494261,-10648.727422
953.983021,1628.453072,2294.638420,-10572.117872
953.983341,3478.967927,2590.720797,-10801.946522
953.983661,3923.091493,1776.494261,-11414.822920
953.983981,2368.659014,592.164754,-12027.699319
953.984301,-2368.659014,-1850.514855,-11338.213370
953.984621,-2812.782580,-1776.494261,-10342.289223
953.984941,-5847.626942,-518.144159,-10495.508323
953.985261,-4071.132681,1036.288319,-10572.117872
953.985581,-3997.112087,2960.823768,-11338.213370
953.985901,-1554.432478,518.144159,-11031.775171
953.986221,-148.041188,-370.102971,-9729.412825
953.986541,74.020594,-2516.700203,-10342.289223
953.986861,2072.576638,-1628.453072,-9729.412825
953.987181,666.185348,962.267725,-10189.070123
953.987501,-444.123565,3404.947333,-10189.070123
953.987821,888.247130,3478.967927,-9576.193725
953.988141,518.144159,3108.864956,-10265.679673
953.988461,-3034.844362,888.247130,-10189.070123
953.988781,-6661.853478,-962.267725,-8963.317327
953.989101,-8438.347739,0.000000,-8656.879127
953.989421,-4885.359217,-962.267725,-9039.926876
953.989741,-2886.803174,-1258.350101,-9422.974625
953.990061,-2294.638420,-1776.494261,-9346.365076
953.990381,-2294.638420,-592.164754,-8963.317327
953.990700,-222.061783,1554.432478,-10035.851024
953.991020,2886.803174,1776.494261,-9959.241474
953.991340,3701.029710,2146.597232,-10189.070123
953.991660,1258.350101,0.000000,-9882.631924
953.991980,740.205942,-444.123565,-9346.365076
953.992300,1702.473667,666.185348,-10342.289223
953.992620,3182.885551,2442.679609,-10648.727422
953.992940,518.144159,3404.947333,-10801.946522
953.993260,-444.123565,1554.432478,-10572.117872
953.993580,-1036.288319,-1332.370696,-9499.584175
953.993900,-222.061783,-4367.215058,-9576.193725
953.994220,592.164754,-3256.906145,-9882.631924
953.994540,2072.576638,-1702.473667,-10801.946522
953.994860,5477.523971,1406.391290,-11491.432470
953.995180,7402.059420,3256.906145,-11644.651570
953.995500,8586.388927,3330.926739,-11797.870669
953.995820,4071.132681,3701.029710,-10572.117872
953.996140,-370.102971,3330.926739,-11874.480219
953.996460,2368.659014,3108.864956,-10495.508323
953.996780,5255.462188,1258.350101,-10648.727422
953.997100,7624.121203,-1850.514855,-9806.022374
953.997420,3256.906145,-3997.112087,-9346.365076
953.997740,1184.329507,-3330.926739,-9729.412825
953.998060,74.020594,0.000000,-10495.508323
953.998380,1702.473667,592.164754,-10112.460574
953.998700,1924.535449,2664.741391,-9882.631924
953.999020,-222.061783,1332.370696,-9269.755526
953.999339,-962.267725,592.164754,-8886.707777
953.999659,-2220.617826,-1110.308913,-9116.536426
953.999979,-370.102971,-2220.617826,-8350.440928
954.000299,-1258.350101,-1110.308913,-9422.974625
954.000619,-2146.597232,-1702.473667,-8733.488677
954.000939,74.020594,-3108.864956,-8963.317327
954.001259,1184.329507,-3997.112087,-9116.536426
954.001579,-444.123565,-2516.700203,-9652.803275
954.001899,-2886.803174,-1702.473667,-9652.803275
954.002219,-2294.638420,2368.659014,-9959.241474
954.002539,-592.164754,2812.782580,-11031.775171
954.002859,0.000000,4219.173869,-10572.117872
954.003179,-2368.659014,1924.535449,-11874.480219
954.003499,-2812.782580,0.000000,-9882.631924
954.003819,-2516.700203,-222.061783,-11414.822920
954.004139,666.185348,74.020594,-11031.775171
954.004459,-1110.308913,888.247130,-10725.336972
954.004779,-3923.091493,222.061783,-11261.603821
954.005099,-4811.338623,-148.041188,-10265.679673
954.005419,-4145.153275,-296.082377,-10801.946522
954.005739,-1258.350101,222.061783,-10572.117872
954.006059,888.247130,1258.350101,-10878.556072
954.006379,1628.453072,2886.803174,-11414.822920
954.006699,2220.617826,3034.844362,-10572.117872
954.007019,2220.617826,2812.782580,-10725.336972
954.007339,2146.597232,1184.329507,-10189.070123
954.007659,1850.514855,-148.041188,-10035.851024
954.007978,1406.391290,-1184.329507,-8733.488677
954.008298,888.247130,-1406.391290,-9039.926876
954.008618,2812.782580,-2442.679609,-8580.269578
954.008938,3923.091493,-2220.617826,-8963.317327
954.009258,2886.803174,-1480.411884,-9652.803275
954.009578,1998.556043,962.267725,-8120.612279
954.009898,2886.803174,1776.494261,-9346.365076
954.010218,3923.091493,2960.823768,-10035.851024
954.010538,2960.823768,2812.782580,-9882.631924
954.010858,148.041188,1332.370696,-10112.460574
954.011178,0.000000,-1332.370696,-9269.755526
954.011498,2442.679609,-3330.926739,-9116.536426
954.011818,2220.617826,-2960.823768,-10035.851024
954.012138,888.247130,-1480.411884,-9346.365076
954.012458,-592.164754,814.226536,-10189.070123
954.012778,962.267725,2294.638420,-10955.165621
954.013098,0.000000,3108.864956,-10572.117872
954.013418,-962.267725,3182.885551,-10801.946522
954.013738,888.247130,1036.288319,-10648.727422
954.014058,2220.617826,-814.226536,-10955.165621
954.014378,5403.503377,-2146.597232,-10955.165621
954.014698,4959.379811,-1554.432478,-10342.289223
954.015018,4219.173869,444.123565,-10955.165621
954.015338,2146.597232,3108.864956,-11108.384721
954.015658,-370.102971,3701.029710,-11108.384721
954.015978,-2516.700203,3701.029710,-10955.165621
954.016298,-3627.009116,592.164754,-10418.898773
954.016617,-4219.173869,-1110.308913,-9806.022374
954.016937,-1924.535449,-3108.864956,-10035.851024
954.017257,-814.226536,-2442.679609,-10035.851024
954.017577,148.041188,-370.102971,-9806.022374
954.017897,-2220.617826,1924.535449,-9959.241474
954.018217,-1332.370696,4145.153275,-9806.022374
954.018537,-1480.411884,4219.173869,-10572.117872
954.018857,148.041188,1924.535449,-9729.412825
954.019177,0.000000,222.061783,-10035.851024
954.019497,-518.144159,0.000000,-11108.384721
954.019817,-2294.638420,-666.185348,-9422.974625
954.020137,-2368.659014,-296.082377,-9193.145976
954.020457,74.020594,0.000000,-9499.584175
954.020777,296.082377,-222.061783,-9422.974625
954.021097,370.102971,0.000000,-9269.755526
954.021417,-2368.659014,740.205942,-9959.241474
954.021737,-1554.432478,1554.432478,-10112.460574
954.022057,-1554.432478,3034.844362,-10112.460574
954.022377,740.205942,1924.535449,-9882.631924
954.022697,0.000000,148.041188,-9729.412825
954.023017,2368.659014,-2146.597232,-10112.460574
954.023337,1258.350101,-3478.967927,-9729.412825
954.023657,-370.102971,-3034.844362,-10035.851024
954.023977,-518.144159,-1332.370696,-9729.412825
954.024297,1776.494261,74.020594,-10801.946522
954.024617,3627.009116,1850.514855,-10878.556072
954.024937,2664.741391,3923.091493,-11644.651570
954.025256,74.020594,2886.803174,-10495.508323
954.025576,1406.391290,1776.494261,-10878.556072
954.025896,3775.050304,-814.226536,-10878.556072
954.026216,3034.844362,-1554.432478,-9959.241474
954.026536,1110.308913,-2368.659014,-10342.289223
954.026856,-2294.638420,-2072.576638,-9806.022374
954.027176,-1850.514855,-1850.514855,-9959.241474
954.027496,296.082377,-222.061783,-9576.193725
954.027816,1480.411884,666.185348,-9882.631924
954.028136,2368.659014,1406.391290,-10418.898773
954.028456,2960.823768,1480.411884,-10112.460574
954.028776,3330.926739,-592.164754,-10112.460574
954.029096,3552.988522,-2294.638420,-9346.365076
954.029416,2590.720797,-2812.782580,-9806.022374
954.029736,1036.288319,-3404.947333,-10342.289223
954.030056,-370.102971,-2146.597232,-9729.412825
954.030376,-370.102971,1036.288319,-9882.631924
954.030696,0.000000,3923.091493,-10648.727422
954.031016,888.247130,5107.421000,-10572.117872
954.031336,1480.411884,2738.761985,-11568.042020
954.031656,592.164754,-740.205942,-10112.460574
954.031976,0.000000,-4441.235652,-9959.241474
954.032296,-1480.411884,-2220.617826,-10725.336972
954.032616,-2442.679609,-666.185348,-9806.022374
954.032936,-3256.906145,2738.761985,-9806.022374
954.033256,-1924.535449,3849.070898,-10495.508323
954.033575,518.144159,2368.659014,-9882.631924
954.033895,814.226536,-296.082377,-10955.165621
954.034215,1406.391290,-1702.473667,-9652.803275
954.034535,2368.659014,-2072.576638,-9882.631924
954.034855,3701.029710,-1554.432478,-9806.022374
954.035175,3256.906145,-518.144159,-10495.508323
954.035495,-370.102971,1554.432478,-10572.117872
954.035815,-3182.885551,2886.803174,-9959.241474
954.036135,-3330.926739,2368.659014,-10035.851024
954.036455,-222.061783,2294.638420,-9806.022374
954.036775,1554.432478,-222.061783,-10955.165621
954.037095,1332.370696,-1554.432478,-9806.022374
954.037415,0.000000,-2738.761985,-9193.145976
954.037735,666.185348,-2146.597232,-9729.412825
954.038055,444.123565,-222.061783,-9499.584175
954.038375,518.144159,2812.782580,-10112.460574
954.038695,-1702.473667,3404.947333,-9959.241474
954.039015,-222.061783,3034.844362,-9346.365076
954.039335,1924.535449,1184.329507,-9806.022374
954.039655,2886.803174,-1184.329507,-9806.022374
954.039975,1776.494261,-740.205942,-10418.898773
954.040295,222.061783,148.041188,-10418.898773
954.040615,74.020594,222.061783,-9652.803275
954.040935,2368.659014,1036.288319,-10035.851024
954.041255,3108.864956,1332.370696,-10418.898773
954.041575,1776.494261,2368.659014,-10265.679673
954.041895,-296.082377,2072.576638,-10801.946522
954.042214,740.205942,1776.494261,-9806.022374
954.042534,962.267725,1332.370696,-10342.289223
954.042854,-666.185348,222.061783,-10265.679673
954.043174,-1628.453072,-592.164754,-9959.241474
954.043494,296.082377,-2886.803174,-9729.412825
954.043814,370.102971,-1480.411884,-10189.070123
954.044134,-1924.535449,222.061783,-10418.898773
954.044454,-3404.947333,2664.741391,-10189.070123
954.044774,-2072.576638,3627.009116,-10342.289223
954.045094,1258.350101,3627.009116,-10112.460574
954.045414,2294.638420,1628.453072,-10955.165621
954.045734,814.226536,-2072.576638,-10189.070123
954.046054,296.082377,-3256.906145,-9806.022374
954.046374,1998.556043,-3256.906145,-9882.631924
954.046694,1332.370696,444.123565,-10572.117872
954.047014,-1628.453072,3627.009116,-10955.165621
954.047334,-3108.864956,5921.647536,-10189.070123
954.047654,-962.267725,5403.503377,-10495.508323
954.047974,3256.906145,1554.432478,-10189.070123
954.048294,4959.379811,-1332.370696,-9959.241474
954.048614,2368.659014,-2442.679609,-9806.022374
954.048934,518.144159,-1406.391290,-9499.584175
954.049254,1924.535449,1110.308913,-9959.241474
954.049574,2812.782580,1406.391290,-10035.851024
954.049894,148.041188,1332.370696,-9806.022374
954.050214,888.247130,962.267725,-10035.851024
954.050534,0.000000,2294.638420,-10342.289223
954.050854,222.061783,4293.194464,-10265.679673
954.051174,-592.164754,3108.864956,-10112.460574
954.051494,1776.494261,-592.164754,-9959.241474
954.051814,3034.844362,-3923.091493,-8580.269578
954.052134,4441.235652,-5403.503377,-9422.974625
954.052454,3182.885551,-3256.906145,-9499.584175
954.052774,1776.494261,296.082377,-10495.508323
954.053094,2294.638420,3923.091493,-10572.117872
954.053414,1998.556043,4959.379811,-10648.727422
954.053734,0.000000,3108.864956,-10342.289223
954.054054,-1332.370696,296.082377,-9499.584175
954.054374,-666.185348,-2072.576638,-10572.117872
954.054694,1480.411884,-3552.988522,-9959.241474
954.055014,2664.741391,-3701.029710,-10035.851024
954.055334,1184.329507,-3034.844362,-9806.022374
954.055654,444.123565,-1036.288319,-9576.193725
954.055974,-1628.453072,1480.411884,-10112.460574
954.056294,-1554.432478,2442.679609,-9882.631924
954.056614,1184.329507,2664.741391,-10878.556072
954.056934,518.144159,592.164754,-10189.070123
954.057254,-222.061783,-3552.988522,-9576.193725
954.057574,-1258.350101,-5329.482782,-9806.022374
954.057894,-2368.659014,-5403.503377,-8886.707777
954.058214,-2516.700203,-2960.823768,-9729.412825
954.058534,-2442.679609,1776.494261,-10878.556072
954.058854,-2146.597232,3627.009116,-10572.117872
954.059174,-1776.494261,2738.761985,-10878.556072
954.059494,-1184.329507,962.267725,-10035.851024
954.059814,222.061783,-1850.514855,-10189.070123
954.060134,-370.102971,-4589.276840,-10418.898773
954.060454,74.020594,-1332.370696,-10495.508323
954.060774,-3404.947333,1850.514855,-11031.775171
954.061094,-1924.535449,3775.050304,-11031.775171
954.061414,0.000000,1406.391290,-11108.384721
954.061734,0.000000,-814.226536,-10648.727422
954.062054,-1628.453072,-740.205942,-9806.022374
954.062374,148.041188,2146.597232,-10648.727422
954.062694,2368.659014,5551.544565,-11338.213370
954.063014,3552.988522,5477.523971,-10878.556072
954.063334,1776.494261,1554.432478,-10342.289223
954.063654,888.247130,-518.144159,-9116.536426
954.063974,2220.617826,-2738.761985,-9269.755526
954.064294,2664.741391,-4071.132681,-8886.707777
954.064614,3108.864956,-2590.720797,-8810.098227
954.064934,1702.473667,-888.247130,-8810.098227
954.065254,148.041188,1036.288319,-8963.317327
954.065574,-814.226536,296.082377,-9269.755526
954.065894,-296.082377,222.061783,-9269.755526
954.066214,2146.597232,148.041188,-9039.926876
954.066534,3849.070898,-1036.288319,-9806.022374
954.066854,5477.523971,-1850.514855,-9116.536426
954.067174,3552.988522,-814.226536,-9729.412825
954.067494,814.226536,0.000000,-10342.289223
954.067814,1924.535449,1702.473667,-9729.412825
954.068134,3182.885551,2812.782580,-10418.898773
954.068454,3923.091493,4071.132681,-10189.070123
954.068774,2294.638420,2590.720797,-10878.556072
954.069094,1258.350101,1110.308913,-10648.727422
954.069414,740.205942,0.000000,-10342.289223
954.069734,-666.185348,-888.247130,-10572.117872
954.070054,0.000000,2294.638420,-10801.946522
954.070374,0.000000,3182.885551,-11338.213370
954.070694,740.205942,3552.988522,-10342.289223
954.071014,296.082377,2146.597232,-10801.946522
954.071334,592.164754,1332.370696,-11184.994271
954.071654,444.123565,148.041188,-10648.727422
954.071974,-518.144159,-370.102971,-9806.022374
954.072294,-888.247130,666.185348,-10189.070123
954.072614,-1776.494261,148.041188,-10112.460574
954.072934,-1332.370696,1036.288319,-9806.022374
954.073254,-592.164754,518.144159,-9806.022374
954.073574,740.205942,1110.308913,-11261.603821
954.073894,1258.350101,1332.370696,-10342.289223
954.074214,1036.288319,518.144159,-9652.803275
954.074534,-888.247130,-592.164754,-9116.536426
954.074854,-2368.659014,-2368.659014,-8503.660028
954.075174,-1258.350101,-2516.700203,-9422.974625
954.075494,666.185348,-1480.411884,-9882.631924
954.075814,1258.350101,1850.514855,-9806.022374
954.076134,74.020594,3997.112087,-10035.851024
954.076454,-592.164754,4589.276840,-9806.022374
954.076774,-1332.370696,2516.700203,-10189.070123
954.077094,-592.164754,-814.226536,-9729.412825
954.077414,-1332.370696,-2516.700203,-9882.631924
954.077734,-1702.473667,-1628.453072,-9422.974625
954.078054,296.082377,296.082377,-9959.241474
954.078374,2368.659014,1628.453072,-10878.556072
954.078694,4145.153275,3775.050304,-10572.117872
954.079014,2294.638420,2886.803174,-11031.775171
954.079334,74.020594,2368.659014,-10265.679673
954.079654,-222.061783,2368.659014,-10801.946522
954.079974,148.041188,1258.350101,-10878.556072
954.080294,2294.638420,592.164754,-10648.727422
954.080614,3923.091493,-962.267725,-10572.117872
954.080934,3478.967927,-1036.288319,-10112.460574
954.081254,1110.308913,-1036.288319,-10265.679673
954.081574,0.000000,962.267725,-9959.241474
954.081894,1036.288319,1258.350101,-10342.289223
954.082214,2516.700203,814.226536,-10878.556072
954.082534,1480.411884,592.164754,-10189.070123
954.082854,962.267725,-1184.329507,-9652.803275
954.083174,2886.803174,-2738.761985,-9652.803275
954.083494,2738.761985,-2738.761985,-8886.707777
954.083814,1702.473667,-1776.494261,-9193.145976
954.084134,-148.041188,-592.164754,-9576.193725
954.084454,592.164754,740.205942,-9193.145976
954.084774,962.267725,1628.453072,-10189.070123
954.085094,296.082377,1258.350101,-9346.365076
954.085414,-592.164754,-592.164754,-9806.022374
954.085734,-2146.597232,-2812.782580,-9346.365076
954.086054,-740.205942,-3923.091493,-8886.707777
954.086374,666.185348,-2738.761985,-10112.460574
954.086694,148.041188,-1332.370696,-9806.022374
954.087014,74.020594,1036.288319,-10418.898773
954.087334,-666.185348,1998.556043,-10878.556072
954.087654,592.164754,2516.700203,-10418.898773
954.087974,888.247130,1776.494261,-12027.699319
954.088294,-1184.329507,-1554.432478,-10495.508323
954.088614,-2368.659014,-3627.009116,-9652.803275
954.088934,-2072.576638,-3997.112087,-10801.946522
954.089254,148.041188,-1850.514855,-10189.070123
954.089574,-444.123565,740.205942,-11031.775171
954.089894,-370.102971,3256.906145,-10878.556072
954.090214,0.000000,3256.906145,-11031.775171
954.090534,-666.185348,2516.700203,-11261.603821
954.090854,-2220.617826,-1184.329507,-11108.384721
954.091174,-1998.556043,-2738.761985,-9806.022374
954.091494,-740.205942,-3701.029710,-9959.241474
954.091814,1332.370696,-2072.576638,-9652.803275
954.092134,1258.350101,74.020594,-10418.898773
954.092454,-222.061783,1850.514855,-10265.679673
954.092774,0.000000,3552.988522,-10189.070123
954.093094,222.061783,4663.297435,-10035.851024
954.093414,518.144159,4367.215058,-10112.460574
954.093734,888.247130,2072.576638,-9806.022374
954.094054,1628.453072,-1036.288319,-9652.803275
954.094374,4071.132681,-3256.906145,-9269.755526
954.094694,4145.153275,-3849.070898,-9346.365076
954.095014,2368.659014,-2812.782580,-9269.755526
954.095334,666.185348,1480.411884,-9959.241474
954.095654,0.000000,3182.885551,-10035.851024
954.095974,666.185348,3182.885551,-9806.022374
954.096294,74.020594,1184.329507,-9116.536426
954.096614,-370.102971,-814.226536,-10035.851024
954.096934,1036.288319,-1480.411884,-10342.289223
954.097254,3034.844362,-1554.432478,-10112.460574
954.097574,4885.359217,518.144159,-10035.851024
954.097894,4811.338623,2368.659014,-9806.022374
954.098214,2146.597232,2960.823768,-10878.556072
954.098534,0.000000,4145.153275,-10418.898773
954.098854,-296.082377,3923.091493,-10955.165621
954.099174,518.144159,2368.659014,-9959.241474
954.099494,2368.659014,296.082377,-10801.946522
954.099814,3108.864956,-1110.308913,-10418.898773
954.100134,1258.350101,-1406.391290,-9882.631924
954.100454,0.000000,0.000000,-10112.460574
954.100774,-1998.556043,2368.659014,-10265.679673
954.101094,-1110.308913,2812.782580,-10035.851024
954.101414,-1406.391290,3108.864956,-9806.022374
954.101734,-518.144159,1850.514855,-9959.241474
954.102054,-222.061783,1258.350101,-9806.022374
954.102374,-2368.659014,444.123565,-10112.460574
954.102694,-222.061783,518.144159,-9652.803275
954.103014,148.041188,1480.411884,-10112.460574
954.103334,1332.370696,2220.617826,-9806.022374
954.103654,-2072.576638,962.267725,-9652.803275
954.103974,-3108.864956,-1480.411884,-9652.803275
954.104294,-1480.411884,-1850.514855,-9269.755526
954.104614,-1110.308913,-1332.370696,-9652.803275
954.104934,-1554.432478,74.020594,-9269.755526
954.105254,-1850.514855,888.247130,-10418.898773
954.105574,-592.164754,1702.473667,-9882.631924
954.105894,-888.247130,2146.597232,-10418.898773
954.106214,1924.535449,1480.411884,-9959.241474
954.106534,962.267725,-222.061783,-10342.289223
954.106854,-814.226536,-2220.617826,-10342.289223
954.107174,-1258.350101,-2146.597232,-9959.241474
954.107494,-592.164754,-2072.576638,-9806.022374
954.107814,888.247130,-1110.308913,-10112.460574
954.108134,814.226536,1924.535449,-10878.556072
954.108454,814.226536,2442.679609,-11108.384721
954.108774,2516.700203,1998.556043,-11031.775171
954.109094,2516.700203,1332.370696,-10878.556072
954.109414,2146.597232,296.082377,-10418.898773
954.109734,296.082377,-296.082377,-10035.851024
954.110054,1924.535449,-518.144159,-10342.289223
954.110374,3849.070898,-592.164754,-10265.679673
954.110694,2294.638420,-888.247130,-9806.022374
954.111014,518.144159,-296.082377,-10035.851024
954.111334,592.164754,740.205942,-9806.022374
954.111654,3404.947333,1998.556043,-10495.508323
954.111974,3478.967927,1702.473667,-10112.460574
954.112294,1332.370696,296.082377,-9959.241474
954.112614,518.144159,-3108.864956,-9576.193725
954.112934,2368.659014,-3849.070898,-9499.584175
954.113254,4441.235652,-2590.720797,-10035.851024
954.113574,2886.803174,0.000000,-9729.412825
954.113894,3923.091493,2590.720797,-10418.898773
954.114214,2886.803174,2294.638420,-10265.679673
954.114534,2220.617826,1036.288319,-10418.898773
954.114854,222.061783,518.144159,-10112.460574
954.115174,-740.205942,-2146.597232,-9652.803275
954.115494,-222.061783,-1776.494261,-9576.193725
954.115814,1184.329507,-1406.391290,-10112.460574
954.116134,-296.082377,-1036.288319,-9499.584175
954.116454,-2146.597232,-2442.679609,-9806.022374
954.116774,-2886.803174,-2664.741391,-9193.145976
954.117094,-1554.432478,-1406.391290,-10112.460574
954.117414,740.205942,0.000000,-10418.898773
954.117734,370.102971,2960.823768,-10342.289223
954.118054,-1110.308913,4367.215058,-10955.165621
954.118374,-2516.700203,2886.803174,-10418.898773
954.118694,-1924.535449,-148.041188,-10035.851024
954.119014,-814.226536,-2146.597232,-10112.460574
954.119334,-1184.329507,-3404.947333,-10189.070123
954.119654,-1776.494261,-1924.535449,-10572.117872
954.119974,-1776.494261,296.082377,-9806.022374
954.120294,-1110.308913,3849.070898,-10801.946522
954.120614,296.082377,6513.812290,-11414.822920
954.120934,-1702.473667,5477.523971,-10418.898773
954.121254,-222.061783,2590.720797,-10955.165621
954.121574,2220.617826,-1258.350101,-10418.898773
954.121894,1850.514855,-3108.864956,-9729.412825
954.122214,-1850.514855,-3552.988522,-9806.022374
954.122534,-3775.050304,0.000000,-8656.879127
954.122854,-1480.411884,3997.112087,-10878.556072
954.123174,-444.123565,4515.256246,-10112.460574
954.123494,814.226536,1332.370696,-10189.070123
954.123814,148.041188,-1036.288319,-9039.926876
954.124134,-2886.803174,-2738.761985,-9039.926876
954.124454,-962.267725,-3256.906145,-9576.193725
954.124774,0.000000,-592.164754,-9652.803275
954.125094,3404.947333,0.000000,-9882.631924
954.125414,5625.565159,814.226536,-9346.365076
954.125734,4219.173869,1628.453072,-10342.289223
954.126054,3404.947333,2442.679609,-10189.070123
954.126374,2590.720797,3108.864956,-10035.851024
954.126694,3182.885551,1702.473667,-9806.022374
954.127014,4367.215058,740.205942,-10189.070123
954.127334,2886.803174,-1110.308913,-10725.336972
954.127654,0.000000,-3552.988522,-8810.098227
954.127974,-592.164754,-2368.659014,-9959.241474
954.128294,2738.761985,2220.617826,-9959.241474
954.128614,3182.885551,4663.297435,-11414.822920
954.128934,3108.864956,5033.400406,-11031.775171
954.129254,666.185348,2812.782580,-9499.584175
954.129574,814.226536,-148.041188,-10495.508323
954.129894,1554.432478,-1628.453072,-10648.727422
954.130214,1850.514855,-1702.473667,-10189.070123
954.130534,-814.226536,-814.226536,-9346.365076
954.130854,1036.288319,296.082377,-10648.727422
954.131174,3108.864956,2442.679609,-10725.336972
954.131494,-444.123565,3627.009116,-10725.336972
954.131814,-2886.803174,2516.700203,-10265.679673
954.132134,-1184.329507,2368.659014,-10035.851024
954.132454,444.123565,740.205942,-10725.336972
954.132774,1406.391290,-2368.659014,-10189.070123
954.133094,-296.082377,-3108.864956,-8810.098227
954.133414,-1480.411884,-2738.761985,-9806.022374
954.133734,666.185348,-1110.308913,-9269.755526
954.134054,1406.391290,1924.535449,-10725.336972
954.134374,-740.205942,3775.050304,-10495.508323
954.134694,-1406.391290,3478.967927,-9806.022374
954.135013,-1110.308913,3404.947333,-10265.679673
954.135333,-1184.329507,148.041188,-9959.241474
954.135653,-1036.288319,-2664.741391,-8886.707777
954.135973,-2294.638420,-4071.132681,-9039.926876
954.136293,-3034.844362,-2960.823768,-8886.707777
954.136613,148.041188,-888.247130,-9729.412825
954.136933,740.205942,1332.370696,-10112.460574
954.137253,-2072.576638,2368.659014,-9959.241474
954.137573,-1480.411884,2738.761985,-10112.460574
954.137893,962.267725,3034.844362,-10648.727422
954.138213,3108.864956,1702.473667,-10801.946522
954.138533,3330.926739,0.000000,-11108.384721
954.138853,1110.308913,-370.102971,-9576.193725
954.139173,-888.247130,-1702.473667,-9269.755526
954.139493,740.205942,-666.185348,-10189.070123
954.139813,1258.350101,0.000000,-10112.460574
954.140133,-444.123565,296.082377,-10572.117872
954.140453,74.020594,2146.597232,-10112.460574
954.140773,666.185348,2220.617826,-10648.727422
954.141093,3108.864956,1332.370696,-10955.165621
954.141413,4367.215058,-296.082377,-10572.117872
954.141733,3478.967927,-1036.288319,-10648.727422
954.142053,1554.432478,888.247130,-10572.117872
954.142373,740.205942,222.061783,-9806.022374
954.142693,1332.370696,592.164754,-11031.775171
954.143013,2738.761985,666.185348,-10112.460574
954.143333,1554.432478,814.226536,-10572.117872
954.143653,666.185348,1332.370696,-10189.070123
954.143973,0.000000,962.267725,-9576.193725
954.144293,296.082377,-740.205942,-9806.022374
954.144613,1776.494261,-2294.638420,-9652.803275
954.144933,2072.576638,-3849.070898,-9116.536426
954.145253,-592.164754,-2664.741391,-9729.412825
954.145573,-666.185348,-1184.329507,-8963.317327
954.145893,444.123565,1776.494261,-9959.241474
954.146213,666.185348,2886.803174,-9499.584175
954.146533,592.164754,3256.906145,-9422.974625
954.146853,1924.535449,1480.411884,-10418.898773
954.147173,3108.864956,-1776.494261,-10189.070123
954.147493,1258.350101,-3182.885551,-9882.631924
954.147813,-2072.576638,-1850.514855,-9652.803275
954.148133,-1850.514855,-370.102971,-10112.460574
954.148453,740.205942,1924.535449,-10112.460574
954.148773,-1036.288319,1924.535449,-10725.336972
954.149093,-4071.132681,1184.329507,-10189.070123
954.149413,-1332.370696,148.041188,-10955.165621
954.149733,1110.308913,-888.247130,-10572.117872
954.150053,3108.864956,666.185348,-11031.775171
954.150373,592.164754,1776.494261,-10572.117872
954.150693,-1184.329507,3775.050304,-11491.432470
954.151013,-1924.535449,3182.885551,-10572.117872
954.151333,-1776.494261,2072.576638,-10265.679673
954.151653,-444.123565,1628.453072,-10265.679673
954.151973,148.041188,222.061783,-9806.022374
954.152293,518.144159,-1332.370696,-10648.727422
954.152613,296.082377,-1924.535449,-9806.022374
954.152933,-814.226536,-1924.535449,-9729.412825
954.153253,-1406.391290,-592.164754,-9806.022374
954.153573,-592.164754,148.041188,-8886.707777
954.153893,444.123565,592.164754,-9039.926876
954.154213,2368.659014,888.247130,-9346.365076
954.154533,3701.029710,0.000000,-9346.365076
954.154853,4367.215058,-1998.556043,-8810.098227
954.155173,3849.070898,-1628.453072,-9652.803275
954.155493,2368.659014,0.000000,-9422.974625
954.155813,1628.453072,-296.082377,-9806.022374
954.156133,222.061783,814.226536,-9422.974625
954.156453,-2368.659014,2368.659014,-9652.803275
954.156773,-2516.700203,1776.494261,-9806.022374
954.157093,666.185348,370.102971,-10648.727422
954.157412,2590.720797,148.041188,-9729.412825
954.157732,2960.823768,-1406.391290,-12027.699319
954.158052,2220.617826,-518.144159,-10035.851024
954.158372,2590.720797,0.000000,-10342.289223
954.158692,3775.050304,1628.453072,-10878.556072
954.159012,3034.844362,2294.638420,-10495.508323
954.159332,148.041188,3108.864956,-10648.727422
954.159652,-1332.370696,2368.659014,-10801.946522
954.159972,-1628.453072,148.041188,-10495.508323
954.160292,1332.370696,-1036.288319,-10725.336972
954.160612,1480.411884,-518.144159,-11108.384721
954.160932,-814.226536,-518.144159,-10035.851024
954.161252,-1332.370696,592.164754,-10648.727422
954.161572,-1184.329507,962.267725,-10572.117872
954.161892,-2146.597232,1998.556043,-10955.165621
954.162212,-962.267725,2368.659014,-10801.946522
954.162532,-740.205942,1036.288319,-9652.803275
954.162852,2294.638420,0.000000,-10112.460574
954.163172,3330.926739,-592.164754,-10418.898773
954.163492,2072.576638,-962.267725,-9422.974625
954.163812,0.000000,0.000000,-10265.679673
954.164132,-1332.370696,-666.185348,-9116.536426
954.164452,-1702.473667,-222.061783,-9422.974625
954.164772,-888.247130,296.082377,-9729.412825
954.165092,518.144159,592.164754,-9422.974625
954.165412,0.000000,1110.308913,-10265.679673
954.165732,0.000000,-370.102971,-9576.193725
954.166052,2220.617826,0.000000,-9806.022374
954.166372,2146.597232,0.000000,-9499.584175
954.166692,1480.411884,444.123565,-10189.070123
954.167012,-1480.411884,1184.329507,-9576.193725
954.167332,-592.164754,962.267725,-10572.117872
954.167652,1702.473667,1998.556043,-10265.679673
954.167972,1776.494261,2146.597232,-11031.775171
954.168292,0.000000,888.247130,-10035.851024
954.168612,518.144159,-814.226536,-9882.631924
954.168932,2368.659014,-1702.473667,-9652.803275
954.169252,3701.029710,-370.102971,-11568.042020
954.169572,1628.453072,-518.144159,-10725.336972
954.169892,-518.144159,962.267725,-10648.727422
954.170212,-1924.535449,2368.659014,-9959.241474
954.170532,0.000000,3108.864956,-11568.042020
954.170852,1036.288319,1110.308913,-10955.165621
954.171171,1998.556043,148.041188,-10495.508323
954.171491,1850.514855,-1184.329507,-9806.022374
954.171811,1850.514855,-1332.370696,-9882.631924
954.172131,2442.679609,-1998.556043,-9806.022374
954.172451,74.020594,-2220.617826,-10342.289223
954.172771,-1998.556043,-740.205942,-9346.365076
954.173091,-962.267725,2146.597232,-10418.898773
954.173411,-1110.308913,2072.576638,-8963.317327
954.173731,-1406.391290,74.020594,-10648.727422
954.174051,-592.164754,-888.247130,-9959.241474
954.174371,1628.453072,-1628.453072,-10495.508323
954.174691,3330.926739,-2294.638420,-10648.727422
954.175011,666.185348,-370.102971,-10572.117872
954.175331,-2590.720797,592.164754,-9499.584175
954.175651,-2738.761985,2368.659014,-9269.755526
954.175971,0.000000,2294.638420,-10189.070123
954.176291,1406.391290,74.020594,-10035.851024
954.176611,-962.267725,-3034.844362,-9882.631924
954.176931,0.000000,-3034.844362,-10035.851024
954.177251,-518.144159,-1258.350101,-9729.412825
954.177571,0.000000,888.247130,-10189.070123
954.177891,74.020594,1628.453072,-10418.898773
954.178211,-814.226536,444.123565,-10801.946522
954.178531,1554.432478,740.205942,-11031.775171
954.178851,814.226536,370.102971,-10112.460574
954.179171,-444.123565,1628.453072,-9806.022374
954.179491,1258.350101,2368.659014,-11568.042020
954.179811,2442.679609,518.144159,-9882.631924
954.180131,4145.153275,0.000000,-11184.994271
954.180451,888.247130,-296.082377,-9576.193725
954.180771,-1702.473667,444.123565,-9269.755526
954.181091,-1332.370696,1850.514855,-9806.022374
954.181411,3849.070898,2368.659014,-9959.241474
954.181731,5107.421000,1628.453072,-10035.851024
954.182051,2812.782580,-666.185348,-9652.803275
954.182371,0.000000,-2442.679609,-8656.879127
954.182691,-148.041188,-1924.535449,-9193.145976
954.183011,1628.453072,740.205942,-9806.022374
954.183331,3404.947333,1406.391290,-9499.584175
954.183651,2146.597232,2960.823768,-9729.412825
954.183971,3034.844362,1924.535449,-10112.460574
954.184291,1110.308913,2368.659014,-10725.336972
954.184611,-1554.432478,1776.494261,-10418.898773
954.184930,-222.061783,-444.123565,-9193.145976
954.185250,1702.473667,444.123565,-9959.241474
954.185570,2886.803174,-444.123565,-10418.898773
954.185890,1110.308913,-518.144159,-10725.336972
954.186210,-962.267725,-1480.411884,-9959.241474
954.186530,-444.123565,962.267725,-10878.556072
954.186850,-740.205942,2960.823768,-10418.898773
954.187170,1184.329507,3108.864956,-10495.508323
954.187490,1776.494261,3478.967927,-10725.336972
954.187810,2368.659014,-296.082377,-10955.165621
954.188130,3182.885551,-2294.638420,-10878.556072
954.188450,-1332.370696,-3330.926739,-9729.412825
954.188770,-5033.400406,-1554.432478,-9346.365076
954.189090,-3701.029710,1184.329507,-11184.994271
954.189410,-3256.906145,1924.535449,-9806.022374
954.189730,-5107.421000,2294.638420,-10648.727422
954.190050,-3552.988522,-740.205942,-8886.707777
954.190370,1998.556043,-2220.617826,-9806.022374
954.190690,3330.926739,-2960.823768,-9806.022374
954.191010,1258.350101,-1554.432478,-9422.974625
954.191330,-1332.370696,-148.041188,-9039.926876
954.191650,222.061783,2590.720797,-9882.631924
954.191970,1480.411884,1628.453072,-9576.193725
954.192290,3775.050304,1406.391290,-10648.727422
954.192610,-1258.350101,-444.123565,-9346.365076
954.192930,-1628.453072,-1554.432478,-9729.412825
954.193250,-1110.308913,-1480.411884,-9193.145976
954.193570,-296.082377,-2294.638420,-9806.022374
954.193890,2664.741391,-1110.308913,-9959.241474
954.194210,1702.473667,0.000000,-10035.851024
954.194530,148.041188,1184.329507,-10572.117872
954.194850,-592.164754,2442.679609,-10265.679673
954.195170,0.000000,1110.308913,-10495.508323
954.195490,1110.308913,-296.082377,-10801.946522
954.195810,3330.926739,-370.102971,-10189.070123
954.196130,3330.926739,-518.144159,-10878.556072
954.196450,2590.720797,-592.164754,-10418.898773
954.196770,2368.659014,-518.144159,-10572.117872
954.197090,1480.411884,814.226536,-11721.261119
954.197410,-370.102971,0.000000,-9422.974625
954.197730,-592.164754,740.205942,-9806.022374
954.198050,1480.411884,740.205942,-9882.631924
954.198370,5403.503377,0.000000,-11261.603821
954.198689,6291.750507,222.061783,-11031.775171
954.199009,3256.906145,-518.144159,-9806.022374
954.199329,370.102971,-740.205942,-10112.460574
954.199649,0.000000,0.000000,-9806.022374
954.199969,1406.391290,814.226536,-9729.412825
954.200289,1184.329507,2072.576638,-9576.193725
954.200609,222.061783,1406.391290,-10035.851024
954.200929,814.226536,444.123565,-10495.508323
954.201249,1258.350101,-1554.432478,-9269.755526
954.201569,518.144159,-1924.535449,-9422.974625
954.201889,2220.617826,-1998.556043,-9269.755526
954.202209,1850.514855,-370.102971,-10035.851024
954.202529,-518.144159,518.144159,-9806.022374
954.202849,-2368.659014,2146.597232,-10189.070123
954.203169,-2368.659014,2368.659014,-9346.365076
954.203489,-1332.370696,1184.329507,-9729.412825
954.203809,1628.453072,-222.061783,-9806.022374
954.204129,1776.494261,-1702.473667,-9806.022374
954.204449,-370.102971,-1850.514855,-10112.460574
954.204769,-2516.700203,-592.164754,-10112.460574
954.205089,-3034.844362,1406.391290,-9959.241474
954.205409,-888.247130,2590.720797,-10418.898773
954.205729,-740.205942,2516.700203,-10189.070123
954.206049,-814.226536,1480.411884,-10878.556072
954.206369,-2368.659014,-666.185348,-9729.412825
954.206689,-1924.535449,-1924.535449,-10342.289223
954.207009,-740.205942,-1554.432478,-9806.022374
954.207329,2220.617826,-148.041188,-11031.775171
954.207649,814.226536,1480.411884,-9959.241474
954.207969,-962.267725,1998.556043,-10189.070123
954.208289,-1184.329507,1998.556043,-9729.412825
954.208609,740.205942,1258.350101,-10189.070123
954.208929,0.000000,1258.350101,-10265.679673
954.209249,-666.185348,296.082377,-9806.022374
954.209569,592.164754,-1554.432478,-9806.022374
954.209889,3034.844362,-2220.617826,-9039.926876
954.210209,3182.885551,-1258.350101,-9806.022374
954.210529,-222.061783,1702.473667,-9959.241474
954.210849,-3701.029710,2812.782580,-9116.536426
954.211169,-814.226536,1628.453072,-10265.679673
954.211489,3627.009116,814.226536,-9346.365076
954.211809,3478.967927,-962.267725,-10342.289223
954.212128,1924.535449,1332.370696,-9882.631924
954.212448,1184.329507,2516.700203,-9652.803275
954.212768,4293.194464,1924.535449,-10955.165621
954.213088,3849.070898,74.020594,-10035.851024
954.213408,740.205942,-2960.823768,-9346.365076
954.213728,-962.267725,-2960.823768,-9499.584175
954.214048,-518.144159,-296.082377,-9806.022374
954.214368,3701.029710,814.226536,-10265.679673
954.214688,5995.668130,2442.679609,-11031.775171
954.215008,3478.967927,3034.844362,-10648.727422
954.215328,2738.761985,1850.514855,-10878.556072
954.215648,1554.432478,0.000000,-10572.117872
954.215968,-740.205942,-1554.432478,-9346.365076
954.216288,-2442.679609,-1258.350101,-9959.241474
954.216608,-1036.288319,-370.102971,-10418.898773
954.216928,1776.494261,-222.061783,-10418.898773
954.217248,1850.514855,666.185348,-10189.070123
954.217568,-888.247130,888.247130,-10418.898773
954.217888,-888.247130,1184.329507,-10418.898773
954.218208,0.000000,1554.432478,-10495.508323
954.218528,2294.638420,2442.679609,-10418.898773
954.218848,1554.432478,814.226536,-9806.022374
954.219168,-1702.473667,-740.205942,-10342.289223
954.219488,-3701.029710,-1554.432478,-9806.022374
954.219808,-2516.700203,-2812.782580,-10035.851024
954.220128,-444.123565,-1258.350101,-9499.584175
954.220448,-222.061783,222.061783,-9959.241474
954.220768,-444.123565,2368.659014,-9806.022374
954.221088,-296.082377,2664.741391,-10265.679673
954.221408,-888.247130,1110.308913,-9652.803275
954.221728,-1110.308913,-444.123565,-9652.803275
954.222048,-2812.782580,-1036.288319,-9576.193725
954.222368,-3997.112087,-888.247130,-9576.193725
954.222688,-3997.112087,-1184.329507,-9576.193725
954.223008,3034.844362,-814.226536,-10801.946522
954.223328,592.164754,-1184.329507,-9576.193725
954.223648,-592.164754,-296.082377,-10112.460574
954.223968,1184.329507,2146.597232,-9346.365076
954.224288,4145.153275,1776.494261,-11108.384721
954.224608,1184.329507,1258.350101,-9346.365076
954.224928,444.123565,222.061783,-10648.727422
954.225248,592.164754,888.247130,-10572.117872
954.225568,2220.617826,370.102971,-10189.070123
954.225887,3256.906145,-1110.308913,-9882.631924
954.226207,2072.576638,148.041188,-9346.365076
954.226527,2146.597232,2812.782580,-11031.775171
954.226847,3256.906145,2590.720797,-10878.556072
954.227167,1554.432478,1110.308913,-10495.508323
954.227487,-1184.329507,-888.247130,-10342.289223
954.227807,-2368.659014,-740.205942,-9806.022374
954.228127,-296.082377,-444.123565,-9499.584175
954.228447,1776.494261,-296.082377,-10035.851024
954.228767,3552.988522,1184.329507,-9806.022374
954.229087,4811.338623,1850.514855,-10878.556072
954.229407,6883.915261,2812.782580,-11184.994271
954.229727,4145.153275,1554.432478,-10648.727422
954.230047,3330.926739,1628.453072,-10572.117872
954.230367,-1406.391290,888.247130,-9346.365076
954.230687,-962.267725,0.000000,-9806.022374
954.231007,-518.144159,-1184.329507,-9499.584175
954.231327,148.041188,-2664.741391,-9806.022374
954.231647,1110.308913,-1554.432478,-9576.193725
954.231967,444.123565,814.226536,-9652.803275
954.232287,-296.082377,2516.700203,-10342.289223
954.232607,-1036.288319,0.000000,-9806.022374
954.232927,-444.123565,0.000000,-9806.022374
954.233247,-740.205942,-1924.535449,-8963.317327
954.233567,592.164754,-666.185348,-10189.070123
954.233887,-1776.494261,-740.205942,-9576.193725
954.234207,-4589.276840,-962.267725,-9882.631924
954.234527,-4737.318029,-666.185348,-8733.488677
954.234847,-222.061783,-296.082377,-9959.241474
954.235167,-518.144159,-518.144159,-10035.851024
954.235487,-814.226536,-296.082377,-9806.022374
954.235807,-2368.659014,-962.267725,-9729.412825
954.236127,-962.267725,666.185348,-9806.022374
954.236447,0.000000,1480.411884,-9959.241474
954.236767,0.000000,1332.370696,-10572.117872
954.237087,-1036.288319,962.267725,-9882.631924
954.237407,-1110.308913,296.082377,-10418.898773
954.237727,1110.308913,148.041188,-10189.070123
954.238047,2664.741391,-148.041188,-11568.042020
954.238367,2220.617826,-1480.411884,-10189.070123
954.238687,222.061783,-1702.473667,-9959.241474
954.239007,222.061783,-296.082377,-10035.851024
954.239327,740.205942,1850.514855,-10648.727422
954.239646,296.082377,2368.659014,-10495.508323
954.239966,-518.144159,2960.823768,-10878.556072
954.240286,1776.494261,1924.535449,-9882.631924
954.240606,5477.523971,888.247130,-10495.508323
954.240926,3997.112087,-1554.432478,-9806.022374
954.241246,2960.823768,-2072.576638,-9346.365076
954.241566,1850.514855,-1184.329507,-10112.460574
954.241886,3182.885551,-2294.638420,-9499.584175
954.242206,3034.844362,0.000000,-9882.631924
954.242526,592.164754,592.164754,-9806.022374
954.242846,0.000000,2590.720797,-9729.412825
954.243166,3849.070898,1850.514855,-10342.289223
954.243486,4071.132681,518.144159,-9806.022374
954.243806,666.185348,148.041188,-10342.289223
954.244126,444.123565,592.164754,-9729.412825
954.244446,296.082377,-814.226536,-9806.022374
954.244766,2960.823768,-962.267725,-9959.241474
954.245086,1924.535449,0.000000,-9882.631924
954.245406,222.061783,1184.329507,-11108.384721
954.245726,-740.205942,1702.473667,-10112.460574
954.246046,370.102971,1850.514855,-10189.070123
954.246366,666.185348,1776.494261,-9729.412825
954.246686,-222.061783,444.123565,-10495.508323
954.247006,-814.226536,-888.247130,-10648.727422
954.247326,0.000000,-1184.329507,-10955.165621
954.247646,-1480.411884,1480.411884,-9882.631924
954.247966,-3256.906145,2886.803174,-9959.241474
954.248286,-2886.803174,1924.535449,-9806.022374
954.248606,-1036.288319,-148.041188,-10265.679673
954.248926,0.000000,-2220.617826,-11338.213370
954.249246,-518.144159,-2072.576638,-9116.536426
954.249566,222.061783,-1554.432478,-10035.851024
954.249887,1924.535449,1702.473667,-10725.336972
954.250207,1258.350101,4219.173869,-9882.631924
954.250527,-3923.091493,3552.988522,-10495.508323
954.250847,-5847.626942,1850.514855,-9576.193725
954.251167,-5181.441594,-740.205942,-9806.022374
954.251487,74.020594,-1406.391290,-10035.851024
954.251807,3034.844362,666.185348,-9652.803275
954.252127,1998.556043,-148.041188,-9959.241474
954.252447,1110.308913,-444.123565,-9422.974625
954.252767,2368.659014,370.102971,-9729.412825
954.253087,4145.153275,962.267725,-10112.460574
954.253407,3404.947333,1554.432478,-9806.022374
954.253727,1480.411884,2590.720797,-10112.460574
954.254047,0.000000,2146.597232,-10112.460574
954.254367,1036.288319,740.205942,-9729.412825
954.254687,0.000000,-1258.350101,-10342.289223
954.255008,-1776.494261,-2590.720797,-9346.365076
954.255328,-3182.885551,-1850.514855,-9039.926876
954.255648,-1332.370696,-1702.473667,-9806.022374
954.255968,666.185348,-814.226536,-10189.070123
954.256288,1110.308913,1036.288319,-10112.460574
954.256608,2590.720797,2738.761985,-11184.994271
954.256928,4441.235652,2220.617826,-10265.679673
954.257248,5181.441594,1628.453072,-10189.070123
954.257568,5625.565159,1332.370696,-10955.165621
954.257888,5625.565159,-518.144159,-11031.775171
954.258208,4293.194464,-1110.308913,-10801.946522
954.258528,666.185348,-1480.411884,-9499.584175
954.258848,-1332.370696,222.061783,-11184.994271
954.259168,666.185348,2072.576638,-10878.556072
954.259488,1776.494261,2146.597232,-10801.946522
954.259808,-1036.288319,1036.288319,-9959.241474
954.260129,-3552.988522,-1406.391290,-9806.022374
954.260449,-2664.741391,-3552.988522,-10418.898773
954.260769,148.041188,-3478.967927,-9882.631924
954.261089,370.102971,-962.267725,-9806.022374
954.261409,-592.164754,1110.308913,-9806.022374
954.261729,-370.102971,2886.803174,-10112.460574
954.262049,1036.288319,666.185348,-10189.070123
954.262369,1258.350101,1036.288319,-10112.460574
954.262689,0.000000,-222.061783,-10265.679673
954.263009,-296.082377,-2220.617826,-10342.289223
954.263329,-370.102971,-1850.514855,-10189.070123
954.263649,-1554.432478,-518.144159,-9882.631924
954.263969,-2886.803174,148.041188,-9269.755526
954.264289,-3478.967927,-518.144159,-10342.289223
954.264609,-2368.659014,-814.226536,-9576.193725
954.264929,-1702.473667,296.082377,-10418.898773
954.265249,0.000000,888.247130,-10342.289223
954.265570,370.102971,2220.617826,-10955.165621
954.265890,1184.329507,2516.700203,-10112.460574
954.266210,888.247130,2146.597232,-10495.508323
954.266530,370.102971,-370.102971,-9806.022374
954.266850,518.144159,-2072.576638,-10112.460574
954.267170,370.102971,-2664.741391,-10572.117872
954.267490,296.082377,-962.267725,-9576.193725
954.267810,-1110.308913,1110.308913,-9959.241474
954.268130,-1554.432478,4589.276840,-9806.022374
954.268450,-1036.288319,3108.864956,-10801.946522
954.268770,296.082377,-2368.659014,-8810.098227
954.269090,2220.617826,-2368.659014,-8427.050478
954.269410,1850.514855,-2220.617826,-9959.241474
954.269730,1480.411884,2368.659014,-9806.022374
954.270050,1998.556043,4515.256246,-10725.336972
954.270370,3701.029710,4145.153275,-10035.851024
954.270691,3404.947333,1480.411884,-9959.241474
954.271011,2886.803174,-1184.329507,-9959.241474
954.271331,1850.514855,-2590.720797,-9729.412825
954.271651,1776.494261,-1110.308913,-9729.412825
954.271971,2590.720797,2516.700203,-10112.460574
954.272291,4589.276840,3404.947333,-10342.289223
954.272611,3849.070898,1702.473667,-9959.241474
954.272931,0.000000,222.061783,-10035.851024
954.273251,-222.061783,666.185348,-10342.289223
954.273571,2368.659014,0.000000,-9959.241474
954.273891,5255.462188,1258.350101,-10265.679673
954.274211,5329.482782,962.267725,-10265.679673
954.274531,4071.132681,1036.288319,-10342.289223
954.274851,1776.494261,1036.288319,-10265.679673
954.275171,-1776.494261,1480.411884,-10265.679673
954.275491,-5403.503377,2812.782580,-9806.022374
954.275812,-7476.080014,0.000000,-10189.070123
954.276132,-3108.864956,-2590.720797,-9729.412825
954.276452,444.123565,-4589.276840,-10725.336972
954.276772,2294.638420,-3404.947333,-10112.460574
954.277092,-814.226536,1184.329507,-10725.336972
954.277412,-3478.967927,4145.153275,-11184.994271
954.277732,-2072.576638,6217.729913,-11184.994271
954.278052,-444.123565,5033.400406,-10189.070123
954.278372,74.020594,814.226536,-10572.117872
954.278692,-1628.453072,-3330.926739,-9959.241474
954.279012,-2220.617826,-4515.256246,-9499.584175
954.279332,-962.267725,-1110.308913,-9959.241474
954.279652,0.000000,2146.597232,-9882.631924
954.279972,-740.205942,3404.947333,-10265.679673
954.280292,-1776.494261,1554.432478,-10112.460574
954.280612,-592.164754,-1036.288319,-9806.022374
954.280933,-2812.782580,-666.185348,-10342.289223
954.281253,-2664.741391,-1406.391290,-9193.145976
954.281573,-1554.432478,-1184.329507,-9422.974625
954.281893,-296.082377,-1110.308913,-9346.365076
954.282213,1480.411884,-518.144159,-9576.193725
954.282533,1332.370696,-592.164754,-9959.241474
954.282853,2442.679609,962.267725,-10495.508323
954.283173,2516.700203,1406.391290,-9806.022374
954.283493,1184.329507,2368.659014,-10418.898773
954.283813,0.000000,1480.411884,-9882.631924
954.284133,1554.432478,-1332.370696,-9806.022374
954.284453,1850.514855,-2738.761985,-10572.117872
954.284773,2368.659014,-2368.659014,-10572.117872
954.285093,2516.700203,-1332.370696,-9652.803275
954.285413,4219.173869,740.205942,-10418.898773
954.285733,4441.235652,2664.741391,-10725.336972
954.286054,4219.173869,4293.194464,-11031.775171
954.286374,1406.391290,1406.391290,-10495.508323
954.286694,1184.329507,-666.185348,-10112.460574
954.287014,1554.432478,-3330.926739,-9806.022374
954.287334,1776.494261,-3552.988522,-9652.803275
954.287654,1184.329507,-1850.514855,-9576.193725
954.287974,740.205942,444.123565,-10035.851024
954.288294,1332.370696,2294.638420,-10189.070123
954.288614,2590.720797,1850.514855,-10342.289223
954.288934,0.000000,1036.288319,-9882.631924
954.289254,-222.061783,-1110.308913,-9806.022374
954.289574,1184.329507,-1406.391290,-9576.193725
954.289894,5107.421000,-1998.556043,-10342.289223
954.290214,4441.235652,0.000000,-10495.508323
954.290534,1702.473667,740.205942,-10189.070123
954.290854,666.185348,1480.411884,-9422.974625
954.291175,814.226536,1184.329507,-10418.898773
954.291495,370.102971,222.061783,-10035.851024
954.291815,-2812.782580,148.041188,-9959.241474
954.292135,-4737.318029,-444.123565,-9806.022374
954.292455,-2738.761985,-1406.391290,-9806.022374
954.292775,222.061783,-444.123565,-10035.851024
954.293095,148.041188,1924.535449,-10035.851024
954.293415,-2146.597232,3330.926739,-11108.384721
954.293735,-2220.617826,1702.473667,-10342.289223
954.294055,-1184.329507,666.185348,-10878.556072
954.294375,444.123565,1332.370696,-10342.289223
954.294695,-370.102971,3182.885551,-10725.336972
954.295015,-3330.926739,592.164754,-10112.460574
954.295335,-2590.720797,-296.082377,-10342.289223
954.295655,-1554.432478,-2220.617826,-9116.536426
954.295975,296.082377,-1184.329507,-9806.022374
954.296296,814.226536,888.247130,-10495.508323
954.296616,1036.288319,888.247130,-10112.460574
954.296936,1998.556043,1110.308913,-10265.679673
954.297256,1480.411884,962.267725,-9806.022374
954.297576,1406.391290,1776.494261,-9499.584175
954.297896,-296.082377,2590.720797,-10265.679673
954.298216,-1258.350101,592.164754,-10112.460574
954.298536,-1332.370696,-1036.288319,-9422.974625
954.298856,-444.123565,444.123565,-9346.365076
954.299176,1110.308913,740.205942,-9652.803275
954.299496,1036.288319,74.020594,-9806.022374
954.299816,296.082377,666.185348,-9652.803275
954.300136,1554.432478,2442.679609,-10112.460574
954.300456,2442.679609,814.226536,-9806.022374
954.300776,3108.864956,370.102971,-9806.022374
954.301096,3182.885551,0.000000,-9959.241474
954.301417,3701.029710,296.082377,-9959.241474
954.301737,4811.338623,1776.494261,-10418.898773
954.302057,3182.885551,2664.741391,-10495.508323
954.302377,0.000000,2442.679609,-9959.241474
954.302697,1628.453072,148.041188,-10418.898773
954.303017,2294.638420,0.000000,-9806.022374
954.303337,1554.432478,-1480.411884,-11184.994271
954.303657,1998.556043,-2886.803174,-9116.536426
954.303977,1406.391290,-1332.370696,-10418.898773
954.304297,-592.164754,74.020594,-9652.803275
954.304617,1406.391290,1924.535449,-10418.898773
954.304937,2220.617826,2294.638420,-11797.870669
954.305257,1998.556043,1110.308913,-9882.631924
954.305577,-740.205942,0.000000,-10648.727422
954.305897,-1702.473667,0.000000,-9806.022374
954.306217,-1110.308913,-962.267725,-10342.289223
954.306538,-222.061783,222.061783,-10648.727422
954.306858,-814.226536,-1036.288319,-9346.365076
954.307178,-296.082377,148.041188,-9652.803275
954.307498,370.102971,0.000000,-10112.460574
954.307818,518.144159,444.123565,-10189.070123
954.308138,-888.247130,1110.308913,-9806.022374
954.308458,-3775.050304,1406.391290,-10112.460574
954.308778,-3775.050304,814.226536,-9806.022374
954.309098,-814.226536,-222.061783,-10189.070123
954.309418,-814.226536,0.000000,-9806.022374
954.309738,0.000000,-222.061783,-9959.241474
954.310058,518.144159,962.267725,-10112.460574
954.310378,1776.494261,1332.370696,-9806.022374
954.310698,1406.391290,1036.288319,-10265.679673
954.311018,222.061783,1554.432478,-10189.070123
954.311338,-148.041188,1480.411884,-10189.070123
954.311659,1998.556043,814.226536,-9729.412825
954.311979,2516.700203,1258.350101,-9806.022374
954.312299,1480.411884,1998.556043,-10572.117872
954.312619,1258.350101,2442.679609,-10342.289223
954.312939,2516.700203,1406.391290,-9882.631924
954.313259,2886.803174,370.102971,-10418.898773
954.313579,1554.432478,1332.370696,-10112.460574
954.313899,-148.041188,1258.350101,-10648.727422
954.314219,1406.391290,1110.308913,-9806.022374
954.314539,4589.276840,666.185348,-10035.851024
954.314859,5403.503377,592.164754,-10112.460574
954.315179,2220.617826,962.267725,-9806.022374
954.315499,-962.267725,518.144159,-9576.193725
954.315819,-1332.370696,2294.638420,-8963.317327
954.316139,1850.514855,3627.009116,-9576.193725
954.316459,5625.565159,4219.173869,-11031.775171
954.316780,6735.874072,1998.556043,-10495.508323
954.317100,6365.771101,518.144159,-10189.070123
954.317420,4515.256246,888.247130,-9806.022374
954.317740,4293.194464,3108.864956,-10112.460574
954.318060,4367.215058,4811.338623,-10572.117872
954.318380,2664.741391,4885.359217,-10112.460574
954.318700,296.082377,3849.070898,-9729.412825
954.319020,148.041188,1332.370696,-9652.803275
954.319340,1554.432478,-592.164754,-10342.289223
954.319660,2220.617826,-222.061783,-9882.631924
954.319980,2146.597232,1776.494261,-9729.412825
954.320300,370.102971,3478.967927,-9806.022374
954.320620,-296.082377,3923.091493,-9576.193725
954.320940,518.144159,3775.050304,-10495.508323
954.321260,1702.473667,3849.070898,-10112.460574
954.321580,3256.906145,3775.050304,-11874.480219
954.321901,2294.638420,3330.926739,-10648.727422
954.322221,814.226536,592.164754,-9729.412825
954.322541,-518.144159,-1110.308913,-10265.679673
954.322861,0.000000,0.000000,-9422.974625
954.323181,74.020594,1776.494261,-10265.679673
954.323501,-148.041188,3627.009116,-10342.289223
954.323821,0.000000,4145.153275,-9806.022374
954.324141,1776.494261,2960.823768,-10725.336972
954.324461,3923.091493,962.267725,-9576.193725
954.324781,3923.091493,-888.247130,-9576.193725
954.325101,2960.823768,148.041188,-10189.070123
954.325421,3256.906145,1258.350101,-9422.974625
954.325741,2516.700203,4145.153275,-10648.727422
954.326061,3849.070898,4441.235652,-10418.898773
954.326381,2812.782580,3330.926739,-9422.974625
954.326701,296.082377,1924.535449,-10572.117872
954.327022,740.205942,1110.308913,-9729.412825
954.327342,1110.308913,1628.453072,-9806.022374
954.327662,1850.514855,0.000000,-10648.727422
954.327982,2664.741391,-444.123565,-9499.584175
954.328302,2516.700203,592.164754,-10418.898773
954.328622,3552.988522,2664.741391,-9959.241474
954.328942,4441.235652,5773.606348,-10035.851024
954.329262,4367.215058,5329.482782,-11644.651570
954.329582,3849.070898,3552.988522,-10418.898773
954.329902,3552.988522,666.185348,-10342.289223
954.330222,4367.215058,-740.205942,-12027.699319
954.330542,3256.906145,1480.411884,-9652.803275
954.330862,1702.473667,4293.194464,-10801.946522
954.331182,2146.597232,6365.771101,-11721.261119
954.331502,3997.112087,4367.215058,-10265.679673
954.331822,4219.173869,2368.659014,-10801.946522
954.332143,2886.803174,0.000000,-9882.631924
954.332463,1406.391290,-148.041188,-9193.145976
954.332783,1628.453072,1258.350101,-10189.070123
954.333103,3923.091493,2442.679609,-9959.241474
954.333423,4145.153275,2738.761985,-10189.070123
954.333743,4071.132681,3182.885551,-10112.460574
954.334063,4959.379811,2960.823768,-10265.679673
954.334383,5033.400406,3478.967927,-10342.289223
954.334703,3775.050304,4219.173869,-10495.508323
954.335023,1110.308913,3182.885551,-9652.803275
954.335343,296.082377,1406.391290,-9806.022374
954.335663,1332.370696,0.000000,-8810.098227
954.335983,2368.659014,-518.144159,-8810.098227
954.336303,1850.514855,888.247130,-9806.022374
954.336623,370.102971,2886.803174,-9729.412825
954.336943,592.164754,4737.318029,-9806.022374
954.337264,2886.803174,4737.318029,-10035.851024
954.337584,3775.050304,3775.050304,-10035.851024
954.337904,2072.576638,1776.494261,-9959.241474
954.338224,1628.453072,1924.535449,-9652.803275
954.338544,1406.391290,2886.803174,-10112.460574
954.338864,592.164754,3923.091493,-11721.261119
954.339184,0.000000,3701.029710,-9882.631924
954.339504,74.020594,2664.741391,-10112.460574
954.339824,-148.041188,2738.761985,-9882.631924
954.340144,74.020594,2812.782580,-9959.241474
954.340464,2368.659014,3034.844362,-10648.727422
954.340784,3108.864956,3330.926739,-10801.946522
954.341104,2072.576638,2812.782580,-9882.631924
954.341424,-148.041188,2664.741391,-10418.898773
954.341744,888.247130,3330.926739,-9729.412825
954.342064,3256.906145,3849.070898,-10878.556072
954.342385,3849.070898,4367.215058,-11108.384721
954.342705,2294.638420,3923.091493,-10725.336972
954.343025,1332.370696,3182.885551,-10801.946522
954.343345,1332.370696,1702.473667,-10342.289223
954.343665,222.061783,2220.617826,-9882.631924
954.343985,-296.082377,2516.700203,-9806.022374
954.344305,1258.350101,3478.967927,-9882.631924
954.344625,4811.338623,3330.926739,-11031.775171
954.344945,5477.523971,3182.885551,-10112.460574
954.345265,4959.379811,2516.700203,-10495.508323
954.345585,4663.297435,3256.906145,-9806.022374
954.345905,5255.462188,4367.215058,-10495.508323
954.346225,4589.276840,5329.482782,-10265.679673
954.346548,2146.597232,4145.153275,-10189.070123
954.346868,148.041188,2294.638420,-9346.365076
954.347188,888.247130,666.185348,-9576.193725
954.347508,3627.009116,518.144159,-9729.412825
954.347828,4737.318029,2220.617826,-10035.851024
954.348148,4515.256246,3108.864956,-10112.460574
954.348468,4367.215058,4589.276840,-9882.631924
954.348788,4589.276840,4589.276840,-9269.755526
954.349108,4515.256246,4219.173869,-10572.117872
954.349428,2960.823768,2886.803174,-10648.727422
954.349748,2368.659014,1850.514855,-9729.412825
954.350068,3182.885551,1184.329507,-9576.193725
954.350388,4441.235652,740.205942,-10112.460574
954.350708,3034.844362,1406.391290,-10189.070123
954.351027,888.247130,1554.432478,-9806.022374
954.351347,1036.288319,2590.720797,-10189.070123
954.351667,1998.556043,2368.659014,-9652.803275
954.351987,2812.782580,2294.638420,-10342.289223
954.352307,3108.864956,1628.453072,-10265.679673
954.352627,2368.659014,1924.535449,-10035.851024
954.352947,1036.288319,2368.659014,-10495.508323
954.353267,222.061783,2960.823768,-9806.022374
954.353587,888.247130,2664.741391,-10265.679673
954.353907,2072.576638,2294.638420,-10495.508323
954.354227,2220.617826,1924.535449,-9959.241474
954.354547,666.185348,1554.432478,-10648.727422
954.354867,-666.185348,1258.350101,-9806.022374
954.355186,-518.144159,1480.411884,-9346.365076
954.355506,1036.288319,1850.514855,-10495.508323
954.355826,2960.823768,1332.370696,-9499.584175
954.356146,3182.885551,1776.494261,-10035.851024
954.356466,1776.494261,2220.617826,-10265.679673
954.356786,444.123565,2886.803174,-9882.631924
954.357106,370.102971,3330.926739,-9882.631924
954.357426,1480.411884,2516.700203,-10342.289223
954.357746,2220.617826,370.102971,-9652.803275
954.358066,1480.411884,148.041188,-10035.851024
954.358386,2146.597232,814.226536,-9882.631924
954.358706,2590.720797,3256.906145,-9959.241474
954.359026,2146.597232,5255.462188,-10112.460574
954.359345,2220.617826,4515.256246,-10342.289223
954.359665,3478.967927,2664.741391,-10189.070123
954.359985,4145.153275,740.205942,-10265.679673
954.360305,2886.803174,518.144159,-10495.508323
954.360625,1776.494261,1776.494261,-10265.679673
954.360945,1628.453072,3330.926739,-10265.679673
954.361265,1776.494261,4071.132681,-10418.898773
954.361585,1554.432478,3330.926739,-9959.241474
954.361905,1776.494261,1850.514855,-9882.631924
954.362225,3108.864956,888.247130,-10572.117872
954.362545,4885.359217,1406.391290,-10265.679673
954.362865,4811.338623,2516.700203,-10342.289223
954.363185,4589.276840,4071.132681,-10265.679673
954.363504,4737.318029,4293.194464,-10035.851024
954.363824,4293.194464,4737.318029,-10418.898773
954.364144,1924.535449,4663.297435,-10572.117872
954.364464,-296.082377,3627.009116,-9882.631924
954.364784,592.164754,1702.473667,-9959.241474
954.365104,2368.659014,-296.082377,-9729.412825
954.365424,3256.906145,-888.247130,-9806.022374
954.365744,2590.720797,444.123565,-9576.193725
954.366064,2368.659014,3849.070898,-8350.440928
954.366384,3701.029710,6587.832884,-10265.679673
954.366704,5477.523971,7994.224174,-10725.336972
954.367024,5107.421000,6735.874072,-10878.556072
954.367344,3034.844362,3775.050304,-9959.241474
954.367663,1702.473667,1332.370696,-10189.070123
954.367983,0.000000,148.041188,-9652.803275
954.368303,-666.185348,444.123565,-9729.412825
954.368623,222.061783,1406.391290,-9576.193725
954.368943,1554.432478,1702.473667,-10112.460574
954.369263,1850.514855,2368.659014,-9806.022374
954.369583,2442.679609,3478.967927,-9959.241474
954.369903,3849.070898,5107.421000,-10342.289223
954.370223,5921.647536,6291.750507,-10418.898773
954.370543,6587.832884,6143.709319,-10418.898773
954.370863,5033.400406,4515.256246,-9882.631924
954.371183,2368.659014,2590.720797,-10035.851024
954.371503,1332.370696,2072.576638,-10112.460574
954.371823,592.164754,2442.679609,-10189.070123
954.372142,-444.123565,2960.823768,-9882.631924
954.372462,-1332.370696,2590.720797,-9806.022374
954.372782,-1702.473667,1628.453072,-9806.022374
954.373102,-1110.308913,814.226536,-9806.022374
954.373422,1110.308913,592.164754,-9729.412825
954.373742,3404.947333,1776.494261,-9959.241474
954.374062,5551.544565,3108.864956,-9959.241474
954.374382,6513.812290,4737.318029,-10342.289223
954.374702,5995.668130,6291.750507,-9882.631924
954.375022,4219.173869,6069.688724,-10418.898773
954.375342,2368.659014,5181.441594,-10572.117872
954.375662,1110.308913,3849.070898,-10189.070123
954.375982,444.123565,1998.556043,-10801.946522
954.376301,148.041188,0.000000,-9882.631924
954.376621,-666.185348,-740.205942,-9652.803275
954.376941,-814.226536,-666.185348,-9499.584175
954.377261,-222.061783,814.226536,-9729.412825
954.377581,814.226536,2886.803174,-9806.022374
954.377901,3701.029710,3404.947333,-9882.631924
954.378221,5477.523971,3108.864956,-10495.508323
954.378541,6513.812290,1850.514855,-10265.679673
954.378861,5773.606348,0.000000,-9959.241474
954.379181,3775.050304,740.205942,-9729.412825
954.379501,1036.288319,1554.432478,-10112.460574
954.379821,-518.144159,1998.556043,-10189.070123
954.380141,-1110.308913,888.247130,-9882.631924
954.380460,-962.267725,-592.164754,-9806.022374
954.380780,-592.164754,-1480.411884,-10035.851024
954.381100,592.164754,-1480.411884,-10112.460574
954.381420,1258.350101,296.082377,-10035.851024
954.381740,2516.700203,2590.720797,-10495.508323
954.382060,3923.091493,4145.153275,-10648.727422
954.382380,3997.112087,4589.276840,-10725.336972
954.382700,3034.844362,4219.173869,-11031.775171
954.383020,2368.659014,3182.885551,-11031.775171
954.383340,2368.659014,2220.617826,-11031.775171
954.383660,1554.432478,1184.329507,-10495.508323
954.383980,370.102971,592.164754,-10112.460574
954.384300,74.020594,296.082377,-9959.241474
954.384619,888.247130,740.205942,-9882.631924
954.384939,2146.597232,1332.370696,-9882.631924
954.385259,2738.761985,2812.782580,-10418.898773
954.385579,3775.050304,3701.029710,-9882.631924
954.385899,5551.544565,4367.215058,-10265.679673
954.386219,6809.894666,4071.132681,-10112.460574
954.386539,7105.977043,4663.297435,-10265.679673
954.386859,6513.812290,4885.359217,-10342.289223
954.387179,4885.359217,5033.400406,-10418.898773
954.387499,3034.844362,4885.359217,-10112.460574
954.387819,518.144159,3552.988522,-10035.851024
954.388139,-296.082377,1776.494261,-9116.536426
954.388459,-296.082377,0.000000,-9499.584175
954.388778,1258.350101,444.123565,-9806.022374
954.389098,2590.720797,962.267725,-8963.317327
954.389418,3775.050304,3034.844362,-9576.193725
954.389738,5255.462188,5329.482782,-9959.241474
954.390058,6291.750507,7254.018232,-10495.508323
954.390378,5403.503377,8364.327145,-10495.508323
954.390698,5033.400406,7105.977043,-10418.898773
954.391018,4071.132681,5033.400406,-10265.679673
954.391338,3849.070898,3108.864956,-10265.679673
954.391658,2886.803174,2294.638420,-10189.070123
954.391978,222.061783,2368.659014,-9806.022374
954.392298,-2368.659014,3256.906145,-9806.022374
954.392618,-3034.844362,3775.050304,-9882.631924
954.392938,-1036.288319,3923.091493,-10189.070123
954.393257,1850.514855,3256.906145,-10112.460574
954.393577,2812.782580,2294.638420,-10112.460574
954.393897,3108.864956,2664.741391,-10112.460574
954.394217,2886.803174,3849.070898,-9882.631924
954.394537,3997.112087,5625.565159,-10112.460574
954.394857,5403.503377,6217.729913,-10265.679673
954.395177,5403.503377,5847.626942,-10725.336972
954.395497,2886.803174,4589.276840,-10572.117872
954.395817,-1184.329507,2812.782580,-9882.631924
954.396137,-3108.864956,1628.453072,-10112.460574
954.396457,-2294.638420,296.082377,-9576.193725
954.396777,-666.185348,-296.082377,-9346.365076
954.397097,-370.102971,74.020594,-9193.145976
954.397416,444.123565,962.267725,-9193.145976
954.397736,2886.803174,2590.720797,-9806.022374
954.398056,5699.585753,4737.318029,-10495.508323
954.398376,6439.791695,6365.771101,-10495.508323
954.398696,5625.565159,5773.606348,-10189.070123
954.399016,3849.070898,4367.215058,-10112.460574
954.399336,3034.844362,2368.659014,-10189.070123
954.399656,1628.453072,740.205942,-9499.584175
954.399976,666.185348,0.000000,-9806.022374
954.400296,2146.597232,-1184.329507,-9959.241474
954.400616,148.041188,0.000000,-9729.412825
954.400936,-370.102971,1036.288319,-9576.193725
954.401256,666.185348,2516.700203,-10035.851024
954.401575,3256.906145,3108.864956,-9576.193725
954.401895,5329.482782,2960.823768,-10418.898773
954.402215,7105.977043,2220.617826,-10572.117872
954.402535,7624.121203,2146.597232,-10572.117872
954.402855,6291.750507,3552.988522,-10801.946522
954.403175,3478.967927,4589.276840,-10648.727422
954.403495,1702.473667,4145.153275,-10572.117872
954.403815,592.164754,1702.473667,-10112.460574
954.404135,444.123565,-962.267725,-9806.022374
954.404455,296.082377,-2664.741391,-10495.508323
954.404775,-592.164754,-2442.679609,-10265.679673
954.405095,-444.123565,-1480.411884,-9422.974625
954.405415,814.226536,1036.288319,-10112.460574
954.405734,3627.009116,2812.782580,-10035.851024
954.406054,5847.626942,4441.235652,-10189.070123
954.406374,6217.729913,4663.297435,-11338.213370
954.406694,5921.647536,3849.070898,-10725.336972
954.407014,3775.050304,3923.091493,-10572.117872
954.407334,2220.617826,2664.741391,-10265.679673
954.407654,1628.453072,1110.308913,-9346.365076
954.407974,74.020594,-370.102971,-9652.803275
954.408294,-2146.597232,-1850.514855,-9499.584175
954.408614,-4367.215058,-1850.514855,-9039.926876
954.408934,-4071.132681,-666.185348,-9422.974625
954.409254,0.000000,148.041188,-9806.022374
954.409574,4219.173869,1332.370696,-9269.755526
954.409894,4737.318029,2590.720797,-10495.508323
954.410213,4367.215058,3182.885551,-9422.974625
954.410533,3701.029710,4737.318029,-9882.631924
954.410853,4737.318029,5181.441594,-11031.775171
954.411173,4885.359217,5033.400406,-10342.289223
954.411493,2960.823768,3701.029710,-10725.336972
954.411813,0.000000,1924.535449,-9882.631924
954.412133,-1554.432478,0.000000,-9806.022374
954.412453,-1776.494261,222.061783,-10112.460574
954.412773,-1332.370696,296.082377,-10035.851024
954.413093,-1628.453072,1184.329507,-9729.412825
954.413413,0.000000,2368.659014,-10112.460574
954.413733,4293.194464,2812.782580,-9806.022374
954.414053,7105.977043,4145.153275,-10495.508323
954.414372,7105.977043,5625.565159,-11261.603821
954.414692,6513.812290,6439.791695,-10342.289223
954.415012,6143.709319,6661.853478,-10725.336972
954.415332,6439.791695,5995.668130,-10572.117872
954.415652,4885.359217,3775.050304,-10572.117872
954.415972,1776.494261,3256.906145,-9959.241474
954.416292,0.000000,1998.556043,-10035.851024
954.416612,-888.247130,1776.494261,-9959.241474
954.416932,-1850.514855,1406.391290,-9806.022374
954.417252,-1480.411884,1480.411884,-9039.926876
954.417572,1554.432478,2072.576638,-9346.365076
954.417892,5773.606348,3034.844362,-9729.412825
954.418212,8290.306550,4589.276840,-9882.631924
954.418531,6957.935855,6143.709319,-9959.241474
954.418851,6143.709319,6587.832884,-8810.098227
954.419171,6513.812290,5995.668130,-9959.241474
954.419491,5255.462188,4219.173869,-10418.898773
954.419811,2960.823768,2664.741391,-9806.022374
954.420131,444.123565,1924.535449,-9729.412825
954.420451,-2072.576638,2368.659014,-9346.365076
954.420771,-3404.947333,1258.350101,-9806.022374
954.421091,-2960.823768,296.082377,-9039.926876
954.421411,-1480.411884,0.000000,-9652.803275
954.421731,296.082377,2516.700203,-9882.631924
954.422051,1702.473667,4737.318029,-10035.851024
954.422371,4441.235652,6587.832884,-10572.117872
954.422690,6661.853478,6069.688724,-10801.946522
954.423010,6439.791695,4737.318029,-9116.536426
954.423330,3923.091493,3552.988522,-10418.898773
954.423650,2220.617826,2812.782580,-10572.117872
954.423970,0.000000,2590.720797,-9959.241474
954.424290,-444.123565,2146.597232,-10035.851024
954.424610,-666.185348,1776.494261,-10342.289223
954.424930,-1998.556043,148.041188,-10035.851024
954.425250,-3701.029710,-592.164754,-9652.803275
954.425570,-1554.432478,666.185348,-9422.974625
954.425890,3034.844362,2368.659014,-10189.070123
954.426210,6661.853478,4367.215058,-9806.022374
954.426530,6439.791695,4737.318029,-10648.727422
954.426849,5033.400406,4885.359217,-10112.460574
954.427169,4441.235652,4219.173869,-9806.022374
954.427489,4515.256246,4145.153275,-10342.289223
954.427809,4367.215058,2590.720797,-10801.946522
954.428129,2664.741391,1332.370696,-9576.193725
954.428449,1110.308913,-370.102971,-9269.755526
954.428769,0.000000,-2220.617826,-9576.193725
954.429089,-444.123565,-74.020594,-9576.193725
954.429409,-296.082377,1776.494261,-10035.851024
954.429729,1554.432478,3997.112087,-10265.679673
954.430049,4367.215058,3775.050304,-9882.631924
954.430369,4959.379811,4071.132681,-10112.460574
954.430689,5477.523971,2368.659014,-10265.679673
954.431009,5847.626942,1850.514855,-9729.412825
954.431328,6661.853478,2886.803174,-10572.117872
954.431648,6513.812290,3627.009116,-11184.994271
954.431968,4219.173869,3404.947333,-10648.727422
954.432288,1480.411884,2368.659014,-10648.727422
954.432608,-222.061783,518.144159,-10112.460574
954.432928,-1258.350101,-1184.329507,-9269.755526
954.433248,-1110.308913,-1258.350101,-10189.070123
954.433568,74.020594,-1332.370696,-9959.241474
954.433888,1924.535449,-1184.329507,-9499.584175
954.434208,3775.050304,148.041188,-10648.727422
954.434528,5773.606348,1184.329507,-10265.679673
954.434848,6143.709319,2886.803174,-10112.460574
954.435168,5773.606348,4811.338623,-12027.699319
954.435487,5255.462188,5625.565159,-10878.556072
954.435807,1998.556043,5329.482782,-12180.918418
954.436127,592.164754,2886.803174,-11184.994271
954.436447,2294.638420,-740.205942,-9729.412825
954.436767,148.041188,-2516.700203,-10342.289223
954.437087,-2738.761985,-2738.761985,-9729.412825
954.437407,-3330.926739,-1110.308913,-8580.269578
954.437727,-1184.329507,2146.597232,-10725.336972
954.438047,1998.556043,3627.009116,-9959.241474
954.438367,3552.988522,4663.297435,-9729.412825
954.438687,5329.482782,4885.359217,-10189.070123
954.439007,6809.894666,3627.009116,-10265.679673
954.439327,4885.359217,2368.659014,-10418.898773
954.439646,2664.741391,1554.432478,-10112.460574
954.439966,1258.350101,1628.453072,-9116.536426
954.440286,888.247130,1850.514855,-10648.727422
954.440606,-222.061783,1924.535449,-9882.631924
954.440926,-2590.720797,2368.659014,-9806.022374
954.441246,-3552.988522,2146.597232,-10189.070123
954.441566,-3034.844362,1258.350101,-8733.488677
954.441886,-1554.432478,518.144159,-9806.022374
954.442206,-222.061783,1184.329507,-10189.070123
954.442526,444.123565,2146.597232,-10035.851024
954.442846,2442.679609,3552.988522,-10801.946522
954.443166,4885.359217,4737.318029,-10648.727422
954.443486,5625.565159,4589.276840,-10418.898773
954.443805,5033.400406,4811.338623,-10878.556072
954.444125,3256.906145,3923.091493,-10112.460574
954.444445,74.020594,3923.091493,-11874.480219
954.444765,-1554.432478,1332.370696,-10265.679673
954.445085,-1924.535449,370.102971,-9346.365076
954.445405,-1554.432478,-666.185348,-10189.070123
954.445725,296.082377,222.061783,-8963.317327
954.446045,2368.659014,1480.411884,-9729.412825
954.446365,2960.823768,2368.659014,-10189.070123
954.446685,3627.009116,2886.803174,-9882.631924
954.447005,2368.659014,2664.741391,-10112.460574
954.447325,1406.391290,1850.514855,-9422.974625
954.447645,444.123565,148.041188,-8273.831378
954.447965,2368.659014,296.082377,-10112.460574
954.448285,3256.906145,1776.494261,-9959.241474
954.448605,2812.782580,2442.679609,-10495.508323
954.448925,740.205942,2664.741391,-10572.117872
954.449245,740.205942,0.000000,-9729.412825
954.449565,666.185348,-1480.411884,-9499.584175
954.449885,-592.164754,-1998.556043,-10342.289223
954.450205,-1628.453072,-1406.391290,-9346.365076
954.450525,-296.082377,-518.144159,-10035.851024
954.450845,2220.617826,1554.432478,-10265.679673
954.451165,3849.070898,1776.494261,-10955.165621
954.451485,3849.070898,814.226536,-10572.117872
954.451805,3330.926739,1110.308913,-11108.384721
954.452125,2960.823768,1110.308913,-10801.946522
954.452445,3256.906145,1036.288319,-10725.336972
954.452765,3182.885551,1258.350101,-11184.994271
954.453085,148.041188,-370.102971,-10725.336972
954.453405,-2664.741391,-1998.556043,-9882.631924
954.453725,-2812.782580,-2220.617826,-10878.556072
954.454045,-1184.329507,-1924.535449,-9882.631924
954.454365,-1628.453072,962.267725,-10342.289223
954.454685,148.041188,2146.597232,-10418.898773
954.455005,-296.082377,1110.308913,-10342.289223
954.455325,1036.288319,-1332.370696,-9806.022374
954.455645,1776.494261,-1110.308913,-10418.898773
954.455964,74.020594,-1776.494261,-9882.631924
954.456284,-296.082377,-592.164754,-9499.584175
954.456604,74.020594,-148.041188,-10648.727422
954.456924,666.185348,592.164754,-9652.803275
954.457244,-2146.597232,222.061783,-8963.317327
954.457564,-2886.803174,296.082377,-10342.289223
954.457884,-2442.679609,-518.144159,-9346.365076
954.458204,-2960.823768,-888.247130,-9499.584175
954.458524,-2812.782580,-74.020594,-9116.536426
954.458844,222.061783,-1332.370696,-9652.803275
954.459164,2294.638420,-1110.308913,-9116.536426
954.459484,1924.535449,-592.164754,-10189.070123
954.459804,518.144159,1036.288319,-9806.022374
954.460124,-148.041188,2368.659014,-9806.022374
954.460444,74.020594,2812.782580,-10801.946522
954.460764,1554.432478,1184.329507,-9422.974625
954.461084,1110.308913,-962.267725,-10418.898773
954.461404,740.205942,-2960.823768,-10265.679673
954.461724,-1184.329507,-4145.153275,-9806.022374
954.462044,-2442.679609,-888.247130,-9806.022374
954.462364,-2220.617826,3330.926739,-10112.460574
954.462684,592.164754,4737.318029,-10878.556072
954.463004,2738.761985,2072.576638,-11108.384721
954.463324,1998.556043,-2812.782580,-9806.022374
954.463644,2368.659014,-3923.091493,-9959.241474
954.463964,2368.659014,-2146.597232,-9729.412825
954.464284,3034.844362,1332.370696,-11951.089769
954.464604,1850.514855,3256.906145,-10572.117872
954.464924,0.000000,3775.050304,-10189.070123
954.465244,74.020594,1258.350101,-9806.022374
954.465564,1258.350101,-814.226536,-10035.851024
954.465884,2516.700203,-814.226536,-10648.727422
954.466204,2812.782580,444.123565,-11031.775171
954.466524,2960.823768,2368.659014,-9652.803275
954.466844,3627.009116,1258.350101,-10189.070123
954.467164,3627.009116,518.144159,-9959.241474
954.467484,1258.350101,-222.061783,-10342.289223
954.467804,-1924.535449,1924.535449,-10112.460574
954.468124,-1036.288319,3923.091493,-10418.898773
954.468444,1184.329507,2442.679609,-9576.193725
954.468764,1036.288319,888.247130,-10418.898773
954.469084,-1776.494261,-2368.659014,-9806.022374
954.469404,-3108.864956,-4145.153275,-8733.488677
954.469724,-2812.782580,-2960.823768,-9576.193725
954.470044,-814.226536,1184.329507,-9499.584175
954.470364,814.226536,2738.761985,-10342.289223
954.470684,3182.885551,2812.782580,-9729.412825
954.471004,3034.844362,1924.535449,-9729.412825
954.471324,2368.659014,-444.123565,-10035.851024
954.471644,1480.411884,-444.123565,-9422.974625
954.471964,370.102971,222.061783,-10265.679673
954.472284,518.144159,1628.453072,-9959.241474
954.472604,-296.082377,1406.391290,-9729.412825
954.472923,0.000000,-370.102971,-10265.679673
954.473243,-2072.576638,-2072.576638,-9116.536426
954.473563,-2368.659014,-1258.350101,-9959.241474
954.473883,-222.061783,1258.350101,-9806.022374
954.474203,814.226536,2294.638420,-9806.022374
954.474523,1702.473667,1850.514855,-10189.070123
954.474843,-148.041188,222.061783,-10035.851024
954.475163,222.061783,1036.288319,-10418.898773
954.475483,518.144159,1702.473667,-10801.946522
954.475803,-888.247130,2812.782580,-9959.241474
954.476123,-814.226536,2590.720797,-10495.508323
954.476443,-2368.659014,1406.391290,-10342.289223
954.476763,-3182.885551,-666.185348,-9806.022374
954.477083,-3108.864956,-3256.906145,-11261.603821
954.477403,666.185348,-2812.782580,-9882.631924
954.477723,2664.741391,-1036.288319,-10418.898773
954.478043,4441.235652,2738.761985,-11261.603821
954.478363,3997.112087,4811.338623,-10648.727422
954.478683,1554.432478,5773.606348,-11568.042020
954.479003,1332.370696,5181.441594,-11338.213370
954.479323,2146.597232,592.164754,-10189.070123
954.479643,2146.597232,-2812.782580,-9806.022374
954.479963,888.247130,-5625.565159,-9269.755526
954.480283,1184.329507,-4293.194464,-8810.098227
954.480603,814.226536,-2146.597232,-9806.022374
954.480923,1110.308913,370.102971,-9729.412825
954.481243,148.041188,1258.350101,-9806.022374
954.481563,2886.803174,222.061783,-9806.022374
954.481883,2812.782580,148.041188,-9882.631924
954.482203,1998.556043,-444.123565,-10112.460574
954.482523,296.082377,1332.370696,-9806.022374
954.482843,1480.411884,74.020594,-10189.070123
954.483163,4219.173869,-1628.453072,-10265.679673
954.483483,5403.503377,-2368.659014,-10265.679673
954.483803,2516.700203,-1776.494261,-10189.070123
954.484123,-1480.411884,-370.102971,-9882.631924
954.484443,-2664.741391,2220.617826,-10035.851024
954.484763,-2368.659014,3552.988522,-10265.679673
954.485083,-740.205942,1258.350101,-10878.556072
954.485403,74.020594,-1850.514855,-10342.289223
954.485723,592.164754,-4071.132681,-9652.803275
954.486043,1036.288319,-3775.050304,-9882.631924
954.486363,1628.453072,148.041188,-11184.994271
954.486683,888.247130,2442.679609,-10955.165621
954.487003,-1554.432478,3849.070898,-10189.070123
954.487323,-3182.885551,2960.823768,-10572.117872
954.487643,-1554.432478,888.247130,-10189.070123
954.487963,-814.226536,0.000000,-10342.289223
954.488283,74.020594,-962.267725,-11108.384721
954.488603,-888.247130,-1036.288319,-9882.631924
954.488923,-1628.453072,-148.041188,-10418.898773
954.489243,-1480.411884,-740.205942,-9729.412825
954.489563,-592.164754,-1406.391290,-9806.022374
954.489882,-1184.329507,0.000000,-9269.755526
954.490202,-1480.411884,814.226536,-10112.460574
954.490522,-1036.288319,2072.576638,-9882.631924
954.490842,-1924.535449,222.061783,-10265.679673
954.491162,-814.226536,-1406.391290,-9269.755526
954.491482,-592.164754,-1036.288319,-8810.098227
954.491802,814.226536,-1110.308913,-9729.412825
954.492122,1554.432478,518.144159,-9729.412825
954.492442,370.102971,1184.329507,-10648.727422
954.492762,-888.247130,592.164754,-9193.145976
954.493082,-296.082377,-2516.700203,-9116.536426
954.493402,1406.391290,-3404.947333,-9652.803275
954.493722,2368.659014,-2294.638420,-9806.022374
954.494042,1998.556043,1850.514855,-10878.556072
954.494362,1480.411884,4589.276840,-10878.556072
954.494682,3404.947333,5255.462188,-10878.556072
954.495002,4737.318029,3034.844362,-11031.775171
954.495322,3552.988522,-740.205942,-10265.679673
954.495642,1110.308913,-1702.473667,-9806.022374
954.495962,370.102971,-592.164754,-10189.070123
954.496282,2590.720797,-592.164754,-10035.851024
954.496602,1406.391290,888.247130,-10648.727422
954.496922,2516.700203,888.247130,-10035.851024
954.497242,2738.761985,1406.391290,-10189.070123
954.497562,3701.029710,2590.720797,-10342.289223
954.497882,3404.947333,2960.823768,-10495.508323
954.498202,1480.411884,2368.659014,-10418.898773
954.498522,2072.576638,-296.082377,-9576.193725
954.498842,2886.803174,-2072.576638,-9959.241474
954.499162,2590.720797,-1776.494261,-9576.193725
954.499482,814.226536,1184.329507,-10342.289223
954.499802,-3034.844362,2294.638420,-10801.946522
954.500122,-3552.988522,4589.276840,-9193.145976
954.500442,-1480.411884,2072.576638,-10648.727422
954.500762,592.164754,-222.061783,-9116.536426
954.501082,518.144159,-2442.679609,-9806.022374
954.501402,296.082377,-1850.514855,-9882.631924
954.501722,-1850.514855,-370.102971,-9729.412825
954.502042,-1332.370696,2220.617826,-10112.460574
954.502362,-1110.308913,3182.885551,-9806.022374
954.502682,-888.247130,2738.761985,-9652.803275
954.503002,-370.102971,2368.659014,-9576.193725
954.503322,-518.144159,1184.329507,-10495.508323
954.503642,1776.494261,-222.061783,-10035.851024
954.503962,1628.453072,-814.226536,-11184.994271
954.504282,0.000000,-1332.370696,-9039.926876
954.504602,-1924.535449,74.020594,-10035.851024
954.504922,-4737.318029,1924.535449,-9422.974625
954.505242,-3701.029710,2590.720797,-10342.289223
954.505562,-962.267725,888.247130,-9806.022374
954.505882,1184.329507,518.144159,-10572.117872
954.506202,0.000000,-444.123565,-10648.727422
954.506522,1332.370696,-814.226536,-9806.022374
954.506841,-814.226536,-1776.494261,-9806.022374
954.507161,0.000000,222.061783,-9806.022374
954.507481,0.000000,-370.102971,-9959.241474
954.507801,0.000000,-1776.494261,-10189.070123
954.508121,-444.123565,-1184.329507,-9576.193725
954.508441,-370.102971,666.185348,-10648.727422
954.508761,1998.556043,1850.514855,-10265.679673
954.509081,3849.070898,2664.741391,-10955.165621
954.509401,1924.535449,962.267725,-10955.165621
954.509721,518.144159,74.020594,-10801.946522
954.510041,1924.535449,-444.123565,-10189.070123
954.510361,3849.070898,1036.288319,-10648.727422
954.510681,2886.803174,1776.494261,-9882.631924
954.511001,1406.391290,888.247130,-10955.165621
954.511321,1036.288319,-2294.638420,-9652.803275
954.511641,1480.411884,-3256.906145,-9959.241474
954.511961,518.144159,-3775.050304,-9959.241474
954.512281,888.247130,-1776.494261,-9882.631924
954.512601,1036.288319,296.082377,-10035.851024
954.512921,1258.350101,1258.350101,-10112.460574
954.513241,1480.411884,1554.432478,-9652.803275
954.513561,2368.659014,-1184.329507,-10265.679673
954.513881,2812.782580,-2368.659014,-9806.022374
954.514201,1332.370696,-1554.432478,-10418.898773
954.514521,666.185348,-148.041188,-10112.460574
954.514841,-296.082377,74.020594,-9806.022374
954.515161,-148.041188,0.000000,-10112.460574
954.515481,-814.226536,-1036.288319,-9806.022374
954.515801,-888.247130,-1776.494261,-9882.631924
954.516121,-666.185348,-1406.391290,-9806.022374
954.516441,-666.185348,-666.185348,-10035.851024
954.516761,0.000000,1036.288319,-10342.289223
954.517081,888.247130,0.000000,-10189.070123
954.517401,370.102971,888.247130,-9806.022374
954.517721,222.061783,518.144159,-10648.727422
954.518041,0.000000,1406.391290,-10112.460574
954.518361,0.000000,2664.741391,-10955.165621
954.518681,-1554.432478,1850.514855,-10495.508323
954.519001,-888.247130,0.000000,-10265.679673
954.519321,-2960.823768,-1480.411884,-10189.070123
954.519641,-1998.556043,-1184.329507,-10572.117872
954.519961,-1850.514855,-1702.473667,-9116.536426
954.520281,-1036.288319,-296.082377,-10572.117872
954.520601,0.000000,1258.350101,-10112.460574
954.520921,1332.370696,2220.617826,-9959.241474
954.521241,2220.617826,2738.761985,-10572.117872
954.521561,3256.906145,2664.741391,-9806.022374
954.521881,1998.556043,1332.370696,-9882.631924
954.522201,1776.494261,-814.226536,-9959.241474
954.522521,1776.494261,-3997.112087,-8580.269578
954.522841,888.247130,-3404.947333,-10725.336972
954.523161,0.000000,-1850.514855,-9806.022374
954.523481,-1480.411884,1110.308913,-9499.584175
954.523800,-444.123565,4145.153275,-10189.070123
954.524120,1554.432478,6143.709319,-9652.803275
954.524440,2294.638420,2442.679609,-10342.289223
954.524760,2072.576638,0.000000,-9882.631924
954.525080,2960.823768,-2220.617826,-9882.631924
954.525400,5921.647536,-2738.761985,-9806.022374
954.525720,3404.947333,296.082377,-10265.679673
954.526040,518.144159,2960.823768,-10572.117872
954.526360,0.000000,5477.523971,-9806.022374
954.526680,740.205942,5773.606348,-10801.946522
954.527000,3478.967927,3923.091493,-11797.870669
954.527320,3330.926739,518.144159,-10495.508323
954.527640,1036.288319,-1480.411884,-10418.898773
954.527960,-1110.308913,-1258.350101,-10035.851024
954.528280,-1850.514855,-296.082377,-9806.022374
954.528600,-2516.700203,740.205942,-9806.022374
954.528920,-1998.556043,2368.659014,-10342.289223
954.529240,-1036.288319,1998.556043,-9959.241474
954.529560,814.226536,222.061783,-10189.070123
954.529880,1702.473667,444.123565,-9882.631924
954.530200,1036.288319,0.000000,-10035.851024
954.530520,0.000000,296.082377,-9729.412825
954.530840,0.000000,-1628.453072,-9806.022374
954.531160,1258.350101,-2442.679609,-9729.412825
954.531480,0.000000,-1036.288319,-9652.803275
954.531800,-1258.350101,1480.411884,-10342.289223
954.532120,-2072.576638,2442.679609,-9652.803275
954.532440,-1776.494261,3775.050304,-10648.727422
954.532760,-1406.391290,1998.556043,-9346.365076
954.533080,-222.061783,-1628.453072,-9652.803275
954.533400,1406.391290,-3404.947333,-10418.898773
954.533720,-2146.597232,-4589.276840,-9652.803275
954.534040,-370.102971,-1850.514855,-9576.193725
954.534360,-1924.535449,1850.514855,-10342.289223
954.534680,-222.061783,2294.638420,-9576.193725
954.535000,-2146.597232,1184.329507,-9499.584175
954.535320,-1702.473667,740.205942,-10725.336972
954.535640,148.041188,888.247130,-10189.070123
954.535960,1554.432478,-296.082377,-11031.775171
954.536280,2812.782580,-1554.432478,-10265.679673
954.536600,2960.823768,-1110.308913,-10495.508323
954.536920,2738.761985,-1258.350101,-10265.679673
954.537240,296.082377,-1776.494261,-9652.803275
954.537560,-3108.864956,-518.144159,-10112.460574
954.537880,-444.123565,1406.391290,-10265.679673
954.538200,3108.864956,518.144159,-10495.508323
954.538520,6809.894666,740.205942,-10342.289223
954.538840,5551.544565,0.000000,-10495.508323
954.539160,3923.091493,-814.226536,-9959.241474
954.539480,3552.988522,148.041188,-10801.946522
954.539800,1850.514855,-444.123565,-11568.042020
954.540120,592.164754,-444.123565,-9882.631924
954.540440,-3108.864956,-1258.350101,-9806.022374
954.540759,-1332.370696,-444.123565,-10112.460574
954.541079,148.041188,444.123565,-9959.241474
954.541399,1332.370696,74.020594,-10878.556072
954.541719,518.144159,740.205942,-10035.851024
954.542039,592.164754,-666.185348,-9806.022374
954.542359,2664.741391,-1110.308913,-10572.117872
954.542679,3034.844362,-1628.453072,-9806.022374
954.542999,814.226536,666.185348,-10342.289223
954.543319,-1628.453072,3256.906145,-10189.070123
954.543639,-888.247130,3552.988522,-9806.022374
954.543959,222.061783,2368.659014,-10648.727422
954.544279,1776.494261,-1184.329507,-9806.022374
954.544599,666.185348,-1554.432478,-10189.070123
954.544919,-666.185348,-1332.370696,-10572.117872
954.545239,-1554.432478,1110.308913,-9729.412825
954.545559,0.000000,2072.576638,-10342.289223
954.545879,444.123565,4737.318029,-10265.679673
954.546199,0.000000,4959.379811,-10955.165621
954.546519,-2738.761985,1850.514855,-9882.631924
954.546839,-3478.967927,-1998.556043,-9652.803275
954.547159,592.164754,-3923.091493,-9576.193725
954.547479,2960.823768,-4145.153275,-9193.145976
954.547799,2146.597232,0.000000,-10495.508323
954.548119,-962.267725,3997.112087,-9806.022374
954.548439,-4145.153275,3923.091493,-10955.165621
954.548759,-1776.494261,2812.782580,-9806.022374
954.549079,-3108.864956,1184.329507,-9576.193725
954.549399,-2146.597232,-1332.370696,-9806.022374
954.549719,-1036.288319,-2664.741391,-9116.536426
954.550039,1554.432478,-3034.844362,-9806.022374
954.550359,2738.761985,-370.102971,-9806.022374
954.550679,2146.597232,1480.411884,-9652.803275
954.550999,1628.453072,4219.173869,-10265.679673
954.551319,1258.350101,5181.441594,-11031.775171
954.551639,666.185348,3478.967927,-9652.803275
954.551959,296.082377,148.041188,-9729.412825
954.552279,1258.350101,-2886.803174,-8963.317327
954.552599,1628.453072,-4811.338623,-9729.412825
954.552919,3404.947333,-3256.906145,-9959.241474
954.553239,3849.070898,0.000000,-9499.584175
954.553559,1036.288319,3478.967927,-10342.289223
954.553879,1998.556043,5773.606348,-10725.336972
954.554199,2590.720797,3108.864956,-11031.775171
954.554519,3552.988522,0.000000,-10035.851024
954.554839,1554.432478,-1480.411884,-10418.898773
954.555159,296.082377,-518.144159,-10418.898773
954.555479,1850.514855,740.205942,-10572.117872
954.555799,1110.308913,74.020594,-10725.336972
954.556119,814.226536,0.000000,-10418.898773
954.556439,-592.164754,-1406.391290,-9959.241474
954.556759,-888.247130,74.020594,-10342.289223
954.557079,-518.144159,888.247130,-9959.241474
954.557399,1480.411884,3478.967927,-10265.679673
954.557719,2442.679609,3256.906145,-11184.994271
954.558039,3256.906145,1110.308913,-10112.460574
954.558359,2886.803174,-444.123565,-9499.584175
954.558679,0.000000,-1702.473667,-9959.241474
954.558999,-592.164754,-370.102971,-9729.412825
954.559319,-592.164754,740.205942,-10572.117872
954.559639,518.144159,2072.576638,-10189.070123
954.559959,-1628.453072,1332.370696,-9039.926876
954.560280,-2886.803174,-888.247130,-10112.460574
954.560600,-1998.556043,-2220.617826,-9269.755526
954.560920,-592.164754,-2368.659014,-9499.584175
954.561240,1184.329507,-888.247130,-10878.556072
954.561560,1258.350101,814.226536,-9576.193725
954.561880,3849.070898,1258.350101,-10342.289223
954.562200,1776.494261,888.247130,-10035.851024
954.562520,-888.247130,1702.473667,-9652.803275
954.562840,-3552.988522,1554.432478,-9729.412825
954.563160,-4071.132681,148.041188,-9346.365076
954.563480,-148.041188,-518.144159,-9959.241474
954.563800,444.123565,-2442.679609,-10189.070123
954.564120,0.000000,-3182.885551,-9806.022374
954.564440,-518.144159,-2368.659014,-9729.412825
954.564760,0.000000,-1036.288319,-10648.727422
954.565080,0.000000,1036.288319,-10112.460574
954.565400,-444.123565,3552.988522,-11184.994271
954.565720,-2220.617826,2812.782580,-10112.460574
954.566040,-592.164754,1924.535449,-10418.898773
954.566360,4737.318029,666.185348,-11184.994271
954.566680,4219.173869,-2072.576638,-10725.336972
954.567000,1332.370696,-2442.679609,-10112.460574
954.567320,-1850.514855,-1628.453072,-9806.022374
954.567640,-2368.659014,-888.247130,-9959.241474
954.567960,-1924.535449,444.123565,-9882.631924
954.568280,-370.102971,148.041188,-10265.679673
954.568600,1258.350101,962.267725,-9499.584175
954.568920,2812.782580,1776.494261,-10572.117872
954.569240,5921.647536,1776.494261,-10418.898773
954.569560,5033.400406,1110.308913,-10265.679673
954.569880,5921.647536,-518.144159,-10035.851024
954.570200,4367.215058,-518.144159,-10112.460574
954.570520,3923.091493,-1332.370696,-10112.460574
954.570840,-2072.576638,-1184.329507,-9882.631924
954.571160,-5403.503377,222.061783,-9269.755526
954.571480,-2738.761985,1776.494261,-9652.803275
954.571800,0.000000,1110.308913,-10035.851024
954.572120,3034.844362,74.020594,-9729.412825
954.572440,1258.350101,-1036.288319,-10265.679673
954.572760,2146.597232,-296.082377,-10189.070123
954.573080,2664.741391,814.226536,-10342.289223
954.573400,592.164754,1406.391290,-10648.727422
954.573720,-1258.350101,2146.597232,-10112.460574
954.574040,-1850.514855,2738.761985,-9806.022374
954.574360,0.000000,2442.679609,-9806.022374
954.574680,2812.782580,1110.308913,-10418.898773
954.575000,2368.659014,0.000000,-10495.508323
954.575320,518.144159,-1998.556043,-10342.289223
954.575640,444.123565,-1480.411884,-9882.631924
954.575960,-814.226536,-148.041188,-9729.412825
954.576280,-3034.844362,2590.720797,-10189.070123
954.576600,-2664.741391,4885.359217,-10878.556072
954.576920,-296.082377,5551.544565,-10801.946522
954.577240,-888.247130,6069.688724,-10648.727422
954.577560,-2146.597232,2294.638420,-10418.898773
954.577880,-2294.638420,-2664.741391,-9193.145976
954.578200,-1036.288319,-5847.626942,-9652.803275
954.578520,518.144159,-6883.915261,-9269.755526
954.578840,518.144159,-4959.379811,-9499.584175
954.579160,-888.247130,-296.082377,-8810.098227
954.579480,-2442.679609,3627.009116,-10035.851024
954.579800,-1924.535449,5625.565159,-10265.679673
954.580120,666.185348,5921.647536,-9499.584175
954.580440,1184.329507,2294.638420,-10112.460574
954.580760,2072.576638,-2368.659014,-9346.365076
