#time,accel_x,accel_y,accel_z
905.991227,518.144159,444.123565,-10035.851024
905.991547,592.164754,518.144159,-10112.460574
905.991867,518.144159,148.041188,-10342.289223
905.992187,370.102971,222.061783,-10265.679673
905.992507,518.144159,296.082377,-10189.070123
905.992827,518.144159,370.102971,-9959.241474
905.993147,222.061783,592.164754,-10035.851024
905.993467,296.082377,296.082377,-10265.679673
905.993787,296.082377,296.082377,-9959.241474
905.994106,370.102971,148.041188,-10265.679673
905.994426,666.185348,0.000000,-10648.727422
905.994746,1110.308913,296.082377,-10189.070123
905.995066,1332.370696,518.144159,-10112.460574
905.995386,1110.308913,370.102971,-10189.070123
905.995706,0.000000,148.041188,-9269.755526
905.996026,-518.144159,0.000000,-9806.022374
905.996346,0.000000,0.000000,-10112.460574
905.996666,222.061783,0.000000,-9806.022374
905.996986,-444.123565,444.123565,-10189.070123
905.997306,222.061783,740.205942,-10418.898773
905.997626,962.267725,666.185348,-10112.460574
905.997946,1036.288319,740.205942,-10342.289223
905.998266,444.123565,0.000000,-10265.679673
905.998586,370.102971,-814.226536,-9806.022374
905.998905,592.164754,-444.123565,-9959.241474
905.999225,814.226536,-370.102971,-9959.241474
905.999545,74.020594,0.000000,-9959.241474
905.999865,-1036.288319,-370.102971,-9882.631924
906.000185,-962.267725,-518.144159,-9959.241474
906.000505,-592.164754,-518.144159,-10035.851024
906.000825,-962.267725,-148.041188,-10035.851024
906.001145,-962.267725,-518.144159,-10112.460574
906.001465,-444.123565,-370.102971,-11568.042020
906.001785,222.061783,-296.082377,-10189.070123
906.002105,-148.041188,-592.164754,-10035.851024
906.002425,-740.205942,-962.267725,-10035.851024
906.002745,-666.185348,-1184.329507,-10112.460574
906.003065,-666.185348,-666.185348,-10035.851024
906.003385,-1258.350101,-1258.350101,-10035.851024
906.003705,-2368.659014,-1332.370696,-10035.851024
906.004024,-2368.659014,-1628.453072,-9652.803275
906.004344,-2072.576638,-740.205942,-9959.241474
906.004664,-1036.288319,-814.226536,-10035.851024
906.004984,-1628.453072,-740.205942,-10495.508323
906.005304,-1480.411884,-1184.329507,-10112.460574
906.005624,-370.102971,-1258.350101,-9806.022374
906.005944,-222.061783,-1258.350101,-9959.241474
906.006264,-740.205942,-1628.453072,-9882.631924
906.006584,-2294.638420,-2664.741391,-10112.460574
906.006904,-2516.700203,-3923.091493,-9729.412825
906.007224,-2294.638420,-4219.173869,-9576.193725
906.007544,-2294.638420,-3775.050304,-9576.193725
906.007864,-2516.700203,-3330.926739,-9882.631924
906.008184,-2146.597232,-3404.947333,-9806.022374
906.008504,-740.205942,-2886.803174,-9576.193725
906.008823,740.205942,-2294.638420,-10112.460574
906.009143,1258.350101,-1998.556043,-10418.898773
906.009463,222.061783,-1480.411884,-10648.727422
906.009783,-888.247130,-1258.350101,-10189.070123
906.010103,-2294.638420,-1998.556043,-10495.508323
906.010423,-3552.988522,-2960.823768,-9959.241474
906.010743,-5329.482782,-4219.173869,-9729.412825
906.011063,-5477.523971,-5255.462188,-9652.803275
906.011383,-3923.091493,-6365.771101,-9346.365076
906.011703,-1850.514855,-5107.421000,-9806.022374
906.012023,-666.185348,-3182.885551,-10495.508323
906.012343,0.000000,-666.185348,-10495.508323
906.012663,962.267725,1036.288319,-10725.336972
906.012983,888.247130,1184.329507,-10648.727422
906.013303,1850.514855,444.123565,-10801.946522
906.013622,740.205942,-1332.370696,-10572.117872
906.013942,-888.247130,-3108.864956,-10112.460574
906.014262,-2590.720797,-3849.070898,-9959.241474
906.014582,-4737.318029,-3923.091493,-9959.241474
906.014902,-6365.771101,-4663.297435,-9269.755526
906.015222,-5699.585753,-5255.462188,-9269.755526
906.015542,-2960.823768,-5921.647536,-9346.365076
906.015862,74.020594,-4663.297435,-9499.584175
906.016182,1258.350101,-1924.535449,-9882.631924
906.016502,1924.535449,666.185348,-10418.898773
906.016822,3849.070898,1998.556043,-10418.898773
906.017142,5181.441594,2960.823768,-10955.165621
906.017462,2886.803174,1332.370696,-10725.336972
906.017782,-1480.411884,-518.144159,-10418.898773
906.018102,-5255.462188,-2812.782580,-9959.241474
906.018422,-6069.688724,-5033.400406,-9576.193725
906.018741,-4959.379811,-6069.688724,-9652.803275
906.019061,-4441.235652,-6661.853478,-9729.412825
906.019381,-3256.906145,-5107.421000,-9269.755526
906.019701,-1480.411884,-2294.638420,-9959.241474
906.020021,666.185348,814.226536,-10495.508323
906.020341,2368.659014,3552.988522,-10725.336972
906.020661,2664.741391,4293.194464,-10878.556072
906.020981,2960.823768,2368.659014,-10572.117872
906.021301,3330.926739,-740.205942,-10725.336972
906.021621,74.020594,-1036.288319,-10648.727422
906.021941,-2516.700203,-1702.473667,-10342.289223
906.022261,-4589.276840,-1776.494261,-10265.679673
906.022581,-6291.750507,-2146.597232,-9806.022374
906.022901,-7254.018232,-3404.947333,-9193.145976
906.023221,-7402.059420,-5181.441594,-9346.365076
906.023540,-4959.379811,-5477.523971,-8963.317327
906.023860,-666.185348,-3701.029710,-9346.365076
906.024180,3478.967927,-1406.391290,-11338.213370
906.024500,3997.112087,1776.494261,-10725.336972
906.024820,2886.803174,3182.885551,-10189.070123
906.025140,2220.617826,3923.091493,-10265.679673
906.025460,2072.576638,2960.823768,-10495.508323
906.025780,740.205942,1406.391290,-10725.336972
906.026100,-2516.700203,-1628.453072,-10342.289223
906.026420,-5847.626942,-4515.256246,-9806.022374
906.026740,-7920.203579,-5995.668130,-9346.365076
906.027060,-9548.656652,-5699.585753,-8350.440928
906.027380,-7179.997637,-6513.812290,-8503.660028
906.027700,-2664.741391,-5625.565159,-9193.145976
906.028020,1776.494261,-3701.029710,-9729.412825
906.028339,3108.864956,-1332.370696,-10342.289223
906.028659,3034.844362,814.226536,-10189.070123
906.028979,3478.967927,4145.153275,-10648.727422
906.029299,4367.215058,5181.441594,-10955.165621
906.029619,3182.885551,4293.194464,-11184.994271
906.029939,370.102971,1480.411884,-11031.775171
906.030259,-4367.215058,-2220.617826,-10495.508323
906.030579,-7328.038826,-5921.647536,-10112.460574
906.030899,-7772.162391,-8512.368333,-9499.584175
906.031219,-6217.729913,-8364.327145,-9499.584175
906.031539,-5625.565159,-6513.812290,-9652.803275
906.031859,-3923.091493,-3552.988522,-9729.412825
906.032179,-1480.411884,-1036.288319,-10189.070123
906.032499,2664.741391,1702.473667,-10418.898773
906.032819,6069.688724,2590.720797,-12257.527968
906.033139,5625.565159,2368.659014,-11414.822920
906.033458,2220.617826,962.267725,-10955.165621
906.033778,-592.164754,-1850.514855,-10342.289223
906.034098,-2738.761985,-3849.070898,-10265.679673
906.034418,-4441.235652,-5551.544565,-10035.851024
906.034738,-6365.771101,-6587.832884,-9806.022374
906.035058,-7994.224174,-6735.874072,-8963.317327
906.035378,-7105.977043,-6587.832884,-9193.145976
906.035698,-2664.741391,-5033.400406,-10418.898773
906.036018,-592.164754,-2886.803174,-9806.022374
906.036338,-1332.370696,-1924.535449,-10189.070123
906.036658,-888.247130,-1702.473667,-9729.412825
906.036978,2072.576638,148.041188,-10035.851024
906.037298,4293.194464,1332.370696,-10801.946522
906.037618,4441.235652,1628.453072,-10648.727422
906.037938,1924.535449,0.000000,-11108.384721
906.038257,-962.267725,-2294.638420,-10342.289223
906.038577,-3478.967927,-2812.782580,-10418.898773
906.038897,-6809.894666,-3330.926739,-10035.851024
906.039217,-7994.224174,-3923.091493,-9576.193725
906.039537,-5403.503377,-4663.297435,-9806.022374
906.039857,-2812.782580,-5107.421000,-10035.851024
906.040177,-222.061783,-4737.318029,-9499.584175
906.040497,962.267725,-3108.864956,-9806.022374
906.040817,2886.803174,-1036.288319,-10418.898773
906.041137,3701.029710,1776.494261,-10878.556072
906.041457,2590.720797,2664.741391,-10878.556072
906.041777,888.247130,2220.617826,-10801.946522
906.042097,962.267725,74.020594,-10572.117872
906.042417,518.144159,-1998.556043,-10265.679673
906.042737,-2516.700203,-2886.803174,-9882.631924
906.043056,-3701.029710,-5995.668130,-9346.365076
906.043376,-4663.297435,-5329.482782,-9806.022374
906.043696,-5847.626942,-3108.864956,-10112.460574
906.044016,-6291.750507,-3997.112087,-9346.365076
906.044336,-3552.988522,-4145.153275,-9039.926876
906.044656,-962.267725,-2886.803174,-9652.803275
906.044976,1850.514855,-1628.453072,-10112.460574
906.045296,4071.132681,518.144159,-10495.508323
906.045616,4589.276840,2738.761985,-10955.165621
906.045936,1554.432478,3552.988522,-10648.727422
906.046256,-592.164754,1332.370696,-10342.289223
906.046576,-1924.535449,-666.185348,-10112.460574
906.046896,-3775.050304,-2738.761985,-9882.631924
906.047216,-4885.359217,-4737.318029,-9882.631924
906.047536,-4959.379811,-5329.482782,-9576.193725
906.047855,-5107.421000,-4515.256246,-9806.022374
906.048175,-3256.906145,-2294.638420,-9499.584175
906.048495,-1184.329507,-2442.679609,-9806.022374
906.048815,370.102971,-1702.473667,-9806.022374
906.049135,1406.391290,-222.061783,-10265.679673
906.049455,1036.288319,1036.288319,-10725.336972
906.049775,888.247130,2294.638420,-10495.508323
906.050095,222.061783,3997.112087,-10495.508323
906.050415,0.000000,1480.411884,-10648.727422
906.050735,0.000000,-2516.700203,-9882.631924
906.051055,-666.185348,-4959.379811,-10189.070123
906.051375,-3108.864956,-4959.379811,-9806.022374
906.051695,-5403.503377,-4293.194464,-9652.803275
906.052014,-5403.503377,-2368.659014,-9806.022374
906.052334,-5255.462188,-1628.453072,-9576.193725
906.052654,-2738.761985,-1110.308913,-10189.070123
906.052974,1628.453072,222.061783,-9959.241474
906.053294,3182.885551,148.041188,-11184.994271
906.053614,2960.823768,0.000000,-10572.117872
906.053934,5181.441594,1258.350101,-10342.289223
906.054254,4811.338623,666.185348,-10265.679673
906.054574,1036.288319,0.000000,-10189.070123
906.054894,-3108.864956,-1406.391290,-9652.803275
906.055214,-5625.565159,-2146.597232,-10189.070123
906.055534,-5625.565159,-1702.473667,-9422.974625
906.055854,-4737.318029,-3849.070898,-9729.412825
906.056173,-3182.885551,-4441.235652,-9269.755526
906.056493,74.020594,-4663.297435,-9729.412825
906.056813,1406.391290,-2886.803174,-10112.460574
906.057133,-370.102971,-518.144159,-10189.070123
906.057453,-2812.782580,592.164754,-10189.070123
906.057773,-2294.638420,2590.720797,-10265.679673
906.058093,1998.556043,2442.679609,-9806.022374
906.058413,6143.709319,740.205942,-11031.775171
906.058733,3849.070898,-1036.288319,-10572.117872
906.059053,148.041188,-4293.194464,-10725.336972
906.059373,-1332.370696,-3108.864956,-9806.022374
906.059693,-1110.308913,-1628.453072,-9959.241474
906.060013,-2886.803174,-592.164754,-10342.289223
906.060332,-6143.709319,0.000000,-10342.289223
906.060652,-4885.359217,0.000000,-10035.851024
906.060972,-740.205942,-518.144159,-9729.412825
906.061292,3478.967927,-1554.432478,-11031.775171
906.061612,4367.215058,-222.061783,-10035.851024
906.061932,3330.926739,296.082377,-11108.384721
906.062252,2590.720797,-296.082377,-10955.165621
906.062572,2294.638420,1110.308913,-10112.460574
906.062892,0.000000,888.247130,-10342.289223
906.063212,-1480.411884,1406.391290,-10572.117872
906.063532,-666.185348,814.226536,-9882.631924
906.063852,-222.061783,-444.123565,-10495.508323
906.064172,592.164754,-2516.700203,-9806.022374
906.064492,-592.164754,-3552.988522,-9806.022374
906.064811,-1480.411884,-3108.864956,-9269.755526
906.065131,1258.350101,-2738.761985,-9576.193725
906.065451,2886.803174,962.267725,-9882.631924
906.065771,1924.535449,1480.411884,-9806.022374
906.066091,1036.288319,1776.494261,-9806.022374
906.066411,592.164754,2368.659014,-9882.631924
906.066731,2294.638420,518.144159,-10265.679673
906.067051,5107.421000,666.185348,-10418.898773
906.067371,4589.276840,-370.102971,-10189.070123
906.067691,1480.411884,0.000000,-10189.070123
906.068011,-2368.659014,0.000000,-9346.365076
906.068331,-2960.823768,0.000000,-10572.117872
906.068651,-2812.782580,-592.164754,-9346.365076
906.068970,-1998.556043,-1332.370696,-10035.851024
906.069290,-370.102971,-518.144159,-10495.508323
906.069610,1776.494261,-1036.288319,-10112.460574
906.069930,3182.885551,0.000000,-10725.336972
906.070250,5477.523971,1702.473667,-10801.946522
906.070570,5921.647536,4515.256246,-11031.775171
906.070890,3256.906145,4367.215058,-11568.042020
906.071210,-740.205942,3627.009116,-10725.336972
906.071530,-4959.379811,814.226536,-10265.679673
906.071850,-4145.153275,-2812.782580,-9652.803275
906.072170,-1776.494261,-3627.009116,-9729.412825
906.072490,444.123565,-3034.844362,-9959.241474
906.072810,444.123565,-666.185348,-9499.584175
906.073129,-2146.597232,1110.308913,-9806.022374
906.073449,-2294.638420,1332.370696,-10112.460574
906.073769,-2516.700203,888.247130,-9269.755526
906.074089,-1184.329507,2146.597232,-9269.755526
906.074409,-1184.329507,1480.411884,-9652.803275
906.074729,222.061783,1036.288319,-9729.412825
906.075049,3478.967927,518.144159,-9806.022374
906.075369,4663.297435,518.144159,-10495.508323
906.075689,3849.070898,444.123565,-9806.022374
906.076009,296.082377,-148.041188,-10495.508323
906.076329,-2664.741391,0.000000,-9193.145976
906.076649,-4071.132681,296.082377,-9576.193725
906.076969,-1702.473667,222.061783,-9959.241474
906.077288,1702.473667,444.123565,-9882.631924
906.077608,3108.864956,148.041188,-10725.336972
906.077928,1924.535449,0.000000,-10035.851024
906.078248,0.000000,0.000000,-9422.974625
906.078568,1850.514855,1258.350101,-10801.946522
906.078888,4441.235652,1406.391290,-10189.070123
906.079208,2368.659014,2886.803174,-10342.289223
906.079528,148.041188,2220.617826,-11184.994271
906.079848,592.164754,148.041188,-9806.022374
906.080168,962.267725,-1406.391290,-10418.898773
906.080488,2664.741391,0.000000,-9576.193725
906.080808,3552.988522,370.102971,-10725.336972
906.081128,2072.576638,-148.041188,-9882.631924
906.081447,1554.432478,-518.144159,-9576.193725
906.081767,592.164754,148.041188,-10112.460574
906.082087,1406.391290,1554.432478,-10572.117872
906.082407,1554.432478,1258.350101,-9652.803275
906.082727,1850.514855,2220.617826,-10955.165621
906.083047,296.082377,1924.535449,-9959.241474
906.083367,-444.123565,0.000000,-9499.584175
906.083687,1554.432478,-370.102971,-10265.679673
906.084007,2294.638420,74.020594,-11568.042020
906.084327,666.185348,666.185348,-10265.679673
906.084647,518.144159,-518.144159,-10112.460574
906.084967,-1628.453072,-1184.329507,-8886.707777
906.085287,-1480.411884,-1184.329507,-8886.707777
906.085606,0.000000,-2146.597232,-9729.412825
906.085926,0.000000,-962.267725,-9346.365076
906.086246,0.000000,296.082377,-9729.412825
906.086566,962.267725,1258.350101,-10265.679673
906.086886,1036.288319,814.226536,-9039.926876
906.087206,0.000000,-1998.556043,-10342.289223
906.087526,-1110.308913,-2220.617826,-9806.022374
906.087846,-2664.741391,-962.267725,-9882.631924
906.088166,-3478.967927,296.082377,-10572.117872
906.088486,-3256.906145,-1184.329507,-9193.145976
906.088806,-2442.679609,-1406.391290,-10572.117872
906.089126,-1406.391290,-296.082377,-9959.241474
906.089446,-1332.370696,-1184.329507,-10265.679673
906.089765,-888.247130,-1184.329507,-10495.508323
906.090085,-1406.391290,-1628.453072,-9959.241474
906.090405,-1184.329507,-962.267725,-10495.508323
906.090725,148.041188,-1110.308913,-10265.679673
906.091045,222.061783,-370.102971,-9959.241474
906.091365,-740.205942,592.164754,-10189.070123
906.091685,1184.329507,1110.308913,-10495.508323
906.092005,3256.906145,1850.514855,-10648.727422
906.092325,3404.947333,1258.350101,-11568.042020
906.092645,1184.329507,-814.226536,-9882.631924
906.092965,-2294.638420,-1258.350101,-9806.022374
906.093285,-1628.453072,-1480.411884,-10342.289223
906.093605,-666.185348,296.082377,-9882.631924
906.093924,1406.391290,1406.391290,-10725.336972
906.094244,2516.700203,296.082377,-10035.851024
906.094564,1628.453072,-1480.411884,-9806.022374
906.094884,1184.329507,-1184.329507,-9959.241474
906.095204,2442.679609,222.061783,-9576.193725
906.095524,2960.823768,1406.391290,-10342.289223
906.095844,4885.359217,1554.432478,-9959.241474
906.096164,1850.514855,814.226536,-9882.631924
906.096484,-592.164754,-592.164754,-9652.803275
906.096804,1184.329507,-1258.350101,-9193.145976
906.097124,1332.370696,-1924.535449,-9346.365076
906.097444,3701.029710,-962.267725,-10418.898773
906.097764,3923.091493,0.000000,-9959.241474
906.098083,148.041188,1036.288319,-9269.755526
906.098403,-444.123565,2146.597232,-10342.289223
906.098723,-518.144159,3034.844362,-9346.365076
906.099043,518.144159,3256.906145,-10955.165621
906.099363,3849.070898,1924.535449,-10112.460574
906.099683,3997.112087,814.226536,-10342.289223
906.100003,1850.514855,-1554.432478,-10418.898773
906.100323,-1258.350101,-1110.308913,-9729.412825
906.100643,-1554.432478,1110.308913,-10342.289223
906.100963,962.267725,3627.009116,-11031.775171
906.101283,888.247130,3108.864956,-10495.508323
906.101603,222.061783,888.247130,-10648.727422
906.101923,-1924.535449,-1554.432478,-9499.584175
906.102242,-740.205942,-1554.432478,-9882.631924
906.102562,2590.720797,-814.226536,-10418.898773
906.102882,1554.432478,1998.556043,-10035.851024
906.103202,-222.061783,3330.926739,-11031.775171
906.103522,-296.082377,2738.761985,-10265.679673
906.103842,-222.061783,1184.329507,-10648.727422
906.104162,-148.041188,1110.308913,-10189.070123
906.104482,-370.102971,740.205942,-9806.022374
906.104802,-148.041188,444.123565,-9729.412825
906.105122,222.061783,-370.102971,-10342.289223
906.105442,296.082377,-1332.370696,-9576.193725
906.105762,74.020594,-1184.329507,-9499.584175
906.106082,74.020594,-666.185348,-9806.022374
906.106401,-888.247130,1258.350101,-9729.412825
906.106721,-2294.638420,1332.370696,-10035.851024
906.107041,-1850.514855,1406.391290,-10418.898773
906.107361,-666.185348,666.185348,-9959.241474
906.107681,444.123565,1480.411884,-10725.336972
906.108001,888.247130,370.102971,-10265.679673
906.108321,1406.391290,1184.329507,-11261.603821
906.108641,296.082377,1850.514855,-10725.336972
906.108961,-592.164754,3923.091493,-10648.727422
906.109281,-2664.741391,4293.194464,-10572.117872
906.109601,-3182.885551,3330.926739,-10572.117872
906.109921,-148.041188,2294.638420,-10342.289223
906.110241,3034.844362,148.041188,-11108.384721
906.110560,2738.761985,-1110.308913,-10112.460574
906.110880,2442.679609,-2516.700203,-9499.584175
906.111200,1850.514855,-888.247130,-10035.851024
906.111520,2294.638420,592.164754,-9959.241474
906.111840,1628.453072,2368.659014,-11184.994271
906.112160,296.082377,2146.597232,-11031.775171
906.112480,-1036.288319,592.164754,-9193.145976
906.112800,-148.041188,1110.308913,-10342.289223
906.113120,2590.720797,666.185348,-9806.022374
906.113440,3404.947333,0.000000,-9729.412825
906.113760,2294.638420,-962.267725,-10189.070123
906.114080,888.247130,-1850.514855,-9116.536426
906.114400,444.123565,-2960.823768,-9499.584175
906.114719,1258.350101,-3552.988522,-8810.098227
906.115039,1036.288319,-2072.576638,-9346.365076
906.115359,-370.102971,-962.267725,-9269.755526
906.115679,740.205942,1184.329507,-9346.365076
906.115999,2812.782580,1776.494261,-10495.508323
906.116319,3997.112087,296.082377,-10265.679673
906.116639,2812.782580,-740.205942,-9959.241474
906.116959,592.164754,-2146.597232,-9806.022374
906.117279,-2294.638420,-2664.741391,-9882.631924
906.117599,-3552.988522,-1850.514855,-9346.365076
906.117919,-1480.411884,370.102971,-10342.289223
906.118239,1776.494261,2294.638420,-11031.775171
906.118559,1480.411884,3256.906145,-10572.117872
906.118878,1258.350101,1406.391290,-10572.117872
906.119198,1554.432478,740.205942,-10265.679673
906.119518,1850.514855,0.000000,-10801.946522
906.119838,2664.741391,-814.226536,-10418.898773
906.120158,296.082377,-1480.411884,-10495.508323
906.120478,-2072.576638,-296.082377,-10648.727422
906.120798,-1998.556043,1406.391290,-10265.679673
906.121118,-666.185348,3108.864956,-10418.898773
906.121438,0.000000,3034.844362,-11261.603821
906.121758,-1036.288319,666.185348,-10648.727422
906.122078,-740.205942,-2590.720797,-10418.898773
906.122398,962.267725,-2368.659014,-10418.898773
906.122718,-814.226536,-444.123565,-10035.851024
906.123037,-444.123565,74.020594,-10572.117872
906.123357,370.102971,444.123565,-9959.241474
906.123677,370.102971,1406.391290,-10418.898773
906.123997,-1110.308913,2664.741391,-10035.851024
906.124317,-1850.514855,1554.432478,-9576.193725
906.124637,-444.123565,-1036.288319,-8963.317327
906.124957,1924.535449,-2146.597232,-9576.193725
906.125277,370.102971,-1554.432478,-7967.393179
906.125597,-740.205942,-2442.679609,-9806.022374
906.125917,-2590.720797,-2590.720797,-8427.050478
906.126237,-2960.823768,-666.185348,-8963.317327
906.126557,148.041188,1184.329507,-9576.193725
906.126877,2590.720797,3775.050304,-9882.631924
906.127196,3256.906145,3701.029710,-10572.117872
906.127516,3849.070898,2960.823768,-10572.117872
906.127836,2368.659014,1776.494261,-10495.508323
906.128156,2442.679609,0.000000,-10418.898773
906.128476,2368.659014,-296.082377,-10189.070123
906.128796,74.020594,0.000000,-10265.679673
906.129116,-592.164754,666.185348,-10572.117872
906.129436,-1702.473667,1702.473667,-10035.851024
906.129756,74.020594,1702.473667,-10725.336972
906.130076,3182.885551,2738.761985,-10418.898773
906.130396,2664.741391,2368.659014,-11108.384721
906.130716,3849.070898,1184.329507,-10955.165621
906.131036,2960.823768,0.000000,-10112.460574
906.131355,1554.432478,-370.102971,-10495.508323
906.131675,2368.659014,592.164754,-10878.556072
906.131995,2590.720797,4293.194464,-10495.508323
906.132315,2812.782580,4293.194464,-11108.384721
906.132635,3256.906145,4589.276840,-10801.946522
906.132955,2294.638420,1850.514855,-9959.241474
906.133275,2442.679609,-1776.494261,-10035.851024
906.133595,740.205942,-3997.112087,-8733.488677
906.133915,-2442.679609,-2738.761985,-9269.755526
906.134235,-2368.659014,-2516.700203,-9499.584175
906.134555,-2368.659014,-444.123565,-8350.440928
906.134875,370.102971,592.164754,-9499.584175
906.135195,1628.453072,888.247130,-9116.536426
906.135514,2220.617826,1998.556043,-10189.070123
906.135834,1406.391290,1702.473667,-9959.241474
906.136154,296.082377,740.205942,-9499.584175
906.136474,0.000000,-740.205942,-9499.584175
906.136794,814.226536,-2220.617826,-9346.365076
906.137114,-814.226536,-2072.576638,-9193.145976
906.137434,-1628.453072,-2146.597232,-10112.460574
906.137754,-1998.556043,-666.185348,-10035.851024
906.138074,-1258.350101,1480.411884,-10342.289223
906.138394,444.123565,1110.308913,-11031.775171
906.138714,-962.267725,888.247130,-10035.851024
906.139034,-1702.473667,1332.370696,-11031.775171
906.139354,-2220.617826,518.144159,-10572.117872
906.139673,-2664.741391,-444.123565,-10495.508323
906.139993,-444.123565,-1850.514855,-10648.727422
906.140313,0.000000,-2220.617826,-10189.070123
906.140633,-518.144159,-1110.308913,-10265.679673
906.140953,-1924.535449,1258.350101,-11184.994271
906.141273,-1036.288319,2220.617826,-10418.898773
906.141593,0.000000,1332.370696,-11491.432470
906.141913,2812.782580,-888.247130,-10495.508323
906.142233,1110.308913,-1480.411884,-10035.851024
906.142553,-370.102971,-1480.411884,-10112.460574
906.142873,-666.185348,-1184.329507,-10418.898773
906.143193,740.205942,1110.308913,-10112.460574
906.143513,2072.576638,3034.844362,-10648.727422
906.143832,1258.350101,3997.112087,-10342.289223
906.144152,0.000000,2590.720797,-10035.851024
906.144472,-1110.308913,1332.370696,-9806.022374
906.144792,-1554.432478,-592.164754,-9652.803275
906.145112,3627.009116,-2368.659014,-9882.631924
906.145432,4663.297435,-3849.070898,-9806.022374
906.145752,2220.617826,-3108.864956,-9116.536426
906.146072,148.041188,0.000000,-9652.803275
906.146392,370.102971,3552.988522,-10189.070123
906.146712,3701.029710,5403.503377,-10418.898773
906.147032,6587.832884,4811.338623,-10648.727422
906.147353,4589.276840,3034.844362,-10265.679673
906.147673,3552.988522,-2294.638420,-10112.460574
906.147993,1480.411884,-3182.885551,-10572.117872
906.148313,222.061783,-2368.659014,-9806.022374
906.148633,-2294.638420,-962.267725,-10418.898773
906.148953,1184.329507,592.164754,-9959.241474
906.149274,1258.350101,2368.659014,-11108.384721
906.149594,814.226536,1554.432478,-11721.261119
906.149914,666.185348,2294.638420,-9959.241474
906.150234,2220.617826,1184.329507,-10955.165621
906.150554,1702.473667,2368.659014,-9729.412825
906.150874,518.144159,3404.947333,-10725.336972
906.151195,-1110.308913,2146.597232,-9882.631924
906.151515,-222.061783,1480.411884,-9652.803275
906.151835,814.226536,74.020594,-10189.070123
906.152155,1628.453072,-2886.803174,-8886.707777
906.152475,2368.659014,-1258.350101,-9269.755526
906.152795,370.102971,370.102971,-9806.022374
906.153116,-592.164754,2220.617826,-9499.584175
906.153436,-1924.535449,3552.988522,-9959.241474
906.153756,-222.061783,888.247130,-9652.803275
906.154076,370.102971,-148.041188,-9499.584175
906.154396,0.000000,-1480.411884,-10342.289223
906.154716,-592.164754,-1480.411884,-9346.365076
906.155037,-518.144159,0.000000,-9729.412825
906.155357,-592.164754,814.226536,-9959.241474
906.155677,370.102971,1628.453072,-10189.070123
906.155997,-2220.617826,2368.659014,-10112.460574
906.156317,-3923.091493,740.205942,-10265.679673
906.156637,-4737.318029,-1702.473667,-9652.803275
906.156957,-4589.276840,-2294.638420,-10112.460574
906.157278,-1480.411884,-2738.761985,-9499.584175
906.157598,-740.205942,-296.082377,-10265.679673
906.157918,-814.226536,518.144159,-10265.679673
906.158238,0.000000,1776.494261,-10189.070123
906.158558,74.020594,3182.885551,-10955.165621
906.158878,0.000000,1924.535449,-10648.727422
906.159199,1406.391290,1332.370696,-9959.241474
906.159519,148.041188,148.041188,-10265.679673
906.159839,-1554.432478,-1702.473667,-10418.898773
906.160159,-222.061783,-1480.411884,-10035.851024
906.160479,0.000000,-1554.432478,-10495.508323
906.160799,-444.123565,-888.247130,-9422.974625
906.161120,-444.123565,2072.576638,-9806.022374
906.161440,592.164754,2368.659014,-10648.727422
906.161760,1036.288319,2368.659014,-9806.022374
906.162080,-370.102971,444.123565,-10265.679673
906.162400,1332.370696,-1184.329507,-8810.098227
906.162720,1998.556043,-740.205942,-9576.193725
906.163041,2294.638420,370.102971,-10878.556072
906.163361,2146.597232,1036.288319,-9806.022374
906.163681,4071.132681,888.247130,-10725.336972
906.164001,4441.235652,-518.144159,-10648.727422
906.164321,2146.597232,-1110.308913,-9806.022374
906.164641,444.123565,-666.185348,-10495.508323
906.164962,-296.082377,-148.041188,-9959.241474
906.165282,1702.473667,-222.061783,-9806.022374
906.165602,3330.926739,-592.164754,-10495.508323
906.165922,3923.091493,-370.102971,-9806.022374
906.166242,2442.679609,740.205942,-10495.508323
906.166562,2516.700203,962.267725,-9882.631924
906.166883,1036.288319,962.267725,-9193.145976
906.167203,888.247130,74.020594,-10572.117872
906.167523,1998.556043,-740.205942,-10189.070123
906.167843,666.185348,-1850.514855,-10035.851024
906.168163,-148.041188,-740.205942,-10189.070123
906.168483,-888.247130,518.144159,-9116.536426
906.168804,1406.391290,2812.782580,-10648.727422
906.169124,4589.276840,1406.391290,-10265.679673
906.169444,3404.947333,1332.370696,-10035.851024
906.169764,1110.308913,-1184.329507,-9882.631924
906.170084,74.020594,-2516.700203,-9269.755526
906.170404,-296.082377,-1776.494261,-9576.193725
906.170724,2442.679609,148.041188,-10572.117872
906.171045,3775.050304,2442.679609,-10725.336972
906.171365,-148.041188,2368.659014,-10801.946522
906.171685,-2516.700203,0.000000,-9882.631924
906.172005,-3627.009116,-296.082377,-9652.803275
906.172325,-2442.679609,666.185348,-10112.460574
906.172645,-1554.432478,592.164754,-11108.384721
906.172966,-2146.597232,444.123565,-9422.974625
906.173286,-2886.803174,-814.226536,-10572.117872
906.173606,-2220.617826,-1850.514855,-9346.365076
906.173926,-1776.494261,-1258.350101,-10955.165621
906.174246,296.082377,-222.061783,-10572.117872
906.174566,1110.308913,1998.556043,-10035.851024
906.174887,-370.102971,2368.659014,-10418.898773
906.175207,-592.164754,740.205942,-9269.755526
906.175527,-888.247130,-1258.350101,-9576.193725
906.175847,-1184.329507,-2294.638420,-9959.241474
906.176167,-592.164754,-1850.514855,-9806.022374
906.176487,592.164754,-444.123565,-9806.022374
906.176808,-592.164754,888.247130,-10418.898773
906.177128,-814.226536,1850.514855,-9882.631924
906.177448,740.205942,2590.720797,-10495.508323
906.177768,740.205942,2294.638420,-10189.070123
906.178088,0.000000,2220.617826,-11338.213370
906.178408,-148.041188,592.164754,-10495.508323
906.178729,222.061783,518.144159,-9959.241474
906.179049,1184.329507,370.102971,-9576.193725
906.179369,2368.659014,-740.205942,-10035.851024
906.179689,1776.494261,-370.102971,-9806.022374
906.180009,0.000000,1332.370696,-10572.117872
906.180329,1332.370696,1406.391290,-9806.022374
906.180650,4145.153275,1702.473667,-9959.241474
906.180970,6143.709319,-222.061783,-10418.898773
906.181290,3775.050304,1110.308913,-10035.851024
906.181610,1110.308913,1184.329507,-10648.727422
906.181930,222.061783,888.247130,-10189.070123
906.182250,2664.741391,1850.514855,-9422.974625
906.182571,2886.803174,444.123565,-10495.508323
906.182891,1628.453072,-888.247130,-9959.241474
906.183211,148.041188,-2146.597232,-9806.022374
906.183531,0.000000,-2442.679609,-9882.631924
906.183851,592.164754,-1554.432478,-9269.755526
906.184171,1480.411884,0.000000,-10418.898773
906.184491,2368.659014,74.020594,-9959.241474
906.184812,2146.597232,2146.597232,-10112.460574
906.185132,1110.308913,3034.844362,-11031.775171
906.185452,1406.391290,2812.782580,-9806.022374
906.185772,1480.411884,2590.720797,-10265.679673
906.186092,3182.885551,-222.061783,-10955.165621
906.186412,1998.556043,-1480.411884,-9806.022374
906.186733,-814.226536,-3552.988522,-9806.022374
906.187053,-2368.659014,-3404.947333,-8810.098227
906.187373,-2516.700203,-814.226536,-9422.974625
906.187693,-1924.535449,1776.494261,-10801.946522
906.188013,222.061783,2294.638420,-10265.679673
906.188333,-1480.411884,1628.453072,-9959.241474
906.188654,-1332.370696,-444.123565,-10265.679673
906.188974,-518.144159,-2146.597232,-9346.365076
906.189294,814.226536,-2738.761985,-10265.679673
906.189614,592.164754,-1998.556043,-10189.070123
906.189934,-814.226536,-1036.288319,-9729.412825
906.190254,-2960.823768,-444.123565,-9882.631924
906.190575,-2442.679609,-518.144159,-9882.631924
906.190895,-1554.432478,444.123565,-10342.289223
906.191215,-444.123565,-296.082377,-10725.336972
906.191535,-444.123565,222.061783,-10189.070123
906.191855,-1628.453072,-962.267725,-10878.556072
906.192175,-370.102971,-1702.473667,-9806.022374
906.192496,148.041188,-1480.411884,-9806.022374
906.192816,518.144159,74.020594,-10495.508323
906.193136,-740.205942,888.247130,-10265.679673
906.193456,-2146.597232,2146.597232,-10189.070123
906.193776,-2664.741391,1258.350101,-10418.898773
906.194096,-592.164754,0.000000,-9729.412825
906.194417,1702.473667,-1702.473667,-10112.460574
906.194737,2294.638420,-2886.803174,-10495.508323
906.195057,1480.411884,-2442.679609,-9729.412825
906.195377,-592.164754,-1332.370696,-10112.460574
906.195697,-1998.556043,1332.370696,-9576.193725
906.196017,0.000000,2664.741391,-10112.460574
906.196338,2072.576638,2368.659014,-10572.117872
906.196658,3923.091493,1332.370696,-9806.022374
906.196978,3849.070898,296.082377,-10955.165621
906.197298,3701.029710,-1036.288319,-9806.022374
906.197618,2220.617826,-888.247130,-9652.803275
906.197938,1776.494261,-2220.617826,-9652.803275
906.198258,2590.720797,-740.205942,-9652.803275
906.198579,0.000000,1332.370696,-10035.851024
906.198899,-740.205942,2590.720797,-10342.289223
906.199219,2590.720797,3330.926739,-10418.898773
906.199539,3182.885551,2072.576638,-10035.851024
906.199859,5107.421000,-1258.350101,-9346.365076
906.200179,2960.823768,-1036.288319,-9806.022374
906.200500,3182.885551,-592.164754,-10955.165621
906.200820,2220.617826,1628.453072,-9193.145976
906.201140,1702.473667,3701.029710,-11031.775171
906.201460,2886.803174,2368.659014,-10572.117872
906.201780,1998.556043,1184.329507,-9959.241474
906.202100,-814.226536,0.000000,-10495.508323
906.202421,-962.267725,1110.308913,-10112.460574
906.202741,-518.144159,814.226536,-10189.070123
906.203061,1850.514855,518.144159,-10725.336972
906.203381,3182.885551,-666.185348,-9806.022374
906.203701,444.123565,592.164754,-8886.707777
906.204021,-1924.535449,1628.453072,-10035.851024
906.204342,-444.123565,1184.329507,-9806.022374
906.204662,592.164754,1406.391290,-10112.460574
906.204982,1480.411884,740.205942,-9806.022374
906.205302,0.000000,-740.205942,-9422.974625
906.205622,-1110.308913,-2294.638420,-9959.241474
906.205942,-814.226536,-1998.556043,-9269.755526
906.206263,-592.164754,-666.185348,-9576.193725
906.206583,740.205942,1480.411884,-10342.289223
906.206903,-1036.288319,2368.659014,-9806.022374
906.207223,-2886.803174,1850.514855,-9882.631924
906.207543,-3330.926739,0.000000,-9499.584175
906.207863,-1406.391290,-296.082377,-9806.022374
906.208184,0.000000,-1480.411884,-9959.241474
906.208504,0.000000,-1776.494261,-9959.241474
906.208824,-1258.350101,-1184.329507,-9729.412825
906.209144,-1332.370696,0.000000,-10418.898773
906.209464,-1628.453072,2146.597232,-9729.412825
906.209784,-1776.494261,1776.494261,-10648.727422
906.210105,-1776.494261,888.247130,-10112.460574
906.210425,74.020594,-518.144159,-10265.679673
906.210745,148.041188,-1998.556043,-10878.556072
906.211065,1184.329507,-1850.514855,-10189.070123
906.211385,370.102971,0.000000,-10648.727422
906.211705,1406.391290,2220.617826,-11108.384721
906.212025,1924.535449,2516.700203,-10418.898773
906.212346,1184.329507,3775.050304,-12870.404366
906.212666,296.082377,2442.679609,-10495.508323
906.212986,0.000000,1702.473667,-10035.851024
906.213306,518.144159,0.000000,-10725.336972
906.213626,1480.411884,-1554.432478,-8810.098227
906.213946,1406.391290,-1554.432478,-9959.241474
906.214267,148.041188,-518.144159,-10112.460574
906.214587,-666.185348,1184.329507,-9193.145976
906.214907,1850.514855,1332.370696,-10035.851024
906.215227,4515.256246,888.247130,-10112.460574
906.215547,3849.070898,-814.226536,-9652.803275
906.215867,2590.720797,-1702.473667,-9959.241474
906.216188,1258.350101,-518.144159,-8963.317327
906.216508,1258.350101,-444.123565,-10725.336972
906.216828,2664.741391,0.000000,-10035.851024
906.217148,2220.617826,-296.082377,-9806.022374
906.217468,3034.844362,-296.082377,-9806.022374
906.217788,2072.576638,-592.164754,-9806.022374
906.218109,1110.308913,-814.226536,-8963.317327
906.218429,1332.370696,-1702.473667,-10342.289223
906.218749,1702.473667,-1332.370696,-9806.022374
906.219069,1406.391290,444.123565,-10572.117872
906.219389,888.247130,1998.556043,-11261.603821
906.219709,0.000000,3330.926739,-9882.631924
906.220030,0.000000,3330.926739,-11184.994271
906.220350,2220.617826,2442.679609,-10878.556072
906.220670,1480.411884,666.185348,-10572.117872
906.220990,-370.102971,-518.144159,-10495.508323
906.221310,-2072.576638,-1924.535449,-8810.098227
906.221630,74.020594,-888.247130,-9959.241474
906.221951,2072.576638,-222.061783,-10878.556072
906.222271,2590.720797,1036.288319,-8733.488677
906.222591,-666.185348,1702.473667,-10495.508323
906.222911,-3182.885551,1554.432478,-9806.022374
906.223231,-2220.617826,1702.473667,-9806.022374
906.223551,-518.144159,518.144159,-10112.460574
906.223872,222.061783,0.000000,-9576.193725
906.224192,-444.123565,-1110.308913,-9499.584175
906.224512,-1110.308913,-1924.535449,-9882.631924
906.224832,-1480.411884,-1480.411884,-9269.755526
906.225152,-2368.659014,0.000000,-9499.584175
906.225472,-1332.370696,148.041188,-9422.974625
906.225792,-1628.453072,1406.391290,-9269.755526
906.226113,-1998.556043,74.020594,-10112.460574
906.226433,-444.123565,-296.082377,-10112.460574
906.226753,1184.329507,-222.061783,-10112.460574
906.227073,1924.535449,-666.185348,-10572.117872
906.227393,1110.308913,-444.123565,-9806.022374
906.227713,-1184.329507,222.061783,-10418.898773
906.228034,-666.185348,1184.329507,-9959.241474
906.228354,-962.267725,2072.576638,-10112.460574
906.228674,-888.247130,1554.432478,-11338.213370
906.228994,-888.247130,814.226536,-9882.631924
906.229314,-1110.308913,1776.494261,-10495.508323
906.229634,-370.102971,1850.514855,-10725.336972
906.229955,0.000000,1258.350101,-10112.460574
906.230275,2516.700203,296.082377,-10725.336972
906.230595,3701.029710,-518.144159,-10342.289223
906.230915,2294.638420,0.000000,-10495.508323
906.231235,444.123565,222.061783,-10265.679673
906.231555,2294.638420,1406.391290,-10189.070123
906.231876,3775.050304,1332.370696,-10342.289223
906.232196,3552.988522,370.102971,-9882.631924
906.232516,2146.597232,-592.164754,-9499.584175
906.232836,74.020594,-592.164754,-9959.241474
906.233156,1184.329507,0.000000,-9959.241474
906.233476,2220.617826,518.144159,-9882.631924
906.233797,2886.803174,740.205942,-10189.070123
906.234117,1628.453072,-370.102971,-9652.803275
906.234437,-296.082377,0.000000,-9959.241474
906.234757,-296.082377,-444.123565,-9806.022374
906.235077,1554.432478,666.185348,-9346.365076
906.235397,2886.803174,592.164754,-10342.289223
906.235718,5033.400406,148.041188,-10265.679673
906.236038,1776.494261,-518.144159,-9576.193725
906.236358,-592.164754,518.144159,-10265.679673
906.236678,-370.102971,1406.391290,-9652.803275
906.236998,0.000000,2220.617826,-9882.631924
906.237318,2960.823768,1924.535449,-10495.508323
906.237639,2442.679609,592.164754,-9652.803275
906.237959,1776.494261,-592.164754,-9116.536426
906.238279,666.185348,-1332.370696,-9576.193725
906.238599,444.123565,222.061783,-10112.460574
906.238919,592.164754,1332.370696,-10878.556072
906.239239,1036.288319,814.226536,-10418.898773
906.239559,-740.205942,370.102971,-10189.070123
906.239880,-2886.803174,-518.144159,-10572.117872
906.240200,-3627.009116,0.000000,-9576.193725
906.240520,-1554.432478,0.000000,-10648.727422
906.240840,1628.453072,962.267725,-11108.384721
906.241160,1924.535449,1924.535449,-10572.117872
906.241480,-666.185348,1036.288319,-11031.775171
906.241801,-2368.659014,666.185348,-10035.851024
906.242121,-1998.556043,222.061783,-9576.193725
906.242441,-1332.370696,-148.041188,-10801.946522
906.242761,-1554.432478,-370.102971,-9806.022374
906.243081,-1628.453072,-814.226536,-10265.679673
906.243401,-2590.720797,-1332.370696,-9422.974625
906.243722,-3330.926739,-1258.350101,-9193.145976
906.244042,-592.164754,148.041188,-10189.070123
906.244362,2146.597232,1036.288319,-9576.193725
906.244682,888.247130,1702.473667,-10572.117872
906.245002,0.000000,74.020594,-9499.584175
906.245322,-518.144159,-888.247130,-9193.145976
906.245643,-814.226536,-518.144159,-10342.289223
906.245963,-888.247130,-814.226536,-8886.707777
906.246283,-962.267725,814.226536,-9652.803275
906.246603,-1184.329507,1184.329507,-10342.289223
906.246923,1480.411884,1332.370696,-9499.584175
906.247243,370.102971,1332.370696,-10342.289223
906.247564,962.267725,888.247130,-10189.070123
906.247884,1258.350101,444.123565,-9806.022374
906.248204,518.144159,-592.164754,-10342.289223
906.248524,740.205942,-1110.308913,-9576.193725
906.248814,1850.514855,-740.205942,-10112.460574
906.249134,3775.050304,814.226536,-10342.289223
906.249454,3627.009116,2368.659014,-10495.508323
906.249774,3256.906145,3108.864956,-10878.556072
906.250094,1998.556043,2220.617826,-10342.289223
906.250414,2294.638420,814.226536,-10342.289223
906.250734,2294.638420,-888.247130,-10112.460574
906.251054,2738.761985,-1406.391290,-10189.070123
906.251374,1702.473667,-222.061783,-10572.117872
906.251694,592.164754,1406.391290,-11261.603821
906.252014,592.164754,2442.679609,-10495.508323
906.252334,2072.576638,2738.761985,-10495.508323
906.252654,3552.988522,2516.700203,-11031.775171
906.252974,2886.803174,2072.576638,-10878.556072
906.253294,2516.700203,2368.659014,-11031.775171
906.253614,2072.576638,0.000000,-10418.898773
906.253934,1036.288319,222.061783,-10035.851024
906.254254,1036.288319,-222.061783,-10189.070123
906.254574,1184.329507,-518.144159,-9499.584175
906.254894,0.000000,1258.350101,-9729.412825
906.255214,370.102971,1998.556043,-9806.022374
906.255534,148.041188,1702.473667,-9499.584175
906.255854,1036.288319,74.020594,-9193.145976
906.256174,3478.967927,-2220.617826,-9499.584175
906.256494,2442.679609,-2590.720797,-8810.098227
906.256814,-1036.288319,-2886.803174,-8963.317327
906.257134,-1924.535449,-1036.288319,-8120.612279
906.257454,0.000000,1628.453072,-9806.022374
906.257774,1628.453072,2664.741391,-9959.241474
906.258094,740.205942,2146.597232,-9499.584175
906.258413,-1110.308913,0.000000,-9882.631924
906.258733,-2146.597232,-1036.288319,-9346.365076
906.259053,-2886.803174,-1184.329507,-9422.974625
906.259373,-1628.453072,-1480.411884,-9576.193725
906.259693,0.000000,-1110.308913,-9499.584175
906.260013,-444.123565,0.000000,-10112.460574
906.260333,-1850.514855,814.226536,-10112.460574
906.260653,-2738.761985,1850.514855,-9729.412825
906.260973,-1702.473667,2146.597232,-11108.384721
906.261293,2294.638420,148.041188,-10878.556072
906.261613,1184.329507,-370.102971,-10801.946522
906.261933,-2442.679609,-962.267725,-10955.165621
906.262253,-4071.132681,592.164754,-10035.851024
906.262573,-3627.009116,3404.947333,-11951.089769
906.262893,-1406.391290,4219.173869,-11721.261119
906.263213,0.000000,3478.967927,-10572.117872
906.263533,962.267725,1406.391290,-10801.946522
906.263853,962.267725,-814.226536,-10342.289223
906.264173,74.020594,-2516.700203,-10418.898773
906.264493,666.185348,-2812.782580,-10495.508323
906.264813,1406.391290,-1702.473667,-9193.145976
906.265133,148.041188,962.267725,-9346.365076
906.265453,1554.432478,1776.494261,-9576.193725
906.265773,2664.741391,2442.679609,-9499.584175
906.266093,3849.070898,1258.350101,-11108.384721
906.266413,4515.256246,-888.247130,-9729.412825
906.266733,2220.617826,-1480.411884,-9499.584175
906.267053,1628.453072,-2368.659014,-9269.755526
906.267373,592.164754,-2664.741391,-8120.612279
906.267693,222.061783,-1110.308913,-9422.974625
906.268013,1406.391290,-1406.391290,-9576.193725
906.268333,1554.432478,0.000000,-9346.365076
906.268653,1332.370696,1332.370696,-10265.679673
906.268973,3256.906145,814.226536,-9729.412825
906.269293,3256.906145,1110.308913,-8963.317327
906.269613,4441.235652,-444.123565,-10418.898773
906.269933,3701.029710,-666.185348,-9269.755526
906.270253,3182.885551,-1702.473667,-10648.727422
906.270573,2960.823768,-444.123565,-10265.679673
906.270893,666.185348,666.185348,-9729.412825
906.271213,962.267725,2368.659014,-11108.384721
906.271533,1332.370696,3627.009116,-10725.336972
906.271852,888.247130,2812.782580,-11797.870669
906.272172,-1184.329507,740.205942,-11031.775171
906.272492,-2368.659014,-1110.308913,-10265.679673
906.272812,-2738.761985,-1554.432478,-10189.070123
906.273132,518.144159,-1924.535449,-10418.898773
906.273452,1628.453072,222.061783,-11338.213370
906.273772,740.205942,1554.432478,-11414.822920
906.274092,296.082377,1776.494261,-10572.117872
906.274412,0.000000,1924.535449,-10801.946522
906.274732,148.041188,962.267725,-10572.117872
906.275052,-1702.473667,222.061783,-10342.289223
906.275372,-2072.576638,-518.144159,-10112.460574
906.275692,-2886.803174,-962.267725,-9652.803275
906.276012,-1036.288319,-1480.411884,-9576.193725
906.276332,-592.164754,-2294.638420,-10189.070123
906.276652,-1702.473667,-1702.473667,-9193.145976
906.276972,-1480.411884,740.205942,-9269.755526
906.277292,-2294.638420,1776.494261,-10495.508323
906.277612,-1036.288319,2738.761985,-9039.926876
906.277932,-222.061783,1850.514855,-10112.460574
906.278252,518.144159,-148.041188,-9729.412825
906.278572,1258.350101,0.000000,-9269.755526
906.278892,-1628.453072,-518.144159,-10112.460574
906.279212,-3478.967927,-222.061783,-8963.317327
906.279532,-1480.411884,592.164754,-9882.631924
906.279852,0.000000,222.061783,-10342.289223
906.280172,0.000000,962.267725,-10112.460574
906.280492,-1776.494261,444.123565,-10035.851024
906.280812,-1332.370696,1554.432478,-10189.070123
906.281132,740.205942,1110.308913,-10265.679673
906.281452,4737.318029,740.205942,-10878.556072
906.281772,4145.153275,1406.391290,-10648.727422
906.282092,2368.659014,444.123565,-11491.432470
906.282412,222.061783,1480.411884,-10495.508323
906.282732,1628.453072,1998.556043,-10189.070123
906.283052,1554.432478,2146.597232,-10801.946522
906.283372,2146.597232,1776.494261,-9806.022374
906.283692,666.185348,74.020594,-10035.851024
906.284012,0.000000,-518.144159,-10801.946522
906.284332,2812.782580,-814.226536,-9422.974625
906.284652,3849.070898,1480.411884,-10265.679673
906.284972,4959.379811,2146.597232,-9806.022374
906.285291,3923.091493,2368.659014,-9652.803275
906.285611,1702.473667,1628.453072,-10572.117872
906.285931,2072.576638,1554.432478,-10035.851024
906.286251,3182.885551,2294.638420,-9499.584175
906.286571,3108.864956,2516.700203,-11031.775171
906.286891,1628.453072,1776.494261,-9652.803275
906.287211,-592.164754,1850.514855,-10035.851024
906.287531,222.061783,740.205942,-9729.412825
906.287851,1406.391290,-148.041188,-8120.612279
906.288171,1850.514855,-1184.329507,-9652.803275
906.288491,1924.535449,-2072.576638,-9422.974625
906.288811,1110.308913,-1332.370696,-8656.879127
906.289131,518.144159,-814.226536,-9806.022374
906.289451,1406.391290,666.185348,-9116.536426
906.289771,962.267725,2072.576638,-9806.022374
906.290091,1258.350101,1702.473667,-10418.898773
906.290411,-148.041188,1850.514855,-9652.803275
906.290731,-3404.947333,0.000000,-9652.803275
906.291051,-1924.535449,-2442.679609,-9806.022374
906.291371,-666.185348,-3775.050304,-9269.755526
906.291691,-814.226536,-3701.029710,-10342.289223
906.292011,-518.144159,-1924.535449,-9576.193725
906.292331,-2220.617826,1184.329507,-10495.508323
906.292651,-1702.473667,1924.535449,-11491.432470
906.292971,-148.041188,2738.761985,-10342.289223
906.293291,-222.061783,2664.741391,-11184.994271
906.293611,-740.205942,1184.329507,-10878.556072
906.293931,-2294.638420,222.061783,-10572.117872
906.294251,-2220.617826,-740.205942,-11338.213370
906.294571,-666.185348,-2294.638420,-10035.851024
906.294891,0.000000,-1332.370696,-10342.289223
906.295211,1406.391290,-962.267725,-11108.384721
906.295531,-2442.679609,296.082377,-10265.679673
906.295851,-4737.318029,1110.308913,-10572.117872
906.296171,-2812.782580,518.144159,-10572.117872
906.296491,1406.391290,0.000000,-10112.460574
906.296811,3182.885551,-962.267725,-10418.898773
906.297131,814.226536,-3034.844362,-9806.022374
906.297451,-888.247130,-1406.391290,-9652.803275
906.297771,296.082377,0.000000,-11261.603821
906.298091,740.205942,2368.659014,-9729.412825
906.298411,-888.247130,3330.926739,-10035.851024
906.298730,-740.205942,1628.453072,-10112.460574
906.299050,-370.102971,444.123565,-9193.145976
906.299370,0.000000,-2368.659014,-9882.631924
906.299690,2294.638420,-4663.297435,-8656.879127
906.300010,2886.803174,-5847.626942,-9116.536426
906.300330,5181.441594,-5033.400406,-9882.631924
906.300650,2590.720797,-1850.514855,-8503.660028
906.300970,-148.041188,2442.679609,-10572.117872
906.301290,222.061783,4737.318029,-10189.070123
906.301610,2812.782580,5329.482782,-10265.679673
906.301930,3775.050304,1924.535449,-11414.822920
906.302250,2220.617826,-1036.288319,-9422.974625
906.302570,0.000000,-4071.132681,-10189.070123
906.302890,0.000000,-4441.235652,-9882.631924
906.303210,444.123565,-3478.967927,-9116.536426
906.303530,1628.453072,0.000000,-10648.727422
906.303850,1480.411884,1480.411884,-10189.070123
906.304170,1332.370696,4219.173869,-10572.117872
906.304490,1110.308913,4885.359217,-11797.870669
906.304810,2368.659014,4293.194464,-10342.289223
906.305130,3552.988522,2368.659014,-11108.384721
906.305450,3182.885551,-370.102971,-10572.117872
906.305770,1184.329507,-2072.576638,-9499.584175
906.306090,-740.205942,-3108.864956,-9652.803275
906.306410,74.020594,-1702.473667,-9576.193725
906.306730,1776.494261,1480.411884,-9806.022374
906.307050,1480.411884,3627.009116,-10801.946522
906.307370,-148.041188,4145.153275,-9499.584175
906.307690,-1776.494261,3182.885551,-10418.898773
906.308010,-74.020594,518.144159,-10418.898773
906.308330,2664.741391,-1110.308913,-9269.755526
906.308650,2738.761985,-1480.411884,-10418.898773
906.308970,1702.473667,-1776.494261,-9422.974625
906.309290,1110.308913,148.041188,-9576.193725
906.309610,148.041188,2960.823768,-10801.946522
906.309930,-1406.391290,3627.009116,-9499.584175
906.310250,-2516.700203,2812.782580,-10189.070123
906.310570,-1258.350101,296.082377,-9882.631924
906.310890,-592.164754,-1924.535449,-9116.536426
906.311210,-888.247130,-2368.659014,-10265.679673
906.311530,-1110.308913,-1850.514855,-9039.926876
906.311850,-1406.391290,518.144159,-9652.803275
906.312169,-592.164754,3034.844362,-10725.336972
906.312489,-592.164754,3775.050304,-10035.851024
906.312809,-1332.370696,4367.215058,-10801.946522
906.313129,-740.205942,2738.761985,-10648.727422
906.313449,222.061783,222.061783,-9652.803275
906.313769,1850.514855,-1036.288319,-10265.679673
906.314089,814.226536,-2516.700203,-10572.117872
906.314409,-444.123565,-888.247130,-9882.631924
906.314729,-2442.679609,1924.535449,-10725.336972
906.315049,-2368.659014,3478.967927,-9806.022374
906.315369,-518.144159,4293.194464,-10495.508323
906.315689,3256.906145,3478.967927,-10495.508323
906.316009,3775.050304,2590.720797,-10035.851024
906.316329,2590.720797,1036.288319,-11797.870669
906.316649,1924.535449,-1998.556043,-9806.022374
906.316969,296.082377,-2886.803174,-9422.974625
906.317289,0.000000,-2664.741391,-9959.241474
906.317609,-148.041188,0.000000,-8503.660028
906.317929,-148.041188,2368.659014,-9882.631924
906.318249,1332.370696,2738.761985,-10495.508323
906.318569,1924.535449,2294.638420,-9806.022374
906.318889,2368.659014,-666.185348,-10572.117872
906.319209,2368.659014,-3182.885551,-9039.926876
906.319529,740.205942,-4145.153275,-9116.536426
906.319849,1258.350101,-3627.009116,-9806.022374
906.320169,2294.638420,-296.082377,-9193.145976
906.320489,2220.617826,2738.761985,-11568.042020
906.320809,2220.617826,3182.885551,-10572.117872
906.321129,3552.988522,2812.782580,-10035.851024
906.321449,2442.679609,888.247130,-11414.822920
906.321769,592.164754,-222.061783,-9499.584175
906.322089,-666.185348,-2738.761985,-10112.460574
906.322409,1776.494261,-4589.276840,-9959.241474
906.322729,3701.029710,-3404.947333,-9729.412825
906.323049,296.082377,-1998.556043,-10035.851024
906.323369,-1036.288319,444.123565,-9959.241474
906.323689,0.000000,2812.782580,-10265.679673
906.324009,2442.679609,2368.659014,-11568.042020
906.324329,2516.700203,592.164754,-10035.851024
906.324649,-148.041188,0.000000,-10112.460574
906.324969,-2368.659014,-740.205942,-10418.898773
906.325289,-3552.988522,-1110.308913,-9422.974625
906.325608,-1184.329507,-1332.370696,-10418.898773
906.325928,1702.473667,-1184.329507,-10189.070123
906.326248,1258.350101,-2368.659014,-9422.974625
906.326568,-1110.308913,-3182.885551,-10265.679673
906.326888,-1850.514855,-2072.576638,-9346.365076
906.327208,-2146.597232,148.041188,-10572.117872
906.327528,296.082377,1776.494261,-11184.994271
906.327848,296.082377,2072.576638,-10265.679673
906.328168,-888.247130,2220.617826,-11261.603821
906.328488,-1258.350101,74.020594,-10342.289223
906.328808,-814.226536,-1924.535449,-9806.022374
906.329128,-666.185348,-1924.535449,-10495.508323
906.329448,-2220.617826,-1332.370696,-9576.193725
906.329768,-2664.741391,222.061783,-9806.022374
906.330088,-222.061783,444.123565,-10572.117872
906.330408,2220.617826,444.123565,-9346.365076
906.330728,962.267725,1628.453072,-11031.775171
906.331048,296.082377,1332.370696,-10265.679673
906.331368,-1110.308913,1406.391290,-9576.193725
906.331688,-444.123565,1184.329507,-10725.336972
906.332008,1702.473667,444.123565,-9576.193725
906.332328,1406.391290,518.144159,-9882.631924
906.332648,1628.453072,1480.411884,-10495.508323
906.332968,962.267725,2146.597232,-9729.412825
906.333288,518.144159,2590.720797,-10112.460574
906.333608,2442.679609,962.267725,-9346.365076
906.333928,3034.844362,-1184.329507,-9116.536426
906.334248,2664.741391,-1628.453072,-9959.241474
906.334568,1776.494261,-1776.494261,-9729.412825
906.334888,148.041188,370.102971,-9806.022374
906.335208,1924.535449,2368.659014,-10342.289223
906.335528,1776.494261,2886.803174,-9576.193725
906.335848,1924.535449,1924.535449,-11184.994271
906.336168,1258.350101,1184.329507,-10725.336972
906.336488,-592.164754,888.247130,-9806.022374
906.336808,-1110.308913,592.164754,-10112.460574
906.337128,1998.556043,-592.164754,-9729.412825
906.337448,2368.659014,-1554.432478,-9959.241474
906.337768,2886.803174,-1924.535449,-9882.631924
906.338088,1776.494261,0.000000,-9729.412825
906.338408,814.226536,2960.823768,-10572.117872
906.338728,888.247130,3997.112087,-10189.070123
906.339047,3552.988522,4145.153275,-9882.631924
906.339367,3330.926739,2368.659014,-10725.336972
906.339687,3182.885551,-444.123565,-10112.460574
906.340007,444.123565,-2516.700203,-9422.974625
906.340327,-592.164754,-2368.659014,-10189.070123
906.340647,-814.226536,-370.102971,-9806.022374
906.340967,-518.144159,1184.329507,-10418.898773
906.341287,592.164754,2590.720797,-10572.117872
906.341607,-888.247130,3552.988522,-9729.412825
906.341927,-2072.576638,2664.741391,-9652.803275
906.342247,-518.144159,888.247130,-9729.412825
906.342567,1702.473667,-962.267725,-10035.851024
906.342887,1554.432478,-2516.700203,-10418.898773
906.343207,-740.205942,-2368.659014,-9806.022374
906.343527,-2812.782580,-1110.308913,-10801.946522
906.343847,-1924.535449,444.123565,-10035.851024
906.344167,444.123565,2072.576638,-10265.679673
906.344487,740.205942,2812.782580,-10955.165621
906.344807,222.061783,962.267725,-11108.384721
906.345127,-1776.494261,-370.102971,-10265.679673
906.345447,-3182.885551,-2738.761985,-10648.727422
906.345767,-2812.782580,-2738.761985,-8963.317327
906.346087,-2664.741391,-1628.453072,-10495.508323
906.346407,0.000000,148.041188,-10265.679673
906.346727,148.041188,2072.576638,-9806.022374
906.347047,-814.226536,2368.659014,-11184.994271
906.347367,148.041188,962.267725,-9652.803275
906.347687,444.123565,592.164754,-10495.508323
906.348007,814.226536,-1480.411884,-10801.946522
906.348327,0.000000,-1998.556043,-9116.536426
906.348647,-1702.473667,-1406.391290,-10189.070123
906.348967,-962.267725,-814.226536,-9806.022374
906.349287,370.102971,0.000000,-9806.022374
906.349607,1258.350101,1998.556043,-11338.213370
906.349927,1850.514855,666.185348,-9422.974625
906.350247,1628.453072,1332.370696,-9959.241474
906.350567,1554.432478,888.247130,-10265.679673
906.350887,1702.473667,-74.020594,-9806.022374
906.351206,1924.535449,-1850.514855,-11031.775171
906.351526,2886.803174,-2812.782580,-10112.460574
906.351846,1998.556043,-1110.308913,-9346.365076
906.352166,888.247130,296.082377,-10572.117872
906.352486,962.267725,1702.473667,-9959.241474
906.352806,2220.617826,2220.617826,-10648.727422
906.353126,2960.823768,444.123565,-10801.946522
906.353446,2516.700203,-1258.350101,-10189.070123
906.353766,1480.411884,-2368.659014,-10342.289223
906.354086,2368.659014,-2812.782580,-9882.631924
906.354406,2516.700203,-1480.411884,-9806.022374
906.354726,2738.761985,2146.597232,-9346.365076
906.355046,1480.411884,3478.967927,-10418.898773
906.355366,1702.473667,4811.338623,-10878.556072
906.355686,2516.700203,3256.906145,-11644.651570
906.356006,1998.556043,148.041188,-9959.241474
906.356326,3034.844362,-2368.659014,-10495.508323
906.356646,1406.391290,-2442.679609,-9729.412825
906.356966,-1850.514855,-1184.329507,-9422.974625
906.357286,-1332.370696,296.082377,-10878.556072
906.357606,888.247130,1258.350101,-9499.584175
906.357926,2368.659014,0.000000,-10112.460574
906.358246,2368.659014,0.000000,-10112.460574
906.358566,370.102971,1258.350101,-9346.365076
906.358886,-592.164754,2812.782580,-10955.165621
906.359206,-1258.350101,2294.638420,-9652.803275
906.359526,-148.041188,148.041188,-9422.974625
906.359846,148.041188,-3034.844362,-9806.022374
906.360166,370.102971,-4515.256246,-8580.269578
906.360486,-1480.411884,-5033.400406,-9039.926876
906.360806,-2220.617826,-370.102971,-9729.412825
906.361126,-1628.453072,2516.700203,-9499.584175
906.361445,-666.185348,4145.153275,-11108.384721
906.361765,-666.185348,2590.720797,-10035.851024
906.362085,-2516.700203,592.164754,-10265.679673
906.362405,-3552.988522,-148.041188,-10418.898773
906.362725,-1036.288319,-666.185348,-9576.193725
906.363045,1036.288319,222.061783,-10418.898773
906.363365,1628.453072,0.000000,-10495.508323
906.363685,-370.102971,1110.308913,-9806.022374
906.364005,-1184.329507,1480.411884,-10878.556072
906.364325,-1480.411884,2072.576638,-10189.070123
906.364645,-1702.473667,2738.761985,-10112.460574
906.364965,-296.082377,2220.617826,-11031.775171
906.365285,1924.535449,1554.432478,-9882.631924
906.365605,2220.617826,2146.597232,-10955.165621
906.365925,-296.082377,1924.535449,-11031.775171
906.366245,222.061783,0.000000,-9193.145976
906.366565,2738.761985,444.123565,-10955.165621
906.366885,3182.885551,2146.597232,-9806.022374
906.367205,-1258.350101,4219.173869,-10035.851024
906.367525,-3108.864956,4663.297435,-10495.508323
906.367845,-1258.350101,1110.308913,-9193.145976
906.368165,2072.576638,-2442.679609,-9499.584175
906.368485,4885.359217,-4737.318029,-9422.974625
906.368805,2294.638420,-4663.297435,-8733.488677
906.369125,-296.082377,-2146.597232,-10189.070123
906.369445,-370.102971,814.226536,-9422.974625
906.369765,2590.720797,2220.617826,-9882.631924
906.370085,3849.070898,2146.597232,-10418.898773
906.370405,3552.988522,1776.494261,-10495.508323
906.370725,518.144159,74.020594,-9959.241474
906.371045,1258.350101,-1110.308913,-9729.412825
906.371365,3108.864956,-2812.782580,-8733.488677
906.371684,3923.091493,-4441.235652,-9882.631924
906.372004,3627.009116,-4367.215058,-9116.536426
906.372324,592.164754,-3034.844362,-9806.022374
906.372644,-444.123565,888.247130,-10801.946522
906.372964,370.102971,4145.153275,-10342.289223
906.373284,740.205942,6365.771101,-10418.898773
906.373604,1998.556043,3108.864956,-10955.165621
906.373924,2516.700203,-222.061783,-10112.460574
906.374244,1998.556043,-1628.453072,-10955.165621
906.374564,1554.432478,-2886.803174,-11031.775171
906.374884,666.185348,-1110.308913,-10495.508323
906.375204,592.164754,592.164754,-10878.556072
906.375524,-518.144159,740.205942,-10189.070123
906.375844,-3404.947333,1480.411884,-10418.898773
906.376164,-3775.050304,1480.411884,-10189.070123
906.376484,-2442.679609,74.020594,-9806.022374
906.376804,1332.370696,-592.164754,-11031.775171
906.377124,4737.318029,-1776.494261,-10648.727422
906.377444,3849.070898,-592.164754,-10112.460574
906.377764,-222.061783,-1480.411884,-10112.460574
906.378084,-1184.329507,-1628.453072,-9039.926876
906.378404,296.082377,962.267725,-10572.117872
906.378724,-296.082377,740.205942,-10265.679673
906.379044,-2590.720797,1184.329507,-10418.898773
906.379364,-4367.215058,-148.041188,-10189.070123
906.379684,-2960.823768,-1702.473667,-9422.974625
906.380004,-1110.308913,-2368.659014,-9576.193725
906.380324,-1702.473667,-1702.473667,-9806.022374
906.380644,-2590.720797,0.000000,-9116.536426
906.380964,-3849.070898,1776.494261,-10112.460574
906.381284,-2368.659014,2516.700203,-10112.460574
906.381604,-1036.288319,2442.679609,-9193.145976
906.381923,1110.308913,-592.164754,-10572.117872
906.382243,2442.679609,-1924.535449,-9422.974625
906.382563,3627.009116,-962.267725,-9729.412825
906.382883,2072.576638,370.102971,-11261.603821
906.383203,1628.453072,2664.741391,-8963.317327
906.383523,-444.123565,3108.864956,-10648.727422
906.383843,222.061783,2368.659014,-10955.165621
906.384163,1406.391290,2220.617826,-9422.974625
906.384483,-74.020594,1110.308913,-10878.556072
906.384803,-148.041188,1628.453072,-10112.460574
906.385123,1850.514855,1406.391290,-9959.241474
906.385443,3627.009116,814.226536,-11031.775171
906.385763,4293.194464,518.144159,-9116.536426
906.386083,3330.926739,0.000000,-10801.946522
906.386403,1998.556043,1258.350101,-10189.070123
906.386723,1036.288319,1628.453072,-9576.193725
906.387043,1332.370696,1406.391290,-10342.289223
906.387363,3627.009116,1628.453072,-9959.241474
906.387683,3701.029710,1924.535449,-10495.508323
906.388003,2294.638420,1702.473667,-11108.384721
906.388323,2738.761985,444.123565,-8810.098227
906.388643,3478.967927,1480.411884,-10955.165621
906.388963,4145.153275,518.144159,-9346.365076
906.389283,2664.741391,888.247130,-9652.803275
906.389603,-518.144159,370.102971,-10495.508323
906.389923,-296.082377,592.164754,-9193.145976
906.390243,3404.947333,1998.556043,-9882.631924
906.390563,3849.070898,666.185348,-10572.117872
906.390883,2738.761985,666.185348,-9193.145976
906.391203,-814.226536,444.123565,-10418.898773
906.391523,-2072.576638,-518.144159,-9346.365076
906.391843,-1258.350101,1110.308913,-8580.269578
906.392162,0.000000,370.102971,-11108.384721
906.392482,0.000000,-1110.308913,-9576.193725
906.392802,-1184.329507,0.000000,-9806.022374
906.393122,-1924.535449,1480.411884,-11031.775171
906.393442,-888.247130,2072.576638,-9422.974625
906.393762,-962.267725,444.123565,-10648.727422
906.394082,1924.535449,-1480.411884,-10418.898773
906.394402,1332.370696,-1036.288319,-8963.317327
906.394722,-3923.091493,-888.247130,-10878.556072
906.395042,-4441.235652,-148.041188,-8810.098227
906.395362,-3478.967927,222.061783,-10035.851024
906.395682,-1554.432478,592.164754,-10955.165621
906.396002,-1036.288319,-592.164754,-9806.022374
906.396322,-2664.741391,-962.267725,-10725.336972
906.396642,-2146.597232,-1110.308913,-10189.070123
906.396962,-1406.391290,0.000000,-9499.584175
906.397282,74.020594,1406.391290,-11644.651570
906.397602,888.247130,444.123565,-9422.974625
906.397922,-1998.556043,1036.288319,-10035.851024
906.398242,-2072.576638,74.020594,-10801.946522
906.398562,666.185348,296.082377,-9882.631924
906.398882,3404.947333,518.144159,-10725.336972
906.399202,3182.885551,-296.082377,-10801.946522
906.399522,740.205942,0.000000,-9269.755526
906.399842,-1702.473667,74.020594,-11031.775171
906.400162,-1924.535449,-444.123565,-9193.145976
906.400482,74.020594,1036.288319,-9806.022374
906.400802,1184.329507,1110.308913,-11031.775171
906.401122,1184.329507,0.000000,-8810.098227
906.401442,1332.370696,-666.185348,-10189.070123
906.401762,3997.112087,-814.226536,-11338.213370
906.402082,1776.494261,-740.205942,-8580.269578
906.402401,2738.761985,-74.020594,-11261.603821
906.402721,4663.297435,444.123565,-9652.803275
906.403041,3256.906145,1998.556043,-10648.727422
906.403361,888.247130,2072.576638,-11261.603821
906.403681,0.000000,814.226536,-9499.584175
906.404001,1998.556043,-740.205942,-10342.289223
906.404321,4219.173869,-2516.700203,-10342.289223
906.404641,3404.947333,-4219.173869,-8886.707777
906.404961,1924.535449,-666.185348,-10495.508323
906.405281,444.123565,1776.494261,-10342.289223
906.405601,444.123565,2368.659014,-10572.117872
906.405921,0.000000,1850.514855,-10418.898773
906.406241,1258.350101,0.000000,-10035.851024
906.406561,296.082377,444.123565,-10342.289223
906.406881,1850.514855,0.000000,-10495.508323
906.407201,1776.494261,0.000000,-9499.584175
906.407521,888.247130,666.185348,-10495.508323
906.407841,2442.679609,-1702.473667,-10495.508323
906.408161,1776.494261,-1110.308913,-9729.412825
906.408481,-296.082377,222.061783,-10495.508323
906.408801,-1406.391290,2072.576638,-9193.145976
906.409121,-444.123565,4071.132681,-10648.727422
906.409441,740.205942,1924.535449,-10955.165621
906.409761,1036.288319,0.000000,-9576.193725
906.410081,296.082377,-1184.329507,-10189.070123
906.410401,-1406.391290,-1184.329507,-9346.365076
906.410721,-1184.329507,-370.102971,-10189.070123
906.411041,-444.123565,1554.432478,-10418.898773
906.411361,-2146.597232,1628.453072,-9499.584175
906.411681,-3478.967927,814.226536,-10189.070123
906.412001,-4441.235652,-222.061783,-9729.412825
906.412321,-3034.844362,-1924.535449,-9346.365076
906.412640,-1036.288319,-962.267725,-10418.898773
906.412960,1184.329507,1036.288319,-9729.412825
906.413280,1554.432478,1406.391290,-10265.679673
906.413600,-1332.370696,1258.350101,-10265.679673
906.413920,-3182.885551,740.205942,-9806.022374
906.414240,-2960.823768,296.082377,-10189.070123
906.414560,888.247130,-518.144159,-9269.755526
906.414880,2590.720797,740.205942,-9806.022374
906.415200,3182.885551,666.185348,-10801.946522
906.415520,2220.617826,222.061783,-9806.022374
906.415840,1776.494261,740.205942,-10265.679673
906.416160,1776.494261,370.102971,-10648.727422
906.416480,222.061783,1110.308913,-9806.022374
906.416800,-2516.700203,2072.576638,-10572.117872
906.417120,-1628.453072,1628.453072,-9959.241474
906.417440,-370.102971,1554.432478,-9882.631924
906.417760,1850.514855,-888.247130,-10801.946522
906.418080,2368.659014,-666.185348,-9806.022374
906.418400,1332.370696,888.247130,-10265.679673
906.418720,1924.535449,2368.659014,-10342.289223
906.419040,2368.659014,2146.597232,-9652.803275
906.419360,2220.617826,1850.514855,-10112.460574
906.419680,2886.803174,296.082377,-9959.241474
906.420000,4145.153275,0.000000,-9576.193725
906.420320,3330.926739,0.000000,-10265.679673
906.420640,1406.391290,-222.061783,-9652.803275
906.420960,1258.350101,74.020594,-9576.193725
906.421280,3108.864956,444.123565,-10572.117872
906.421600,3775.050304,370.102971,-9806.022374
906.421920,962.267725,1258.350101,-10801.946522
906.422240,-888.247130,148.041188,-9729.412825
906.422560,888.247130,-444.123565,-9652.803275
906.422879,2294.638420,-962.267725,-10495.508323
906.423199,2886.803174,-1406.391290,-9269.755526
906.423519,2664.741391,-814.226536,-10265.679673
906.423839,222.061783,0.000000,-10342.289223
906.424159,-2368.659014,1110.308913,-9806.022374
906.424479,-1332.370696,1628.453072,-10418.898773
906.424799,518.144159,814.226536,-10495.508323
906.425119,1036.288319,-148.041188,-10418.898773
906.425439,666.185348,-1480.411884,-10495.508323
906.425759,-1036.288319,-962.267725,-9806.022374
906.426079,-518.144159,-148.041188,-10648.727422
906.426399,1554.432478,444.123565,-11031.775171
906.426719,1702.473667,-370.102971,-10035.851024
906.427039,-740.205942,148.041188,-10801.946522
906.427359,-3552.988522,592.164754,-9806.022374
906.427679,-4885.359217,962.267725,-9959.241474
906.427999,-3182.885551,1480.411884,-10648.727422
906.428319,-666.185348,222.061783,-10112.460574
906.428639,-296.082377,-666.185348,-9959.241474
906.428959,-2516.700203,-2738.761985,-10112.460574
906.429279,-1776.494261,-3034.844362,-8580.269578
906.429599,-3034.844362,-1554.432478,-9882.631924
906.429919,370.102971,0.000000,-9882.631924
906.430239,1924.535449,814.226536,-9422.974625
906.430559,444.123565,-592.164754,-10572.117872
906.430879,-1628.453072,74.020594,-9193.145976
906.431199,-2738.761985,444.123565,-9806.022374
906.431519,-370.102971,222.061783,-10265.679673
906.431839,2516.700203,-1628.453072,-9576.193725
906.432159,2220.617826,-1702.473667,-10189.070123
906.432479,-666.185348,-666.185348,-10265.679673
906.432799,-1628.453072,0.000000,-9729.412825
906.433118,0.000000,1036.288319,-10342.289223
906.433438,444.123565,814.226536,-9422.974625
906.433758,-370.102971,1554.432478,-10648.727422
906.434078,666.185348,74.020594,-9959.241474
906.434398,2294.638420,0.000000,-9422.974625
906.434718,2590.720797,-296.082377,-9959.241474
906.435038,3627.009116,1702.473667,-11108.384721
906.435358,2146.597232,2664.741391,-10265.679673
906.435678,2442.679609,3404.947333,-11414.822920
906.435998,1628.453072,1406.391290,-10035.851024
906.436318,1554.432478,370.102971,-10878.556072
906.436638,2886.803174,296.082377,-10189.070123
906.436958,3849.070898,1036.288319,-10572.117872
906.437278,2146.597232,1406.391290,-10648.727422
906.437598,2220.617826,592.164754,-10495.508323
906.437918,2590.720797,740.205942,-10342.289223
906.438238,3034.844362,2368.659014,-11184.994271
906.438558,1036.288319,3108.864956,-9959.241474
906.438878,-222.061783,3330.926739,-9959.241474
906.439198,296.082377,2072.576638,-10495.508323
906.439518,3108.864956,148.041188,-9806.022374
906.439838,3775.050304,-370.102971,-10495.508323
906.440158,4663.297435,-1924.535449,-9193.145976
906.440478,2516.700203,222.061783,-9806.022374
906.440798,-518.144159,1258.350101,-10265.679673
906.441118,-222.061783,1554.432478,-9116.536426
906.441438,296.082377,2146.597232,-9959.241474
906.441758,1480.411884,1332.370696,-10112.460574
906.442078,518.144159,0.000000,-9116.536426
906.442398,-1406.391290,-592.164754,-10418.898773
906.442718,-1406.391290,0.000000,-9039.926876
906.443038,-1554.432478,-222.061783,-9346.365076
906.443357,-814.226536,-740.205942,-9806.022374
906.443677,-370.102971,0.000000,-9193.145976
906.443997,-444.123565,1628.453072,-10878.556072
906.444317,-1850.514855,1924.535449,-10342.289223
906.444637,-1628.453072,814.226536,-9882.631924
906.444957,-962.267725,0.000000,-10572.117872
906.445277,-1554.432478,-1036.288319,-9576.193725
906.445597,-2146.597232,-2072.576638,-9652.803275
906.445917,-2442.679609,-222.061783,-10725.336972
906.446237,-1110.308913,0.000000,-9806.022374
906.446557,370.102971,814.226536,-10725.336972
906.446877,888.247130,-740.205942,-10495.508323
906.447197,-1776.494261,-1332.370696,-9729.412825
906.447517,-3034.844362,-592.164754,-10418.898773
906.447837,-2516.700203,-222.061783,-10112.460574
906.448157,-2886.803174,518.144159,-10035.851024
906.448477,0.000000,296.082377,-10955.165621
906.448797,0.000000,-1258.350101,-8427.050478
906.449117,-296.082377,-1776.494261,-10035.851024
906.449437,518.144159,-1776.494261,-9882.631924
906.449757,1776.494261,-518.144159,-9882.631924
906.450077,2812.782580,666.185348,-10955.165621
906.450397,3849.070898,-444.123565,-10418.898773
906.450717,518.144159,-1554.432478,-8886.707777
906.451037,-1406.391290,0.000000,-10265.679673
906.451357,148.041188,444.123565,-8810.098227
906.451677,1258.350101,1406.391290,-11184.994271
906.451997,2368.659014,0.000000,-10418.898773
906.452317,1110.308913,-1628.453072,-9269.755526
906.452637,518.144159,-2442.679609,-10572.117872
906.452957,2960.823768,-2886.803174,-10418.898773
906.453277,4145.153275,74.020594,-9806.022374
906.453597,3997.112087,1036.288319,-10418.898773
906.453917,4293.194464,1924.535449,-9652.803275
906.454237,1776.494261,2368.659014,-10265.679673
906.454557,1850.514855,1480.411884,-10572.117872
906.454877,2294.638420,74.020594,-9806.022374
906.455197,2738.761985,-1850.514855,-10342.289223
906.455517,3775.050304,-1924.535449,-10189.070123
906.455837,4737.318029,-1332.370696,-9959.241474
906.456157,1702.473667,0.000000,-10725.336972
906.456477,518.144159,1258.350101,-10265.679673
906.456797,0.000000,3256.906145,-10725.336972
906.457116,-740.205942,3256.906145,-11108.384721
906.457436,-592.164754,74.020594,-9729.412825
906.457756,-592.164754,-518.144159,-10725.336972
906.458076,1110.308913,-1406.391290,-9882.631924
906.458396,2146.597232,-2294.638420,-10112.460574
906.458716,3330.926739,-74.020594,-11108.384721
906.459036,1480.411884,1850.514855,-10342.289223
906.459356,-296.082377,4885.359217,-10725.336972
906.459676,-1332.370696,4959.379811,-10725.336972
906.459996,-1110.308913,2590.720797,-9576.193725
906.460316,-740.205942,0.000000,-10801.946522
906.460636,592.164754,-2960.823768,-9422.974625
906.460956,-1776.494261,-3849.070898,-9422.974625
906.461276,-2812.782580,-1924.535449,-10265.679673
906.461596,-2442.679609,444.123565,-9193.145976
906.461916,-962.267725,3478.967927,-9652.803275
906.462236,74.020594,4515.256246,-10725.336972
906.462556,-222.061783,4885.359217,-9346.365076
906.462876,-2072.576638,2516.700203,-10572.117872
906.463196,-2220.617826,-2812.782580,-8580.269578
906.463516,-222.061783,-3923.091493,-9346.365076
906.463836,814.226536,-3182.885551,-9729.412825
906.464156,222.061783,0.000000,-9576.193725
906.464476,-1924.535449,2516.700203,-9882.631924
906.464796,-2368.659014,3552.988522,-10418.898773
906.465116,0.000000,2368.659014,-9959.241474
906.465436,888.247130,296.082377,-10572.117872
906.465756,-518.144159,-1628.453072,-9269.755526
906.466076,-1110.308913,74.020594,-9806.022374
906.466396,-444.123565,740.205942,-11184.994271
906.466716,1776.494261,444.123565,-9959.241474
906.467036,592.164754,1110.308913,-10725.336972
906.467356,1776.494261,1998.556043,-11031.775171
906.467676,2072.576638,1184.329507,-9959.241474
906.467996,1480.411884,1480.411884,-11338.213370
906.468316,1924.535449,2146.597232,-10265.679673
906.468636,1554.432478,1554.432478,-10955.165621
906.468956,2368.659014,0.000000,-10725.336972
906.469276,888.247130,-740.205942,-9806.022374
906.469596,-444.123565,-296.082377,-10725.336972
906.469916,888.247130,-148.041188,-9729.412825
906.470236,3256.906145,1258.350101,-9959.241474
906.470556,5403.503377,1480.411884,-11108.384721
906.470876,4663.297435,1924.535449,-9882.631924
906.471196,1998.556043,1110.308913,-9806.022374
906.471516,74.020594,222.061783,-9959.241474
906.471836,-370.102971,-1554.432478,-8656.879127
906.472156,3182.885551,-1480.411884,-10112.460574
906.472476,3849.070898,-3849.070898,-8656.879127
906.472796,2812.782580,-2812.782580,-8810.098227
906.473115,1850.514855,-1702.473667,-10189.070123
906.473435,0.000000,0.000000,-9193.145976
906.473755,-1554.432478,148.041188,-9652.803275
906.474075,-740.205942,0.000000,-9959.241474
906.474395,0.000000,222.061783,-9346.365076
906.474715,-592.164754,-888.247130,-10189.070123
906.475035,-740.205942,-296.082377,-10878.556072
906.475355,-592.164754,-1110.308913,-9806.022374
906.475675,1480.411884,0.000000,-11568.042020
906.475995,1110.308913,962.267725,-10189.070123
906.476315,1110.308913,1110.308913,-10955.165621
906.476635,-740.205942,2220.617826,-11951.089769
906.476955,-592.164754,1110.308913,-10189.070123
906.477275,444.123565,1258.350101,-12334.137518
906.477595,740.205942,0.000000,-11031.775171
906.477915,74.020594,-222.061783,-10418.898773
906.478235,-1554.432478,-222.061783,-11644.651570
906.478555,-2294.638420,148.041188,-9422.974625
906.478875,-2738.761985,962.267725,-10572.117872
906.479195,-518.144159,1036.288319,-11261.603821
906.479515,1184.329507,0.000000,-9729.412825
906.479835,296.082377,0.000000,-10648.727422
906.480155,-1480.411884,-222.061783,-8656.879127
906.480475,-1998.556043,-370.102971,-8963.317327
906.480795,-1850.514855,-148.041188,-9959.241474
906.481115,-148.041188,-1332.370696,-9269.755526
906.481435,-148.041188,-1776.494261,-8733.488677
906.481755,-148.041188,-962.267725,-9729.412825
906.482075,-370.102971,-148.041188,-8810.098227
906.482395,1110.308913,1702.473667,-10189.070123
906.482715,222.061783,444.123565,-9729.412825
906.483035,-370.102971,1628.453072,-8656.879127
906.483355,-1628.453072,1036.288319,-9729.412825
906.483675,-814.226536,-666.185348,-8656.879127
906.483995,888.247130,-518.144159,-9576.193725
906.484315,-222.061783,-740.205942,-10725.336972
906.484635,1998.556043,0.000000,-9576.193725
906.484955,592.164754,666.185348,-11031.775171
906.485275,0.000000,888.247130,-9729.412825
906.485595,-1850.514855,1554.432478,-9729.412825
906.485915,1702.473667,1036.288319,-11108.384721
906.486235,3182.885551,666.185348,-9729.412825
906.486555,3182.885551,740.205942,-11108.384721
906.486875,1628.453072,1480.411884,-11031.775171
906.487195,3552.988522,518.144159,-10189.070123
906.487515,4885.359217,2590.720797,-11491.432470
906.487835,3552.988522,3034.844362,-11184.994271
906.488155,3182.885551,2516.700203,-10572.117872
906.488475,666.185348,3997.112087,-11261.603821
906.488794,666.185348,1850.514855,-10035.851024
906.489114,1184.329507,666.185348,-10648.727422
906.489434,148.041188,-1480.411884,-9882.631924
906.489754,444.123565,-2368.659014,-8656.879127
906.490074,-962.267725,0.000000,-9806.022374
906.490394,518.144159,592.164754,-9806.022374
906.490714,2220.617826,1998.556043,-9193.145976
906.491034,3627.009116,3182.885551,-10801.946522
906.491354,2960.823768,2886.803174,-9576.193725
906.491674,3701.029710,1258.350101,-9882.631924
906.491994,2516.700203,-1850.514855,-9652.803275
906.492314,3034.844362,-1924.535449,-8350.440928
906.492634,1406.391290,-740.205942,-9729.412825
906.492954,0.000000,0.000000,-10801.946522
906.493274,-1332.370696,1628.453072,-9039.926876
906.493594,-1924.535449,2294.638420,-10648.727422
906.493914,-740.205942,888.247130,-9116.536426
906.494234,74.020594,-296.082377,-9499.584175
906.494554,74.020594,-1332.370696,-10342.289223
906.494874,-740.205942,-2146.597232,-9806.022374
906.495194,-2220.617826,-444.123565,-10265.679673
906.495514,-2072.576638,666.185348,-10572.117872
906.495834,-222.061783,2442.679609,-9806.022374
906.496154,-962.267725,2220.617826,-11721.261119
906.496474,-1258.350101,666.185348,-10189.070123
906.496794,-1702.473667,814.226536,-10418.898773
906.497114,-2738.761985,74.020594,-10955.165621
906.497434,-1110.308913,-2812.782580,-9193.145976
906.497754,-592.164754,-3108.864956,-10878.556072
906.498074,0.000000,-2960.823768,-10265.679673
906.498394,-1036.288319,-1924.535449,-9806.022374
906.498714,-2072.576638,1110.308913,-11031.775171
906.499034,-3775.050304,2368.659014,-9806.022374
906.499354,-2072.576638,3330.926739,-11031.775171
906.499674,666.185348,1998.556043,-10801.946522
906.499994,1036.288319,-1036.288319,-9499.584175
906.500314,444.123565,-1776.494261,-10342.289223
906.500634,1036.288319,-2516.700203,-10495.508323
906.500954,222.061783,-888.247130,-9039.926876
906.501274,1480.411884,-888.247130,-10495.508323
906.501594,1702.473667,370.102971,-9193.145976
906.501914,-962.267725,1480.411884,-9882.631924
906.502234,0.000000,444.123565,-10572.117872
906.502554,2294.638420,0.000000,-8886.707777
906.502874,1776.494261,-1924.535449,-10189.070123
906.503194,4071.132681,-3034.844362,-9193.145976
906.503514,2960.823768,-2146.597232,-9499.584175
906.503834,1406.391290,0.000000,-10725.336972
906.504154,1554.432478,2146.597232,-10112.460574
906.504473,3478.967927,3034.844362,-10265.679673
906.504793,2812.782580,1184.329507,-10648.727422
906.505113,1924.535449,-740.205942,-9269.755526
906.505433,2442.679609,-2072.576638,-10648.727422
906.505753,4071.132681,-3404.947333,-10572.117872
906.506073,2294.638420,-2812.782580,-9652.803275
906.506393,370.102971,-148.041188,-11031.775171
906.506713,222.061783,296.082377,-9806.022374
906.507033,962.267725,3330.926739,-9959.241474
906.507353,1110.308913,3552.988522,-11568.042020
906.507673,1332.370696,1406.391290,-9806.022374
906.507993,1628.453072,1036.288319,-11491.432470
906.508313,1776.494261,-1184.329507,-9806.022374
906.508633,2072.576638,-370.102971,-9882.631924
906.508953,-962.267725,74.020594,-9959.241474
906.509273,-1998.556043,370.102971,-10112.460574
906.509593,-592.164754,1406.391290,-9806.022374
906.509913,888.247130,1110.308913,-10725.336972
906.510233,-1554.432478,518.144159,-9116.536426
906.510553,-1332.370696,1332.370696,-10265.679673
906.510873,296.082377,1998.556043,-9576.193725
906.511193,3404.947333,2368.659014,-9576.193725
906.511513,3478.967927,1850.514855,-11568.042020
906.511833,888.247130,-888.247130,-9576.193725
906.512153,-2516.700203,370.102971,-9959.241474
906.512473,-3034.844362,1776.494261,-9806.022374
906.512793,-444.123565,3997.112087,-9193.145976
906.513113,-222.061783,2368.659014,-10648.727422
906.513433,-222.061783,-1332.370696,-9652.803275
906.513753,-2442.679609,-2294.638420,-9269.755526
906.514073,-3034.844362,-2368.659014,-10418.898773
906.514393,-296.082377,-888.247130,-9193.145976
906.514713,-1036.288319,1924.535449,-10878.556072
906.515033,-888.247130,2738.761985,-10878.556072
906.515353,-1406.391290,3034.844362,-9269.755526
906.515673,-1332.370696,2442.679609,-10955.165621
906.515993,-592.164754,1628.453072,-10035.851024
906.516313,518.144159,740.205942,-10418.898773
906.516633,1850.514855,-518.144159,-10955.165621
906.516953,3627.009116,-222.061783,-9806.022374
906.517273,1184.329507,370.102971,-10955.165621
906.517593,-1776.494261,1406.391290,-10495.508323
906.517913,-2738.761985,2294.638420,-9116.536426
906.518233,-1036.288319,2812.782580,-11261.603821
906.518553,1036.288319,2442.679609,-9652.803275
906.518873,2146.597232,740.205942,-10189.070123
906.519193,2960.823768,-962.267725,-11031.775171
906.519513,4367.215058,-1258.350101,-9652.803275
906.519833,3552.988522,518.144159,-10801.946522
906.520153,2590.720797,962.267725,-10189.070123
906.520472,-148.041188,2294.638420,-9576.193725
906.520792,-1924.535449,2516.700203,-10648.727422
906.521112,888.247130,1554.432478,-9499.584175
906.521432,3182.885551,74.020594,-9652.803275
906.521752,4071.132681,-1998.556043,-10725.336972
906.522072,2738.761985,-2590.720797,-9116.536426
906.522392,1036.288319,-1628.453072,-10189.070123
906.522712,444.123565,-296.082377,-10112.460574
906.523032,888.247130,740.205942,-9269.755526
906.523352,814.226536,444.123565,-10572.117872
906.523672,2886.803174,1110.308913,-10112.460574
906.523992,2886.803174,962.267725,-9959.241474
906.524312,2590.720797,1332.370696,-11491.432470
906.524632,1924.535449,0.000000,-9116.536426
906.524952,1628.453072,-1110.308913,-10189.070123
906.525272,1924.535449,-3256.906145,-9806.022374
906.525592,1554.432478,-2738.761985,-8503.660028
906.525912,-740.205942,-2220.617826,-10189.070123
906.526232,-444.123565,74.020594,-9576.193725
906.526552,-1036.288319,2072.576638,-10035.851024
906.526872,-370.102971,1924.535449,-11184.994271
906.527192,-592.164754,518.144159,-9729.412825
906.527512,-1628.453072,-814.226536,-10342.289223
906.527832,-222.061783,0.000000,-10265.679673
906.528152,296.082377,0.000000,-9652.803275
906.528472,-296.082377,444.123565,-11797.870669
906.528792,-1110.308913,-74.020594,-9576.193725
906.529112,-3034.844362,148.041188,-10112.460574
906.529432,-2072.576638,-740.205942,-10495.508323
906.529752,-814.226536,-1332.370696,-9039.926876
906.530072,-1258.350101,-740.205942,-10955.165621
906.530392,-1406.391290,370.102971,-10418.898773
906.530712,-148.041188,1554.432478,-10112.460574
906.531032,-296.082377,1036.288319,-11261.603821
906.531352,666.185348,518.144159,-9806.022374
906.531672,666.185348,740.205942,-10725.336972
906.531992,592.164754,222.061783,-11184.994271
906.532312,962.267725,-1628.453072,-9652.803275
906.532632,-1924.535449,-444.123565,-10265.679673
906.532952,-2294.638420,592.164754,-10955.165621
906.533272,-1258.350101,888.247130,-9269.755526
906.533592,-296.082377,1554.432478,-11261.603821
906.533912,222.061783,1184.329507,-9882.631924
906.534232,-444.123565,222.061783,-9576.193725
906.534552,-962.267725,-1036.288319,-10342.289223
906.534872,666.185348,-1184.329507,-8733.488677
906.535192,1850.514855,-370.102971,-10189.070123
906.535512,2886.803174,-444.123565,-9806.022374
906.535832,3849.070898,-148.041188,-8886.707777
906.536151,1406.391290,2146.597232,-10495.508323
906.536471,1332.370696,2886.803174,-9346.365076
906.536791,1258.350101,3182.885551,-11184.994271
906.537111,3256.906145,1702.473667,-9729.412825
906.537431,3923.091493,74.020594,-9499.584175
906.537751,1406.391290,-2664.741391,-9959.241474
906.538071,814.226536,-2146.597232,-9882.631924
906.538391,0.000000,148.041188,-9576.193725
906.538711,1036.288319,3182.885551,-10955.165621
906.539031,3478.967927,2664.741391,-9882.631924
906.539351,2738.761985,1036.288319,-10418.898773
906.539671,2738.761985,-1258.350101,-10418.898773
906.539991,3182.885551,-3034.844362,-9499.584175
906.540311,3256.906145,-962.267725,-10878.556072
906.540631,2294.638420,518.144159,-10189.070123
906.540951,444.123565,2220.617826,-10495.508323
906.541271,-1184.329507,2072.576638,-10725.336972
906.541591,-296.082377,1850.514855,-10035.851024
906.541911,370.102971,1924.535449,-11951.089769
906.542231,1628.453072,1480.411884,-10265.679673
906.542551,370.102971,814.226536,-9806.022374
906.542871,222.061783,1110.308913,-10801.946522
906.543191,222.061783,1628.453072,-10189.070123
906.543511,-518.144159,0.000000,-9806.022374
906.543831,-814.226536,370.102971,-10342.289223
906.544151,74.020594,740.205942,-9422.974625
906.544471,-1406.391290,2516.700203,-10189.070123
906.544791,-1776.494261,1776.494261,-9576.193725
906.545111,0.000000,740.205942,-8503.660028
906.545431,2368.659014,-518.144159,-10495.508323
906.545751,4441.235652,-2590.720797,-8963.317327
906.546071,0.000000,-1628.453072,-9346.365076
906.546391,-4219.173869,-888.247130,-9806.022374
906.546711,-3256.906145,444.123565,-8656.879127
906.547031,-1110.308913,1850.514855,-9806.022374
906.547351,2220.617826,740.205942,-10342.289223
906.547671,666.185348,370.102971,-9269.755526
906.547991,-1998.556043,-518.144159,-11031.775171
906.548311,-2516.700203,0.000000,-9499.584175
906.548631,-2886.803174,-222.061783,-9959.241474
906.548951,-2886.803174,-1554.432478,-10725.336972
906.549271,-1998.556043,-2294.638420,-9499.584175
906.549591,-1776.494261,-222.061783,-10572.117872
906.549911,148.041188,2294.638420,-10265.679673
906.550231,1702.473667,3701.029710,-10418.898773
906.550551,2664.741391,3108.864956,-12104.308868
906.550871,1628.453072,0.000000,-10342.289223
906.551191,-296.082377,-2812.782580,-9806.022374
906.551511,-2220.617826,-3034.844362,-10495.508323
906.551831,-1036.288319,-1924.535449,-9806.022374
906.552151,148.041188,1184.329507,-11031.775171
906.552472,1480.411884,2146.597232,-10878.556072
906.552792,-148.041188,2590.720797,-9729.412825
906.553112,-1480.411884,1184.329507,-10955.165621
906.553432,-1332.370696,888.247130,-10112.460574
906.553752,518.144159,-666.185348,-9806.022374
906.554072,3034.844362,-1406.391290,-10725.336972
906.554392,3627.009116,-1850.514855,-9576.193725
906.554712,2368.659014,-2146.597232,-9806.022374
906.555032,1480.411884,-444.123565,-10418.898773
906.555352,1628.453072,1480.411884,-9039.926876
906.555673,2590.720797,2368.659014,-11338.213370
906.555993,4589.276840,370.102971,-9576.193725
906.556313,4293.194464,518.144159,-9346.365076
906.556633,2368.659014,-740.205942,-10418.898773
906.556953,3182.885551,-1036.288319,-8350.440928
906.557273,2442.679609,-1702.473667,-9806.022374
906.557593,2294.638420,-1924.535449,-10495.508323
906.557913,592.164754,0.000000,-9193.145976
906.558233,-1036.288319,1406.391290,-10725.336972
906.558553,1258.350101,2590.720797,-9806.022374
906.558873,3034.844362,2516.700203,-10265.679673
906.559194,2590.720797,2368.659014,-11797.870669
906.559514,1480.411884,-666.185348,-9499.584175
906.559834,74.020594,-1110.308913,-10495.508323
906.560154,148.041188,-1406.391290,-10495.508323
906.560474,1406.391290,296.082377,-9806.022374
906.560794,1110.308913,2220.617826,-11261.603821
906.561114,814.226536,1776.494261,-10572.117872
906.561434,-592.164754,1184.329507,-9269.755526
906.561754,-1480.411884,1850.514855,-11261.603821
906.562074,-370.102971,1628.453072,-9346.365076
906.562394,444.123565,2368.659014,-10878.556072
906.562715,962.267725,1406.391290,-10878.556072
906.563035,-222.061783,-148.041188,-9806.022374
906.563355,-2072.576638,-1110.308913,-10418.898773
906.563675,-1258.350101,-1184.329507,-9576.193725
906.563995,-1184.329507,1332.370696,-9346.365076
906.564315,-962.267725,2368.659014,-11951.089769
906.564635,-148.041188,740.205942,-9499.584175
906.564955,-1924.535449,740.205942,-9806.022374
906.565275,-1110.308913,-592.164754,-10035.851024
906.565595,-444.123565,-740.205942,-9959.241474
906.565915,-1406.391290,888.247130,-10955.165621
906.566236,-1480.411884,370.102971,-9652.803275
906.566556,-2072.576638,370.102971,-9193.145976
906.566876,-2368.659014,370.102971,-10112.460574
906.567196,-1258.350101,222.061783,-8656.879127
906.567516,-1776.494261,1554.432478,-10112.460574
906.567836,-962.267725,370.102971,-10418.898773
906.568156,-740.205942,518.144159,-8580.269578
906.568476,-444.123565,814.226536,-10648.727422
906.568796,1258.350101,-148.041188,-9039.926876
906.569116,3701.029710,-666.185348,-9422.974625
906.569436,5403.503377,1110.308913,-10648.727422
906.569757,4367.215058,1998.556043,-10955.165621
906.570077,1554.432478,2442.679609,-10495.508323
906.570397,74.020594,2220.617826,-10648.727422
906.570717,592.164754,370.102971,-9346.365076
906.571037,1628.453072,0.000000,-10418.898773
906.571357,2516.700203,-1258.350101,-10189.070123
906.571677,1036.288319,518.144159,-9959.241474
906.571997,148.041188,1110.308913,-11721.261119
906.572317,592.164754,814.226536,-9882.631924
906.572637,222.061783,1258.350101,-10725.336972
906.572957,222.061783,740.205942,-10495.508323
906.573278,0.000000,888.247130,-9576.193725
906.573598,1406.391290,444.123565,-10725.336972
906.573918,4219.173869,-592.164754,-9959.241474
906.574238,4959.379811,-1998.556043,-10418.898773
906.574558,4515.256246,-2664.741391,-10495.508323
906.574878,2590.720797,-2220.617826,-9422.974625
906.575198,148.041188,0.000000,-10801.946522
906.575518,-740.205942,1258.350101,-9269.755526
906.575838,-888.247130,518.144159,-9882.631924
906.576158,-814.226536,0.000000,-10342.289223
906.576479,148.041188,-740.205942,-9959.241474
906.576799,-222.061783,-962.267725,-9806.022374
906.577119,1036.288319,-2072.576638,-10189.070123
906.577439,1702.473667,-814.226536,-9729.412825
906.577759,1924.535449,0.000000,-10265.679673
906.578079,1776.494261,814.226536,-9576.193725
906.578399,370.102971,1628.453072,-9729.412825
906.578719,222.061783,518.144159,-10418.898773
906.579039,74.020594,-814.226536,-9116.536426
906.579359,740.205942,-1036.288319,-10035.851024
906.579679,962.267725,-740.205942,-10112.460574
906.580000,1554.432478,-740.205942,-9959.241474
906.580320,-888.247130,518.144159,-10418.898773
906.580640,-1850.514855,592.164754,-10112.460574
906.580960,-1998.556043,1480.411884,-9806.022374
906.581280,740.205942,-444.123565,-10878.556072
906.581600,2146.597232,0.000000,-9806.022374
906.581920,-814.226536,296.082377,-10495.508323
906.582240,-2516.700203,74.020594,-10189.070123
906.582560,-2368.659014,-296.082377,-9499.584175
906.582880,0.000000,-2368.659014,-10725.336972
906.583200,1702.473667,-2442.679609,-9882.631924
906.583521,-370.102971,-518.144159,-9806.022374
906.583841,-1998.556043,1184.329507,-10725.336972
906.584161,-1776.494261,3552.988522,-9499.584175
906.584481,-1702.473667,3330.926739,-10189.070123
906.584801,-1258.350101,1480.411884,-10418.898773
906.585121,1702.473667,-666.185348,-9422.974625
906.585441,1258.350101,-1554.432478,-10112.460574
906.585761,740.205942,-1036.288319,-10189.070123
906.586081,0.000000,296.082377,-9576.193725
906.586401,-1110.308913,2294.638420,-10572.117872
906.586721,222.061783,2072.576638,-9576.193725
906.587042,-370.102971,2368.659014,-9652.803275
906.587362,-1406.391290,148.041188,-10035.851024
906.587682,0.000000,-148.041188,-8810.098227
906.588002,2590.720797,962.267725,-10801.946522
906.588322,4589.276840,1924.535449,-11568.042020
906.588642,4071.132681,2368.659014,-9806.022374
906.588962,2738.761985,2294.638420,-11414.822920
906.589282,1702.473667,1924.535449,-9882.631924
906.589602,1258.350101,1924.535449,-10265.679673
906.589922,-370.102971,1628.453072,-10265.679673
906.590242,2294.638420,814.226536,-9652.803275
906.590563,2590.720797,370.102971,-10648.727422
906.590883,2960.823768,-592.164754,-10265.679673
906.591203,1924.535449,-1406.391290,-9346.365076
906.591523,1110.308913,148.041188,-10955.165621
906.591843,3182.885551,1850.514855,-9806.022374
906.592163,2960.823768,3404.947333,-10418.898773
906.592483,1628.453072,3034.844362,-10878.556072
906.592803,1110.308913,518.144159,-8963.317327
906.593123,666.185348,-370.102971,-10418.898773
906.593443,2812.782580,-1924.535449,-9882.631924
906.593763,2368.659014,-1480.411884,-9499.584175
906.594084,74.020594,444.123565,-10725.336972
906.594404,0.000000,1036.288319,-9499.584175
906.594724,0.000000,2072.576638,-9882.631924
906.595044,666.185348,962.267725,-10495.508323
906.595364,962.267725,370.102971,-9116.536426
906.595684,-1332.370696,1554.432478,-10342.289223
906.596004,-1554.432478,1184.329507,-10265.679673
906.596324,-740.205942,1110.308913,-9652.803275
906.596644,0.000000,222.061783,-10878.556072
906.596964,296.082377,518.144159,-11184.994271
906.597285,-1406.391290,1332.370696,-10265.679673
906.597605,-1702.473667,2368.659014,-11184.994271
906.597925,-1480.411884,2516.700203,-9729.412825
906.598245,-1332.370696,1776.494261,-10878.556072
906.598565,-888.247130,-370.102971,-11184.994271
906.598885,-296.082377,-1850.514855,-9576.193725
906.599205,-1332.370696,-1480.411884,-10878.556072
906.599525,-962.267725,814.226536,-9882.631924
906.599845,-222.061783,2294.638420,-10725.336972
906.600165,-888.247130,2146.597232,-10955.165621
906.600485,222.061783,-592.164754,-9499.584175
906.600806,-666.185348,-1110.308913,-10189.070123
906.601126,-1776.494261,-592.164754,-9806.022374
906.601446,-1480.411884,0.000000,-9346.365076
906.601766,-444.123565,1406.391290,-10955.165621
906.602086,2368.659014,1554.432478,-10035.851024
906.602406,1850.514855,1110.308913,-9729.412825
906.602726,962.267725,74.020594,-10495.508323
906.603046,1258.350101,-1036.288319,-8886.707777
906.603366,3256.906145,0.000000,-10342.289223
906.603686,4071.132681,1184.329507,-10035.851024
906.604006,1776.494261,1776.494261,-9346.365076
906.604327,1036.288319,888.247130,-10112.460574
906.604647,2590.720797,222.061783,-9116.536426
906.604967,2960.823768,0.000000,-9422.974625
906.605287,2220.617826,0.000000,-10418.898773
906.605607,2368.659014,74.020594,-8656.879127
906.605927,3775.050304,222.061783,-9806.022374
906.606247,4441.235652,962.267725,-9806.022374
906.606567,3849.070898,2146.597232,-9346.365076
906.606887,2368.659014,2442.679609,-10725.336972
906.607207,3627.009116,814.226536,-10035.851024
906.607527,5329.482782,-666.185348,-9422.974625
906.607848,4589.276840,592.164754,-10878.556072
906.608168,2368.659014,1258.350101,-10265.679673
906.608488,1702.473667,2294.638420,-10265.679673
906.608808,2442.679609,3775.050304,-11338.213370
906.609128,4811.338623,3034.844362,-9729.412825
906.609448,5033.400406,1924.535449,-11108.384721
906.609768,5033.400406,-370.102971,-10725.336972
906.610088,3404.947333,-1258.350101,-10265.679673
906.610408,2516.700203,0.000000,-10878.556072
906.610728,3108.864956,2294.638420,-11031.775171
906.611048,2368.659014,4071.132681,-10648.727422
906.611369,888.247130,4663.297435,-10878.556072
906.611689,0.000000,4811.338623,-11031.775171
906.612009,1036.288319,4145.153275,-10801.946522
906.612329,2442.679609,3108.864956,-10495.508323
906.612649,3182.885551,1998.556043,-10801.946522
906.612969,4219.173869,592.164754,-10035.851024
906.613289,2590.720797,1924.535449,-9729.412825
906.613609,1998.556043,4885.359217,-10342.289223
906.613929,1554.432478,5921.647536,-10342.289223
906.614249,1036.288319,6661.853478,-9806.022374
906.614569,740.205942,5477.523971,-10495.508323
906.614890,2960.823768,2516.700203,-9116.536426
906.615210,3849.070898,518.144159,-8886.707777
906.615530,3478.967927,-222.061783,-9269.755526
906.615850,3627.009116,1036.288319,-8963.317327
906.616170,2146.597232,2812.782580,-9806.022374
906.616490,962.267725,4737.318029,-9729.412825
906.616810,1110.308913,5329.482782,-9499.584175
906.617130,1924.535449,5403.503377,-9959.241474
906.617450,1628.453072,3478.967927,-10265.679673
906.617770,2442.679609,2368.659014,-9652.803275
906.618090,2590.720797,1184.329507,-10189.070123
906.618411,1480.411884,1998.556043,-9729.412825
906.618731,888.247130,2368.659014,-9806.022374
906.619051,296.082377,3034.844362,-10112.460574
906.619371,296.082377,4663.297435,-9882.631924
906.619691,814.226536,5033.400406,-9882.631924
906.620011,1258.350101,4293.194464,-10265.679673
906.620331,2812.782580,2294.638420,-10572.117872
906.620651,2368.659014,1332.370696,-10418.898773
906.620971,2368.659014,1702.473667,-10112.460574
906.621291,2072.576638,3478.967927,-9806.022374
906.621612,2516.700203,4219.173869,-10418.898773
906.621932,1850.514855,4589.276840,-10342.289223
906.622252,296.082377,4071.132681,-10495.508323
906.622572,-592.164754,3997.112087,-10265.679673
906.622892,1406.391290,3478.967927,-10112.460574
906.623212,2442.679609,2442.679609,-10189.070123
906.623532,1998.556043,1406.391290,-9806.022374
906.623852,1924.535449,1036.288319,-9116.536426
906.624172,3182.885551,296.082377,-10035.851024
906.624492,3775.050304,1110.308913,-9576.193725
906.624812,3552.988522,2220.617826,-10112.460574
906.625133,2886.803174,3182.885551,-9652.803275
906.625453,4367.215058,4071.132681,-9959.241474
906.625773,5847.626942,4737.318029,-10572.117872
906.626093,4145.153275,4071.132681,-10801.946522
906.626413,2294.638420,2738.761985,-10035.851024
906.626733,2664.741391,1998.556043,-10035.851024
906.627053,4293.194464,1258.350101,-10648.727422
906.627373,3923.091493,1850.514855,-10112.460574
906.627693,2368.659014,1480.411884,-10189.070123
906.628013,1850.514855,1702.473667,-9269.755526
906.628333,2738.761985,2146.597232,-8503.660028
906.628654,4293.194464,2442.679609,-9959.241474
906.628974,3552.988522,3256.906145,-10342.289223
906.629294,3034.844362,2590.720797,-10189.070123
906.629614,3701.029710,2146.597232,-9806.022374
906.629934,4293.194464,1776.494261,-10112.460574
906.630254,3775.050304,1998.556043,-10189.070123
906.630574,2516.700203,2072.576638,-10035.851024
906.630894,1554.432478,2664.741391,-10112.460574
906.631214,1776.494261,2664.741391,-10418.898773
906.631534,2146.597232,2368.659014,-9882.631924
906.631854,2072.576638,1850.514855,-10418.898773
906.632175,1850.514855,1776.494261,-10112.460574
906.632495,370.102971,2072.576638,-9576.193725
906.632815,-518.144159,1924.535449,-9806.022374
906.633135,-592.164754,1554.432478,-9576.193725
906.633455,222.061783,814.226536,-10418.898773
906.633775,2146.597232,444.123565,-9729.412825
906.634095,1702.473667,592.164754,-9806.022374
906.634415,1110.308913,1258.350101,-10342.289223
906.634735,1406.391290,2442.679609,-9806.022374
906.635055,3182.885551,3552.988522,-10878.556072
906.635375,4663.297435,3256.906145,-10495.508323
906.635696,4293.194464,2368.659014,-10112.460574
906.636016,1258.350101,2294.638420,-10801.946522
906.636336,-1480.411884,2442.679609,-10189.070123
906.636656,-2516.700203,2886.803174,-10112.460574
906.636976,-1776.494261,1850.514855,-10112.460574
906.637296,444.123565,0.000000,-9729.412825
906.637616,1850.514855,-962.267725,-9806.022374
906.637936,2442.679609,74.020594,-10418.898773
906.638256,4145.153275,2368.659014,-9652.803275
906.638576,3997.112087,4737.318029,-10342.289223
906.638896,3034.844362,5329.482782,-9806.022374
906.639217,4589.276840,3701.029710,-10112.460574
906.639537,5403.503377,1480.411884,-10418.898773
906.639857,4219.173869,592.164754,-10189.070123
906.640177,2294.638420,1924.535449,-10112.460574
906.640497,1924.535449,3627.009116,-10265.679673
906.640817,1628.453072,4811.338623,-10265.679673
906.641137,888.247130,4219.173869,-11568.042020
906.641457,74.020594,1998.556043,-9652.803275
906.641777,814.226536,222.061783,-9806.022374
906.642097,2664.741391,-296.082377,-9729.412825
906.642418,3997.112087,1110.308913,-9806.022374
906.642738,4737.318029,3478.967927,-10648.727422
906.643058,6143.709319,5329.482782,-10189.070123
906.643378,6439.791695,6217.729913,-10265.679673
906.643698,4811.338623,6587.832884,-10955.165621
906.644018,2664.741391,6143.709319,-10572.117872
906.644338,1924.535449,3256.906145,-10189.070123
906.644658,2368.659014,888.247130,-9959.241474
906.644978,2368.659014,-296.082377,-9576.193725
906.645298,1406.391290,0.000000,-10265.679673
906.645618,592.164754,2146.597232,-9729.412825
906.645939,1480.411884,5107.421000,-9959.241474
906.646259,3627.009116,6809.894666,-10189.070123
906.646579,5033.400406,6365.771101,-10572.117872
906.646899,4811.338623,4663.297435,-10955.165621
906.647219,2960.823768,2146.597232,-10342.289223
906.647539,1036.288319,1110.308913,-10265.679673
906.647859,296.082377,1184.329507,-9422.974625
906.648179,1480.411884,1628.453072,-9652.803275
906.648499,2886.803174,1850.514855,-9806.022374
906.648819,3182.885551,1998.556043,-9806.022374
906.649139,2442.679609,3034.844362,-9959.241474
906.649460,2294.638420,4293.194464,-10035.851024
906.649780,3182.885551,5329.482782,-10418.898773
906.650100,3997.112087,4959.379811,-10265.679673
906.650420,2812.782580,3108.864956,-10112.460574
906.650740,1184.329507,1554.432478,-9882.631924
906.651060,74.020594,962.267725,-8656.879127
906.651380,518.144159,1998.556043,-10189.070123
906.651700,1036.288319,3108.864956,-10418.898773
906.652020,1036.288319,3849.070898,-9959.241474
906.652340,-222.061783,2886.803174,-9652.803275
906.652660,-444.123565,1332.370696,-9806.022374
906.652980,296.082377,370.102971,-9729.412825
906.653300,1332.370696,814.226536,-9729.412825
906.653620,3182.885551,1480.411884,-9806.022374
906.653940,4145.153275,2516.700203,-10112.460574
906.654260,4885.359217,3775.050304,-10265.679673
906.654580,4293.194464,4663.297435,-10572.117872
906.654900,2886.803174,5255.462188,-10801.946522
906.655220,1924.535449,4811.338623,-10572.117872
906.655540,1924.535449,3849.070898,-10572.117872
906.655860,1850.514855,1406.391290,-9959.241474
906.656180,1110.308913,-222.061783,-9959.241474
906.656500,0.000000,-592.164754,-9729.412825
906.656820,-296.082377,370.102971,-9499.584175
906.657140,666.185348,1924.535449,-10035.851024
906.657460,2886.803174,2960.823768,-10112.460574
906.657780,4515.256246,3627.009116,-9959.241474
906.658100,6217.729913,3034.844362,-10035.851024
906.658420,6661.853478,1776.494261,-10112.460574
906.658739,5329.482782,1110.308913,-10035.851024
906.659059,2960.823768,962.267725,-10112.460574
906.659379,888.247130,1480.411884,-9959.241474
906.659699,222.061783,1554.432478,-9882.631924
906.660019,-296.082377,814.226536,-9959.241474
906.660339,-148.041188,0.000000,-9806.022374
906.660659,222.061783,-518.144159,-9882.631924
906.660979,888.247130,-444.123565,-9806.022374
906.661299,2294.638420,740.205942,-10112.460574
906.661619,3034.844362,2294.638420,-10265.679673
906.661939,3256.906145,3256.906145,-10418.898773
906.662259,3552.988522,3627.009116,-10572.117872
906.662579,3478.967927,3849.070898,-10112.460574
906.662899,3034.844362,3034.844362,-10725.336972
906.663219,2220.617826,2146.597232,-10725.336972
906.663539,1332.370696,1184.329507,-10342.289223
906.663859,222.061783,1036.288319,-10265.679673
906.664179,296.082377,962.267725,-9959.241474
906.664499,814.226536,1258.350101,-10189.070123
906.664819,1554.432478,1998.556043,-10418.898773
906.665139,1998.556043,3034.844362,-10418.898773
906.665459,2738.761985,4071.132681,-10112.460574
906.665779,4885.359217,4293.194464,-10418.898773
906.666099,6069.688724,4293.194464,-10418.898773
906.666419,6291.750507,4737.318029,-10265.679673
906.666739,5255.462188,5255.462188,-10265.679673
906.667059,3034.844362,5403.503377,-10265.679673
906.667379,740.205942,4589.276840,-9959.241474
906.667699,-444.123565,2738.761985,-9729.412825
906.668019,-296.082377,1110.308913,-9269.755526
906.668339,518.144159,0.000000,-9652.803275
906.668658,1850.514855,0.000000,-9193.145976
906.668978,3034.844362,2146.597232,-9576.193725
906.669298,4071.132681,4663.297435,-9729.412825
906.669618,5551.544565,6735.874072,-9729.412825
906.669938,6143.709319,7846.182985,-10112.460574
906.670258,6069.688724,7105.977043,-10189.070123
906.670578,4737.318029,5255.462188,-10035.851024
906.670898,3849.070898,3478.967927,-10112.460574
906.671218,3478.967927,2812.782580,-10112.460574
906.671538,1702.473667,2812.782580,-9806.022374
906.671858,-740.205942,3330.926739,-9576.193725
906.672178,-1850.514855,3775.050304,-9806.022374
906.672498,-814.226536,3552.988522,-9959.241474
906.672818,1184.329507,2516.700203,-10112.460574
906.673138,2738.761985,1998.556043,-9806.022374
906.673458,3108.864956,2220.617826,-10035.851024
906.673778,2960.823768,3330.926739,-10035.851024
906.674098,3034.844362,4737.318029,-9882.631924
906.674418,4885.359217,5699.585753,-10035.851024
906.674738,6217.729913,5847.626942,-10572.117872
906.675058,4515.256246,5181.441594,-10878.556072
906.675378,1258.350101,3552.988522,-10112.460574
906.675698,-2220.617826,2738.761985,-9806.022374
906.676018,-2516.700203,1554.432478,-9882.631924
906.676338,-1480.411884,518.144159,-9729.412825
906.676658,-888.247130,-444.123565,-9269.755526
906.676978,-296.082377,-296.082377,-8963.317327
906.677298,1924.535449,1110.308913,-9193.145976
906.677618,4663.297435,3478.967927,-10342.289223
906.677938,5699.585753,5699.585753,-10495.508323
906.678258,5477.523971,6143.709319,-10418.898773
906.678577,4663.297435,5033.400406,-10418.898773
906.678897,3627.009116,3182.885551,-10418.898773
906.679217,1702.473667,1628.453072,-10035.851024
906.679537,296.082377,962.267725,-10035.851024
906.679857,222.061783,222.061783,-9652.803275
906.680177,888.247130,-222.061783,-9959.241474
906.680497,0.000000,148.041188,-9806.022374
906.680817,0.000000,962.267725,-9959.241474
906.681137,2072.576638,1850.514855,-9422.974625
906.681457,4219.173869,2368.659014,-10265.679673
906.681777,6217.729913,2738.761985,-10265.679673
906.682097,6883.915261,3108.864956,-10725.336972
906.682417,6291.750507,3256.906145,-10342.289223
906.682737,4071.132681,3775.050304,-10801.946522
906.683057,2072.576638,3997.112087,-10725.336972
906.683377,814.226536,2812.782580,-10342.289223
906.683697,888.247130,592.164754,-9959.241474
906.684017,1184.329507,-1036.288319,-9959.241474
906.684337,740.205942,-1850.514855,-10189.070123
906.684657,-370.102971,-592.164754,-9652.803275
906.684977,370.102971,1332.370696,-10035.851024
906.685297,2886.803174,2516.700203,-9729.412825
906.685617,4885.359217,2812.782580,-10035.851024
906.685937,5995.668130,2812.782580,-10572.117872
906.686257,5995.668130,2220.617826,-10648.727422
906.686577,4811.338623,3182.885551,-10725.336972
906.686897,3330.926739,4219.173869,-10801.946522
906.687217,2368.659014,3775.050304,-10265.679673
906.687537,1258.350101,2664.741391,-10265.679673
906.687857,-592.164754,444.123565,-10342.289223
906.688177,-3182.885551,-814.226536,-9422.974625
906.688497,-4071.132681,-1184.329507,-9422.974625
906.688816,-1628.453072,-1036.288319,-9422.974625
906.689136,2886.803174,0.000000,-9193.145976
906.689456,5625.565159,1480.411884,-9882.631924
906.689776,5255.462188,3330.926739,-9806.022374
906.690096,3701.029710,4663.297435,-9652.803275
906.690416,3627.009116,5551.544565,-10495.508323
906.690736,4293.194464,5847.626942,-10342.289223
906.691056,2960.823768,5033.400406,-11414.822920
906.691376,0.000000,2368.659014,-10112.460574
906.691696,-1998.556043,-222.061783,-8963.317327
906.692016,-1702.473667,-1258.350101,-9652.803275
906.692336,-1110.308913,-296.082377,-9729.412825
906.692656,-1702.473667,1776.494261,-9576.193725
906.692976,-666.185348,3034.844362,-9806.022374
906.693296,2664.741391,3182.885551,-9806.022374
906.693616,5921.647536,3701.029710,-10495.508323
906.693936,6809.894666,4219.173869,-11184.994271
906.694256,6143.709319,6143.709319,-10418.898773
906.694576,5403.503377,7105.977043,-10725.336972
906.694896,6291.750507,6513.812290,-10878.556072
906.695216,6513.812290,4885.359217,-10801.946522
906.695536,2590.720797,3182.885551,-10572.117872
906.695856,-740.205942,1924.535449,-10112.460574
906.696176,-814.226536,1850.514855,-9882.631924
906.696496,-1036.288319,2072.576638,-10112.460574
906.696816,-1110.308913,2368.659014,-10112.460574
906.697136,370.102971,1776.494261,-9499.584175
906.697456,3627.009116,2220.617826,-9806.022374
906.697776,6143.709319,3701.029710,-10265.679673
906.698096,5995.668130,4811.338623,-10035.851024
906.698416,6439.791695,6883.915261,-10265.679673
906.698735,8290.306550,6587.832884,-10265.679673
906.699055,7476.080014,5107.421000,-10725.336972
906.699375,3701.029710,3108.864956,-9959.241474
906.699695,444.123565,2220.617826,-10189.070123
906.700015,-1258.350101,2146.597232,-9729.412825
906.700335,-1554.432478,2220.617826,-9652.803275
906.700655,-2516.700203,1184.329507,-9346.365076
906.700975,-2220.617826,-222.061783,-9269.755526
906.701295,-222.061783,148.041188,-9116.536426
906.701615,1776.494261,1628.453072,-9806.022374
906.701935,4441.235652,4663.297435,-10418.898773
906.702255,5995.668130,6957.935855,-10725.336972
906.702575,6513.812290,6735.874072,-10418.898773
906.702895,4441.235652,6365.771101,-10189.070123
906.703215,2072.576638,3923.091493,-10265.679673
906.703535,-296.082377,2886.803174,-9959.241474
906.703855,-1480.411884,2146.597232,-9729.412825
906.704175,-222.061783,1332.370696,-9806.022374
906.704495,0.000000,0.000000,-10418.898773
906.704815,-1036.288319,-1480.411884,-9499.584175
906.705135,-1998.556043,-3256.906145,-9652.803275
906.705455,148.041188,-1776.494261,-9116.536426
906.705775,2664.741391,2220.617826,-9806.022374
906.706095,4367.215058,7402.059420,-10648.727422
906.706415,5921.647536,9844.739029,-11338.213370
906.706735,7105.977043,9474.636058,-10189.070123
906.707055,6957.935855,6217.729913,-11338.213370
906.707375,5181.441594,3775.050304,-10878.556072
906.707695,1184.329507,2368.659014,-10189.070123
906.708015,-814.226536,1184.329507,-9576.193725
906.708335,-370.102971,0.000000,-10265.679673
906.708654,814.226536,-1258.350101,-10112.460574
906.708974,518.144159,-1924.535449,-9576.193725
906.709294,148.041188,-1480.411884,-9806.022374
906.709614,2220.617826,518.144159,-10112.460574
906.709934,4367.215058,4441.235652,-9806.022374
906.710254,6883.915261,5847.626942,-11108.384721
906.710574,6069.688724,3849.070898,-10112.460574
906.710894,4293.194464,222.061783,-9959.241474
906.711214,1332.370696,-2146.597232,-10265.679673
906.711534,444.123565,-2590.720797,-9806.022374
906.711854,148.041188,-222.061783,-9806.022374
906.712174,444.123565,592.164754,-10265.679673
906.712494,2368.659014,666.185348,-9959.241474
906.712814,1184.329507,74.020594,-10495.508323
906.713134,296.082377,740.205942,-10572.117872
906.713454,1110.308913,74.020594,-9806.022374
906.713774,3182.885551,592.164754,-10112.460574
906.714094,4293.194464,222.061783,-10572.117872
906.714414,3182.885551,-222.061783,-9806.022374
906.714734,1184.329507,1036.288319,-10112.460574
906.715054,962.267725,2294.638420,-11108.384721
906.715374,2368.659014,3552.988522,-9346.365076
906.715694,1998.556043,4737.318029,-11261.603821
906.716014,2072.576638,2664.741391,-10955.165621
906.716334,1036.288319,74.020594,-9346.365076
906.716654,-2960.823768,-1554.432478,-10342.289223
906.716974,-5107.421000,-3997.112087,-8580.269578
906.717294,-4515.256246,-3256.906145,-8963.317327
906.717614,-1406.391290,-444.123565,-10801.946522
906.717934,2516.700203,2146.597232,-9499.584175
906.718254,2294.638420,4145.153275,-9806.022374
906.718574,2812.782580,4219.173869,-11414.822920
906.718893,4367.215058,3404.947333,-10112.460574
906.719213,3775.050304,2516.700203,-10878.556072
906.719533,1998.556043,1776.494261,-10418.898773
906.719853,-740.205942,518.144159,-9499.584175
906.720173,-2738.761985,-740.205942,-10418.898773
906.720493,-4219.173869,-1332.370696,-9806.022374
906.720813,-3997.112087,-1480.411884,-9039.926876
906.721133,-3701.029710,-740.205942,-9882.631924
906.721453,-814.226536,-592.164754,-9346.365076
906.721773,-222.061783,370.102971,-9806.022374
906.722093,-1036.288319,1332.370696,-10265.679673
906.722413,444.123565,2442.679609,-9422.974625
906.722733,2664.741391,3478.967927,-10878.556072
906.723053,5329.482782,3108.864956,-10189.070123
906.723373,4589.276840,2738.761985,-9729.412825
906.723693,1332.370696,1776.494261,-10878.556072
906.724013,1628.453072,222.061783,-9576.193725
906.724333,814.226536,-592.164754,-9806.022374
906.724653,-1554.432478,148.041188,-10265.679673
906.724973,-3923.091493,-148.041188,-9116.536426
906.725293,-3701.029710,0.000000,-9806.022374
906.725613,-1480.411884,-888.247130,-9576.193725
906.725933,-296.082377,-1036.288319,-9193.145976
906.726253,0.000000,-222.061783,-10342.289223
906.726573,3478.967927,148.041188,-9806.022374
906.726893,5773.606348,1628.453072,-10035.851024
906.727213,5477.523971,2664.741391,-11568.042020
906.727533,3404.947333,2590.720797,-9652.803275
906.727853,-592.164754,1554.432478,-10878.556072
906.728173,-2590.720797,-814.226536,-10572.117872
906.728493,-3330.926739,-2368.659014,-9039.926876
906.728812,-3108.864956,-2960.823768,-10418.898773
906.729132,0.000000,-3108.864956,-9346.365076
906.729452,1406.391290,-2294.638420,-9806.022374
906.729772,518.144159,-296.082377,-11414.822920
906.730092,370.102971,1184.329507,-9652.803275
906.730412,1850.514855,2146.597232,-10878.556072
906.730732,5107.421000,2442.679609,-11261.603821
906.731052,6143.709319,2664.741391,-10572.117872
906.731372,2294.638420,2368.659014,-11568.042020
906.731692,0.000000,1036.288319,-9806.022374
906.732012,-444.123565,-148.041188,-9882.631924
906.732332,1332.370696,-740.205942,-11338.213370
906.732652,1110.308913,-962.267725,-9422.974625
906.732972,-592.164754,-888.247130,-10342.289223
906.733292,-1184.329507,-1110.308913,-9882.631924
906.733612,814.226536,-1036.288319,-9193.145976
906.733932,1258.350101,0.000000,-9806.022374
906.734252,3404.947333,0.000000,-9729.412825
906.734572,4885.359217,1110.308913,-10418.898773
906.734892,4145.153275,2442.679609,-11184.994271
906.735212,2590.720797,1554.432478,-8886.707777
906.735532,-148.041188,444.123565,-10189.070123
906.735852,-370.102971,-814.226536,-10495.508323
906.736172,-148.041188,-444.123565,-9039.926876
906.736492,-1776.494261,0.000000,-10725.336972
906.736812,-2886.803174,0.000000,-10342.289223
906.737132,-3849.070898,0.000000,-9806.022374
906.737452,-1998.556043,-1036.288319,-10112.460574
906.737772,1036.288319,-1480.411884,-9346.365076
906.738092,1110.308913,-370.102971,-10495.508323
906.738412,-740.205942,-444.123565,-9882.631924
906.738731,-592.164754,444.123565,-9499.584175
906.739051,814.226536,2146.597232,-10955.165621
906.739371,2368.659014,2072.576638,-9039.926876
906.739691,1110.308913,1776.494261,-10112.460574
906.740011,-740.205942,1702.473667,-10418.898773
906.740331,-1850.514855,814.226536,-9729.412825
906.740651,-2664.741391,-148.041188,-10112.460574
906.740971,-1406.391290,-888.247130,-9882.631924
906.741291,-814.226536,-1628.453072,-9193.145976
906.741611,-1332.370696,-888.247130,-10112.460574
906.741931,-962.267725,148.041188,-9806.022374
906.742251,-518.144159,2368.659014,-10035.851024
906.742571,592.164754,3108.864956,-10878.556072
906.742891,2442.679609,2738.761985,-9882.631924
906.743211,3330.926739,2516.700203,-10801.946522
906.743531,2146.597232,1850.514855,-11031.775171
906.743851,1036.288319,962.267725,-8810.098227
906.744171,296.082377,296.082377,-11031.775171
906.744491,0.000000,-962.267725,-9499.584175
906.744811,370.102971,-740.205942,-10035.851024
906.745131,-1258.350101,-1110.308913,-10495.508323
906.745451,518.144159,-592.164754,-9346.365076
906.745771,1850.514855,518.144159,-10648.727422
906.746091,3034.844362,370.102971,-10725.336972
906.746411,3404.947333,74.020594,-9422.974625
906.746731,1184.329507,740.205942,-11338.213370
906.747051,1924.535449,-370.102971,-10035.851024
906.747371,222.061783,296.082377,-9806.022374
906.747691,518.144159,1702.473667,-11184.994271
906.748011,2442.679609,1554.432478,-11184.994271
906.748331,2294.638420,444.123565,-11414.822920
906.748651,1998.556043,-296.082377,-11031.775171
906.748970,-1776.494261,-1036.288319,-9422.974625
906.749290,-4515.256246,-444.123565,-10265.679673
906.749610,-2516.700203,-666.185348,-9652.803275
906.749930,1702.473667,0.000000,-9576.193725
906.750250,4293.194464,296.082377,-10955.165621
906.750570,5329.482782,-222.061783,-9422.974625
906.750890,4071.132681,1850.514855,-9729.412825
906.751210,2812.782580,1258.350101,-10342.289223
906.751530,3256.906145,1998.556043,-9576.193725
906.751850,2368.659014,1554.432478,-10955.165621
906.752170,1332.370696,222.061783,-9882.631924
906.752490,-2072.576638,-1850.514855,-9269.755526
906.752810,-3701.029710,-3997.112087,-9959.241474
906.753130,-2220.617826,-4219.173869,-8120.612279
906.753450,-1184.329507,-2368.659014,-9959.241474
906.753770,296.082377,-296.082377,-10265.679673
906.754090,888.247130,1110.308913,-9729.412825
906.754410,296.082377,1924.535449,-10725.336972
906.754731,1110.308913,1554.432478,-10035.851024
906.755051,444.123565,1332.370696,-8886.707777
906.755371,-740.205942,-1036.288319,-10572.117872
906.755691,-888.247130,-2812.782580,-8963.317327
906.756011,-1998.556043,-1776.494261,-10112.460574
906.756331,-888.247130,-666.185348,-10725.336972
906.756651,444.123565,888.247130,-9959.241474
906.756971,-1036.288319,3256.906145,-11721.261119
906.757291,-1850.514855,3478.967927,-10342.289223
906.757611,-1850.514855,2294.638420,-10265.679673
906.757931,-1554.432478,1554.432478,-10801.946522
906.758251,740.205942,-962.267725,-9729.412825
906.758571,1998.556043,-1702.473667,-10189.070123
906.758891,3108.864956,-444.123565,-10878.556072
906.759211,1998.556043,2294.638420,-9652.803275
906.759531,74.020594,4737.318029,-11031.775171
906.759851,296.082377,4441.235652,-10495.508323
906.760171,-1184.329507,2590.720797,-10112.460574
906.760491,-1480.411884,-444.123565,-10342.289223
906.760811,-1850.514855,-3182.885551,-8733.488677
906.761131,-3256.906145,-3330.926739,-9652.803275
906.761451,-2516.700203,-2738.761985,-9346.365076
906.761771,1184.329507,-1110.308913,-9116.536426
906.762091,2738.761985,962.267725,-10418.898773
906.762411,3256.906145,1702.473667,-9729.412825
906.762731,2072.576638,2664.741391,-9806.022374
906.763051,2220.617826,2368.659014,-10418.898773
906.763371,3923.091493,1184.329507,-9269.755526
906.763691,3182.885551,-1332.370696,-9959.241474
906.764011,1332.370696,-3627.009116,-9269.755526
906.764331,-740.205942,-2590.720797,-8886.707777
906.764651,-2146.597232,-666.185348,-10725.336972
906.764971,148.041188,1184.329507,-9193.145976
906.765291,2146.597232,2368.659014,-10035.851024
906.765611,3552.988522,74.020594,-11031.775171
906.765931,2812.782580,-1184.329507,-9576.193725
906.766251,74.020594,222.061783,-11491.432470
906.766571,1480.411884,2294.638420,-10495.508323
906.766891,2886.803174,4145.153275,-10342.289223
906.767211,5107.421000,4515.256246,-12257.527968
906.767531,5551.544565,3404.947333,-10801.946522
906.767851,2146.597232,1924.535449,-11414.822920
906.768171,1036.288319,518.144159,-11721.261119
906.768491,1850.514855,-962.267725,-9959.241474
906.768811,1258.350101,-1850.514855,-10955.165621
906.769131,0.000000,-2516.700203,-10265.679673
906.769451,-1406.391290,-1554.432478,-9193.145976
906.769771,-2886.803174,-370.102971,-10955.165621
906.770091,-2294.638420,0.000000,-9346.365076
906.770411,-148.041188,814.226536,-9806.022374
906.770731,2886.803174,0.000000,-11031.775171
906.771052,3552.988522,-1406.391290,-9346.365076
906.771372,-296.082377,-666.185348,-10572.117872
906.771692,-1628.453072,-1036.288319,-9806.022374
906.772012,-740.205942,-296.082377,-9039.926876
906.772332,148.041188,-370.102971,-10725.336972
906.772652,-370.102971,-1554.432478,-9193.145976
906.772972,-3923.091493,-2294.638420,-9422.974625
906.773292,-4885.359217,-1406.391290,-9729.412825
906.773612,-2960.823768,148.041188,-9346.365076
906.773932,-888.247130,1480.411884,-10112.460574
906.774252,444.123565,1480.411884,-10112.460574
906.774572,-444.123565,592.164754,-9576.193725
906.774892,-1406.391290,148.041188,-10572.117872
906.775212,-222.061783,0.000000,-9806.022374
906.775532,-592.164754,222.061783,-10035.851024
906.775852,-1702.473667,814.226536,-10265.679673
906.776172,-666.185348,666.185348,-9422.974625
906.776492,-2442.679609,444.123565,-10648.727422
906.776812,-888.247130,-740.205942,-9806.022374
906.777132,1850.514855,-962.267725,-9576.193725
906.777452,1480.411884,-148.041188,-10878.556072
906.777772,1406.391290,592.164754,-10265.679673
906.778092,0.000000,1480.411884,-10648.727422
906.778412,740.205942,1110.308913,-10572.117872
906.778732,2220.617826,0.000000,-9499.584175
906.779052,1776.494261,-1332.370696,-11184.994271
906.779372,2368.659014,-2738.761985,-10495.508323
906.779692,-74.020594,-814.226536,-9806.022374
906.780012,148.041188,814.226536,-11184.994271
906.780332,2072.576638,1776.494261,-9959.241474
906.780652,1332.370696,1480.411884,-10418.898773
906.780972,962.267725,444.123565,-10342.289223
906.781292,296.082377,-1258.350101,-9269.755526
906.781612,222.061783,-1184.329507,-10801.946522
906.781932,1998.556043,-1924.535449,-9806.022374
906.782252,3701.029710,-592.164754,-9576.193725
906.782572,4737.318029,888.247130,-10878.556072
906.782892,4367.215058,1998.556043,-9806.022374
906.783212,2590.720797,3182.885551,-10418.898773
906.783532,1332.370696,3330.926739,-10572.117872
906.783852,518.144159,1702.473667,-9806.022374
906.784172,1776.494261,-222.061783,-10801.946522
906.784492,1776.494261,-2442.679609,-9882.631924
906.784812,0.000000,-2368.659014,-9729.412825
