#time,accel_x,accel_y,accel_z
916.657190,444.123565,-222.061783,-9729.412825
916.657510,222.061783,0.000000,-10265.679673
916.657831,518.144159,888.247130,-9882.631924
916.658151,296.082377,740.205942,-9882.631924
916.658471,74.020594,814.226536,-10112.460574
916.658791,222.061783,592.164754,-10189.070123
916.659112,592.164754,222.061783,-10878.556072
916.659432,592.164754,0.000000,-10035.851024
916.659752,740.205942,0.000000,-9959.241474
916.660072,962.267725,0.000000,-10035.851024
916.660393,1036.288319,666.185348,-10112.460574
916.660713,962.267725,740.205942,-10189.070123
916.661033,518.144159,370.102971,-10189.070123
916.661353,666.185348,74.020594,-10112.460574
916.661673,888.247130,-148.041188,-10342.289223
916.661994,-888.247130,518.144159,-9959.241474
916.662314,-1036.288319,444.123565,-9882.631924
916.662634,0.000000,370.102971,-10189.070123
916.662954,370.102971,296.082377,-10112.460574
916.663275,666.185348,444.123565,-9806.022374
916.663595,962.267725,-666.185348,-10112.460574
916.663915,1184.329507,-370.102971,-9959.241474
916.664235,1554.432478,-370.102971,-10572.117872
916.664556,1110.308913,0.000000,-10189.070123
916.664876,0.000000,814.226536,-9806.022374
916.665196,-518.144159,0.000000,-10112.460574
916.665516,-370.102971,0.000000,-9729.412825
916.665837,-296.082377,-370.102971,-10418.898773
916.666157,-740.205942,-592.164754,-9959.241474
916.666477,-740.205942,-1036.288319,-10342.289223
916.666797,0.000000,-740.205942,-10112.460574
916.667118,592.164754,-296.082377,-9959.241474
916.667438,0.000000,-370.102971,-10342.289223
916.667758,0.000000,-666.185348,-9269.755526
916.668078,296.082377,-1036.288319,-10112.460574
916.668399,148.041188,-1332.370696,-9882.631924
916.668719,-888.247130,-1628.453072,-9806.022374
916.669039,-1628.453072,-1628.453072,-10189.070123
916.669359,-1258.350101,-1702.473667,-10572.117872
916.669680,-1184.329507,-1554.432478,-9882.631924
916.670000,-1924.535449,-1628.453072,-10265.679673
916.670320,-2516.700203,-1924.535449,-9959.241474
916.670640,-1036.288319,-2516.700203,-9882.631924
916.670960,-518.144159,-1924.535449,-10035.851024
916.671281,-370.102971,-1332.370696,-9882.631924
916.671601,-962.267725,-1480.411884,-10342.289223
916.671921,-666.185348,-1332.370696,-10035.851024
916.672241,-296.082377,-1332.370696,-10112.460574
916.672562,-148.041188,-1184.329507,-10112.460574
916.672882,-1554.432478,-1850.514855,-10418.898773
916.673202,-3034.844362,-2886.803174,-9882.631924
916.673522,-3404.947333,-2960.823768,-9806.022374
916.673843,-2812.782580,-3182.885551,-10035.851024
916.674163,-2368.659014,-2812.782580,-9959.241474
916.674483,-2516.700203,-2960.823768,-10112.460574
916.674803,-2146.597232,-2516.700203,-9882.631924
916.675124,-888.247130,-2294.638420,-10112.460574
916.675444,1036.288319,-1628.453072,-10342.289223
916.675764,1110.308913,-814.226536,-10418.898773
916.676084,0.000000,-518.144159,-10648.727422
916.676405,-1924.535449,-666.185348,-10648.727422
916.676725,-3256.906145,-2294.638420,-10112.460574
916.677045,-4515.256246,-3256.906145,-10112.460574
916.677365,-5921.647536,-4293.194464,-9576.193725
916.677686,-5181.441594,-5107.421000,-8810.098227
916.678006,-2960.823768,-5181.441594,-9499.584175
916.678326,-592.164754,-4145.153275,-9806.022374
916.678646,740.205942,-2442.679609,-10265.679673
916.678967,740.205942,-222.061783,-10112.460574
916.679287,1332.370696,1332.370696,-10342.289223
916.679607,2368.659014,1628.453072,-10265.679673
916.679927,2220.617826,1110.308913,-10342.289223
916.680247,888.247130,-666.185348,-10495.508323
916.680568,-1480.411884,-2516.700203,-9959.241474
916.680888,-3923.091493,-3478.967927,-10189.070123
916.681208,-5551.544565,-3775.050304,-9806.022374
916.681528,-6069.688724,-3997.112087,-9422.974625
916.681849,-4959.379811,-4515.256246,-9499.584175
916.682169,-1776.494261,-4589.276840,-9422.974625
916.682489,518.144159,-3256.906145,-10112.460574
916.682809,2072.576638,-1036.288319,-10189.070123
916.683130,3330.926739,1406.391290,-10418.898773
916.683450,4367.215058,2738.761985,-11951.089769
916.683770,4071.132681,3775.050304,-11414.822920
916.684090,1406.391290,2590.720797,-11108.384721
916.684411,-3108.864956,-296.082377,-10801.946522
916.684731,-5773.606348,-3256.906145,-10112.460574
916.685051,-6217.729913,-5477.523971,-9652.803275
916.685371,-5033.400406,-6735.874072,-9882.631924
916.685692,-4293.194464,-6587.832884,-9116.536426
916.686012,-3256.906145,-3997.112087,-9499.584175
916.686332,-1332.370696,0.000000,-9959.241474
916.686652,1702.473667,2220.617826,-10648.727422
916.686973,2368.659014,3923.091493,-10418.898773
916.687293,2738.761985,3627.009116,-10801.946522
916.687613,3330.926739,1850.514855,-10342.289223
916.687933,2886.803174,0.000000,-10495.508323
916.688254,518.144159,-1554.432478,-10342.289223
916.688574,-2590.720797,-2590.720797,-9576.193725
916.688894,-4441.235652,-2886.803174,-9576.193725
916.689214,-5551.544565,-3775.050304,-9806.022374
916.689535,-7402.059420,-5403.503377,-9422.974625
916.689855,-7179.997637,-6809.894666,-8656.879127
916.690175,-3775.050304,-6883.915261,-8580.269578
916.690495,1406.391290,-4293.194464,-9729.412825
916.690815,3997.112087,0.000000,-10035.851024
916.691136,3034.844362,2960.823768,-10418.898773
916.691456,1924.535449,4219.173869,-10495.508323
916.691776,1998.556043,3478.967927,-10725.336972
916.692096,2442.679609,444.123565,-10801.946522
916.692417,814.226536,-2664.741391,-10725.336972
916.692737,-3108.864956,-5255.462188,-10495.508323
916.693057,-6809.894666,-5181.441594,-10189.070123
916.693377,-9030.512492,-3923.091493,-9652.803275
916.693698,-9770.718434,-2590.720797,-9806.022374
916.694018,-6513.812290,-3701.029710,-9729.412825
916.694338,-2368.659014,-4885.359217,-9806.022374
916.694658,1036.288319,-4367.215058,-10342.289223
916.694979,1924.535449,-1036.288319,-10955.165621
916.695299,2960.823768,1850.514855,-10878.556072
916.695619,3849.070898,3923.091493,-11031.775171
916.695939,3923.091493,4441.235652,-10801.946522
916.696260,2294.638420,2664.741391,-10342.289223
916.696580,-1332.370696,-962.267725,-10648.727422
916.696900,-5551.544565,-4441.235652,-10495.508323
916.697220,-7328.038826,-6883.915261,-9652.803275
916.697541,-7550.100608,-8808.450710,-9039.926876
916.697861,-5921.647536,-9918.759623,-8580.269578
916.698181,-4959.379811,-9696.697840,-8733.488677
916.698501,-3404.947333,-5625.565159,-8963.317327
916.698822,-370.102971,-888.247130,-9806.022374
916.699142,3849.070898,2516.700203,-10035.851024
916.699462,5995.668130,2812.782580,-11338.213370
916.699782,4811.338623,1406.391290,-10955.165621
916.700102,666.185348,-1184.329507,-10112.460574
916.700423,-962.267725,-2368.659014,-9806.022374
916.700743,-2294.638420,-3108.864956,-9806.022374
916.701063,-3849.070898,-4145.153275,-10265.679673
916.701383,-6143.709319,-5699.585753,-9806.022374
916.701704,-7772.162391,-7254.018232,-9346.365076
916.702024,-6809.894666,-6809.894666,-9116.536426
916.702344,-3034.844362,-6809.894666,-9806.022374
916.702664,-1036.288319,-2516.700203,-9576.193725
916.702985,-962.267725,370.102971,-10955.165621
916.703305,814.226536,1258.350101,-10265.679673
916.703625,2812.782580,2590.720797,-10878.556072
916.703945,4219.173869,2146.597232,-11184.994271
916.704266,2960.823768,1850.514855,-11184.994271
916.704586,1406.391290,518.144159,-11108.384721
916.704906,-370.102971,-888.247130,-10418.898773
916.705226,-2886.803174,-2738.761985,-10801.946522
916.705547,-5773.606348,-4515.256246,-10189.070123
916.705867,-7698.141797,-5699.585753,-9269.755526
916.706187,-5625.565159,-4367.215058,-10189.070123
916.706507,-3330.926739,-2368.659014,-9806.022374
916.706828,-1036.288319,-814.226536,-9806.022374
916.707148,1406.391290,-222.061783,-9959.241474
916.707468,2442.679609,-666.185348,-10418.898773
916.707788,2812.782580,148.041188,-9806.022374
916.708109,1480.411884,-370.102971,-9959.241474
916.708429,1406.391290,888.247130,-10342.289223
916.708749,1258.350101,370.102971,-10189.070123
916.709069,-1850.514855,0.000000,-10648.727422
916.709389,-4441.235652,-1776.494261,-9576.193725
916.709710,-6143.709319,-4145.153275,-9806.022374
916.710030,-4367.215058,-4663.297435,-9806.022374
916.710350,-3775.050304,-3701.029710,-9576.193725
916.710670,-2146.597232,-3330.926739,-9269.755526
916.710991,-666.185348,-2664.741391,-9269.755526
916.711311,814.226536,-1480.411884,-9729.412825
916.711631,1776.494261,-1036.288319,-9882.631924
916.711951,3034.844362,592.164754,-9499.584175
916.712272,1628.453072,2072.576638,-10265.679673
916.712592,-1036.288319,3034.844362,-10648.727422
916.712912,-1332.370696,888.247130,-10112.460574
916.713232,-1702.473667,-1480.411884,-10265.679673
916.713552,-3330.926739,-3775.050304,-9959.241474
916.713872,-4737.318029,-5107.421000,-9806.022374
916.714192,-4959.379811,-3923.091493,-10035.851024
916.714512,-3997.112087,-2442.679609,-9806.022374
916.714832,-2738.761985,-814.226536,-9806.022374
916.715152,-296.082377,-1332.370696,-10572.117872
916.715472,518.144159,-2664.741391,-10112.460574
916.715792,1184.329507,-2738.761985,-10801.946522
916.716113,1258.350101,148.041188,-10112.460574
916.716433,1480.411884,3108.864956,-10878.556072
916.716753,1480.411884,4589.276840,-10878.556072
916.717073,444.123565,2812.782580,-10418.898773
916.717393,-1406.391290,-1776.494261,-10648.727422
916.717713,-2368.659014,-5921.647536,-10035.851024
916.718033,-3701.029710,-7105.977043,-9652.803275
916.718353,-4959.379811,-6439.791695,-9193.145976
916.718673,-4663.297435,-5329.482782,-9499.584175
916.718993,-2886.803174,-2664.741391,-7814.174080
916.719313,-1332.370696,-2886.803174,-9346.365076
916.719633,1628.453072,-2368.659014,-9882.631924
916.719953,2812.782580,74.020594,-10342.289223
916.720273,1702.473667,370.102971,-10495.508323
916.720593,1036.288319,2294.638420,-10189.070123
916.720913,592.164754,74.020594,-10495.508323
916.721233,-370.102971,-2812.782580,-9959.241474
916.721553,-814.226536,-4071.132681,-9882.631924
916.721873,-3256.906145,-5773.606348,-9652.803275
916.722193,-5625.565159,-4885.359217,-9959.241474
916.722513,-4589.276840,-4145.153275,-9576.193725
916.722833,-3108.864956,-3478.967927,-9729.412825
916.723153,-2812.782580,-1924.535449,-9959.241474
916.723473,-2072.576638,-2442.679609,-10189.070123
916.723793,-1554.432478,0.000000,-10495.508323
916.724113,518.144159,1258.350101,-10342.289223
916.724433,2442.679609,1702.473667,-10725.336972
916.724754,2812.782580,740.205942,-10189.070123
916.725074,1998.556043,-2960.823768,-10725.336972
916.725394,1406.391290,-2590.720797,-10572.117872
916.725714,-2294.638420,-1998.556043,-10955.165621
916.726034,-5255.462188,-962.267725,-10495.508323
916.726354,-4515.256246,-518.144159,-9576.193725
916.726674,-3256.906145,-814.226536,-10189.070123
916.726994,-1332.370696,-3627.009116,-10112.460574
916.727314,592.164754,-3701.029710,-10265.679673
916.727634,1258.350101,-1406.391290,-10189.070123
916.727954,962.267725,-1628.453072,-10342.289223
916.728274,3182.885551,1554.432478,-9959.241474
916.728594,1702.473667,3552.988522,-10878.556072
916.728914,148.041188,2368.659014,-10495.508323
916.729234,0.000000,1110.308913,-10265.679673
916.729554,-370.102971,-1110.308913,-9729.412825
916.729874,592.164754,-814.226536,-10112.460574
916.730194,1628.453072,-1184.329507,-10035.851024
916.730514,0.000000,-3997.112087,-9652.803275
916.730834,-1110.308913,-4515.256246,-9346.365076
916.731154,-1850.514855,-2960.823768,-8350.440928
916.731474,0.000000,222.061783,-9652.803275
916.731794,2664.741391,2146.597232,-8810.098227
916.732114,3552.988522,2516.700203,-10495.508323
916.732434,4367.215058,740.205942,-9806.022374
916.732754,4145.153275,1850.514855,-9959.241474
916.733074,4071.132681,1628.453072,-10342.289223
916.733394,4071.132681,1110.308913,-9959.241474
916.733715,1628.453072,1036.288319,-10495.508323
916.734035,-1480.411884,518.144159,-10495.508323
916.734355,-2442.679609,592.164754,-9422.974625
916.734675,-1998.556043,-814.226536,-10342.289223
916.734995,1554.432478,-1850.514855,-9806.022374
916.735315,2146.597232,-1480.411884,-9959.241474
916.735635,3256.906145,0.000000,-10648.727422
916.735955,2294.638420,1998.556043,-10265.679673
916.736275,1850.514855,2738.761985,-10878.556072
916.736595,1406.391290,1628.453072,-10265.679673
916.736915,444.123565,1480.411884,-10648.727422
916.737235,74.020594,1406.391290,-10342.289223
916.737555,-148.041188,1924.535449,-9806.022374
916.737875,-444.123565,1850.514855,-10572.117872
916.738195,-74.020594,1480.411884,-10801.946522
916.738515,-1110.308913,-444.123565,-10112.460574
916.738835,-2072.576638,-2590.720797,-9422.974625
916.739155,-1184.329507,148.041188,-9576.193725
916.739475,-1628.453072,592.164754,-9116.536426
916.739795,2368.659014,1628.453072,-9806.022374
916.740115,2664.741391,370.102971,-9652.803275
916.740435,2368.659014,-1036.288319,-9422.974625
916.740755,1480.411884,-1702.473667,-9346.365076
916.741075,666.185348,0.000000,-9193.145976
916.741395,1480.411884,2812.782580,-10112.460574
916.741715,222.061783,4663.297435,-10801.946522
916.742035,-2072.576638,3034.844362,-9806.022374
916.742356,-4293.194464,-1628.453072,-9499.584175
916.742676,-3923.091493,-4219.173869,-9193.145976
916.742996,-2516.700203,-2516.700203,-9576.193725
916.743316,-1184.329507,-148.041188,-9959.241474
916.743636,1776.494261,1258.350101,-10189.070123
916.743956,2960.823768,2072.576638,-10342.289223
916.744276,1184.329507,1628.453072,-10265.679673
916.744596,0.000000,1332.370696,-11338.213370
916.744916,-444.123565,1924.535449,-11491.432470
916.745236,222.061783,1480.411884,-10725.336972
916.745556,1110.308913,1850.514855,-10955.165621
916.745876,1776.494261,1480.411884,-10418.898773
916.746196,1924.535449,666.185348,-11338.213370
916.746516,1776.494261,148.041188,-11031.775171
916.746836,148.041188,222.061783,-10189.070123
916.747156,-1554.432478,-1554.432478,-9422.974625
916.747476,-962.267725,-1924.535449,-9652.803275
916.747796,0.000000,-1258.350101,-9576.193725
916.748116,740.205942,-296.082377,-9959.241474
916.748436,1850.514855,740.205942,-9422.974625
916.748756,1406.391290,1184.329507,-10342.289223
916.749076,3108.864956,0.000000,-9806.022374
916.749396,3627.009116,592.164754,-9652.803275
916.749716,3552.988522,1406.391290,-9806.022374
916.750036,2368.659014,1776.494261,-10035.851024
916.750356,-888.247130,-370.102971,-9959.241474
916.750676,-2738.761985,-2590.720797,-9499.584175
916.750997,-2664.741391,-2368.659014,-9269.755526
916.751317,296.082377,-2442.679609,-10035.851024
916.751637,1776.494261,-1184.329507,-10342.289223
916.751957,296.082377,-1480.411884,-10035.851024
916.752277,814.226536,592.164754,-10572.117872
916.752597,-518.144159,1776.494261,-10189.070123
916.752917,1480.411884,1332.370696,-10801.946522
916.753237,2146.597232,592.164754,-10801.946522
916.753557,-1406.391290,-2960.823768,-9806.022374
916.753877,-1628.453072,-3404.947333,-10801.946522
916.754197,-592.164754,-2146.597232,-9806.022374
916.754517,148.041188,-1628.453072,-10418.898773
916.754837,74.020594,444.123565,-11108.384721
916.755157,-740.205942,740.205942,-10265.679673
916.755477,-1776.494261,370.102971,-10878.556072
916.755797,-2146.597232,740.205942,-10495.508323
916.756117,-1258.350101,-148.041188,-10495.508323
916.756437,-222.061783,-2664.741391,-10648.727422
916.756757,1184.329507,-962.267725,-9959.241474
916.757077,1850.514855,-444.123565,-10112.460574
916.757397,370.102971,0.000000,-10035.851024
916.757717,222.061783,2368.659014,-10265.679673
916.758037,1998.556043,1850.514855,-10189.070123
916.758357,1110.308913,1184.329507,-9959.241474
916.758677,296.082377,-814.226536,-9499.584175
916.758997,370.102971,-1702.473667,-9806.022374
916.759317,-222.061783,-740.205942,-9652.803275
916.759637,74.020594,-1036.288319,-9806.022374
916.759958,0.000000,-1332.370696,-9422.974625
916.760278,666.185348,-1110.308913,-9039.926876
916.760598,1924.535449,2072.576638,-9576.193725
916.760918,1184.329507,3627.009116,-9729.412825
916.761238,2072.576638,1554.432478,-10572.117872
916.761558,2886.803174,0.000000,-9882.631924
916.761878,2220.617826,-148.041188,-9959.241474
916.762198,2368.659014,-1850.514855,-10265.679673
916.762518,2368.659014,0.000000,-9806.022374
916.762838,2072.576638,814.226536,-10955.165621
916.763158,296.082377,2368.659014,-10342.289223
916.763478,-1332.370696,2886.803174,-10418.898773
916.763798,-444.123565,1924.535449,-10725.336972
916.764118,1406.391290,0.000000,-10189.070123
916.764438,2812.782580,-148.041188,-10725.336972
916.764758,1924.535449,296.082377,-10418.898773
916.765078,-222.061783,1036.288319,-9806.022374
916.765398,0.000000,2072.576638,-10648.727422
916.765718,1110.308913,2220.617826,-10495.508323
916.766038,1554.432478,2294.638420,-9806.022374
916.766358,1184.329507,2146.597232,-10572.117872
916.766678,-296.082377,666.185348,-9422.974625
916.766998,814.226536,0.000000,-10112.460574
916.767318,1702.473667,666.185348,-8503.660028
916.767638,2146.597232,592.164754,-9576.193725
916.767958,888.247130,-148.041188,-9729.412825
916.768278,-444.123565,-296.082377,-8886.707777
916.768599,-1110.308913,1628.453072,-9576.193725
916.768919,666.185348,3108.864956,-9806.022374
916.769239,2664.741391,2220.617826,-9959.241474
916.769559,2368.659014,148.041188,-9959.241474
916.769879,740.205942,-1628.453072,-9269.755526
916.770199,-962.267725,-1480.411884,-9346.365076
916.770519,-2146.597232,-888.247130,-9959.241474
916.770839,-1998.556043,-148.041188,-9652.803275
916.771159,-888.247130,0.000000,-10572.117872
916.771479,-296.082377,222.061783,-10189.070123
916.771799,-1110.308913,1554.432478,-10265.679673
916.772119,-666.185348,2590.720797,-11414.822920
916.772439,296.082377,4219.173869,-10572.117872
916.772759,1776.494261,5329.482782,-11644.651570
916.773079,-592.164754,4737.318029,-11108.384721
916.773399,-1480.411884,1702.473667,-11031.775171
916.773719,-518.144159,-1110.308913,-10265.679673
916.774039,-148.041188,-592.164754,-10418.898773
916.774359,444.123565,1184.329507,-11568.042020
916.774679,1480.411884,3552.988522,-10265.679673
916.774999,962.267725,3256.906145,-10801.946522
916.775319,0.000000,3552.988522,-10035.851024
916.775639,-1998.556043,444.123565,-9422.974625
916.775959,740.205942,-1184.329507,-9882.631924
916.776279,1184.329507,-1850.514855,-9729.412825
916.776599,740.205942,-1480.411884,-9193.145976
916.776919,2368.659014,-1554.432478,-9193.145976
916.777239,3404.947333,-1554.432478,-9116.536426
916.777560,3478.967927,-740.205942,-10265.679673
916.777880,2294.638420,0.000000,-9806.022374
916.778200,148.041188,-1184.329507,-9039.926876
916.778520,-592.164754,-1924.535449,-8580.269578
916.778840,1110.308913,-1258.350101,-8886.707777
916.779160,2146.597232,-2368.659014,-9806.022374
916.779480,1702.473667,-2516.700203,-9882.631924
916.779800,666.185348,-1702.473667,-9959.241474
916.780120,-148.041188,-592.164754,-11031.775171
916.780440,888.247130,2072.576638,-9959.241474
916.780760,1628.453072,2072.576638,-10418.898773
916.781080,2072.576638,2294.638420,-10878.556072
916.781400,370.102971,370.102971,-9959.241474
916.781720,0.000000,-1702.473667,-11568.042020
916.782040,-296.082377,-2220.617826,-10265.679673
916.782360,2368.659014,-1628.453072,-10265.679673
916.782680,3552.988522,222.061783,-11261.603821
916.783000,1036.288319,1702.473667,-10878.556072
916.783320,-370.102971,2294.638420,-10265.679673
916.783640,740.205942,2664.741391,-11108.384721
916.783960,2368.659014,3997.112087,-10801.946522
916.784280,2516.700203,1332.370696,-11261.603821
916.784600,444.123565,-2294.638420,-9729.412825
916.784920,-2590.720797,-3627.009116,-9652.803275
916.785240,-2590.720797,-3404.947333,-9959.241474
916.785560,-814.226536,-1258.350101,-9729.412825
916.785880,1776.494261,1924.535449,-10725.336972
916.786201,1406.391290,2368.659014,-10572.117872
916.786521,-666.185348,888.247130,-9806.022374
916.786841,-1184.329507,-814.226536,-9806.022374
916.787161,-888.247130,-74.020594,-9422.974625
916.787481,-296.082377,222.061783,-9652.803275
916.787801,-1406.391290,-370.102971,-9882.631924
916.788121,-1554.432478,-518.144159,-8963.317327
916.788441,-1184.329507,-1406.391290,-9422.974625
916.788761,222.061783,0.000000,-9576.193725
916.789081,814.226536,1628.453072,-9882.631924
916.789401,-148.041188,888.247130,-10342.289223
916.789721,-444.123565,1406.391290,-9269.755526
916.790041,814.226536,1702.473667,-9882.631924
916.790361,222.061783,1776.494261,-9729.412825
916.790681,-1480.411884,888.247130,-9882.631924
916.791001,-518.144159,-296.082377,-10189.070123
916.791321,592.164754,74.020594,-9422.974625
916.791641,2220.617826,1628.453072,-10878.556072
916.791961,1332.370696,2812.782580,-10342.289223
916.792281,296.082377,2516.700203,-10189.070123
916.792601,814.226536,1850.514855,-10572.117872
916.792921,1554.432478,1332.370696,-9806.022374
916.793241,1184.329507,0.000000,-11031.775171
916.793561,1776.494261,666.185348,-10035.851024
916.793881,2886.803174,2146.597232,-10342.289223
916.794201,4071.132681,2442.679609,-11644.651570
916.794521,2146.597232,3108.864956,-9422.974625
916.794842,-592.164754,1702.473667,-10878.556072
916.795162,-296.082377,1110.308913,-10418.898773
916.795482,1554.432478,0.000000,-9806.022374
916.795802,1998.556043,-444.123565,-10572.117872
916.796122,1258.350101,-444.123565,-9576.193725
916.796442,1554.432478,148.041188,-9806.022374
916.796762,2294.638420,-592.164754,-10189.070123
916.797082,1628.453072,-1036.288319,-9193.145976
916.797402,1406.391290,962.267725,-9806.022374
916.797722,1998.556043,2812.782580,-9806.022374
916.798042,2516.700203,2886.803174,-10112.460574
916.798362,2516.700203,2220.617826,-10801.946522
916.798682,888.247130,370.102971,-9039.926876
916.799002,740.205942,-2442.679609,-9882.631924
916.799322,1406.391290,-3256.906145,-9346.365076
916.799642,296.082377,-1110.308913,-9269.755526
916.799962,-148.041188,740.205942,-10342.289223
916.800282,-444.123565,2442.679609,-9806.022374
916.800602,148.041188,2516.700203,-9959.241474
916.800922,-518.144159,2590.720797,-10572.117872
916.801242,-370.102971,1332.370696,-9882.631924
916.801562,370.102971,-814.226536,-11338.213370
916.801882,0.000000,-1258.350101,-10495.508323
916.802202,222.061783,-1628.453072,-10648.727422
916.802522,-1554.432478,-814.226536,-10801.946522
916.802842,-2072.576638,888.247130,-9652.803275
916.803162,-1628.453072,1924.535449,-11721.261119
916.803482,-1554.432478,1480.411884,-10495.508323
916.803803,-222.061783,518.144159,-10418.898773
916.804123,1184.329507,-1998.556043,-10725.336972
916.804443,-444.123565,-1776.494261,-9576.193725
916.804763,-888.247130,-1998.556043,-9959.241474
916.805083,-2368.659014,-1258.350101,-9806.022374
916.805403,-2442.679609,1184.329507,-10342.289223
916.805723,-1406.391290,1110.308913,-10648.727422
916.806043,-740.205942,740.205942,-9806.022374
916.806363,222.061783,0.000000,-10265.679673
916.806683,592.164754,-666.185348,-10648.727422
916.807003,888.247130,-370.102971,-9652.803275
916.807323,1480.411884,148.041188,-12717.185267
916.807643,1332.370696,1850.514855,-9882.631924
916.807963,592.164754,3849.070898,-10112.460574
916.808283,-666.185348,4441.235652,-11338.213370
916.808603,962.267725,3849.070898,-10342.289223
916.808923,2368.659014,-296.082377,-10801.946522
916.809243,2368.659014,-2812.782580,-9576.193725
916.809563,444.123565,-2886.803174,-9422.974625
916.809883,-592.164754,74.020594,-9576.193725
916.810203,-222.061783,2664.741391,-9882.631924
916.810523,3108.864956,2886.803174,-10955.165621
916.810843,4071.132681,2368.659014,-10955.165621
916.811163,3108.864956,-1110.308913,-9269.755526
916.811483,1924.535449,0.000000,-9806.022374
916.811803,222.061783,1036.288319,-9499.584175
916.812123,1406.391290,1924.535449,-9806.022374
916.812444,2738.761985,222.061783,-10801.946522
916.812764,3034.844362,-3256.906145,-9039.926876
916.813084,2368.659014,-5847.626942,-9499.584175
916.813404,2072.576638,-3997.112087,-9499.584175
916.813724,2516.700203,1480.411884,-9959.241474
916.814044,2368.659014,4219.173869,-10878.556072
916.814364,1776.494261,5181.441594,-9959.241474
916.814684,2368.659014,2442.679609,-10572.117872
916.815004,444.123565,-296.082377,-9729.412825
916.815324,592.164754,-1036.288319,-10189.070123
916.815644,1332.370696,-814.226536,-10418.898773
916.815964,1406.391290,444.123565,-9499.584175
916.816284,740.205942,1998.556043,-10725.336972
916.816604,-1850.514855,3330.926739,-10035.851024
916.816924,-1850.514855,2146.597232,-9959.241474
916.817244,74.020594,1924.535449,-10648.727422
916.817564,518.144159,1258.350101,-9959.241474
916.817884,444.123565,0.000000,-10265.679673
916.818205,74.020594,0.000000,-10189.070123
916.818525,-1110.308913,370.102971,-9346.365076
916.818845,-444.123565,888.247130,-10495.508323
916.819165,-1554.432478,1258.350101,-9499.584175
916.819485,-1924.535449,2220.617826,-10112.460574
916.819805,-1406.391290,1924.535449,-10725.336972
916.820125,-888.247130,592.164754,-10035.851024
916.820445,-592.164754,-1110.308913,-10265.679673
916.820765,-1850.514855,-1406.391290,-9652.803275
916.821085,296.082377,296.082377,-9959.241474
916.821405,-2664.741391,-740.205942,-10878.556072
916.821725,-888.247130,518.144159,-8963.317327
916.822046,-1628.453072,1776.494261,-10418.898773
916.822366,962.267725,2072.576638,-10495.508323
916.822686,3404.947333,1406.391290,-10189.070123
916.823006,1776.494261,-370.102971,-10878.556072
916.823326,-888.247130,-1332.370696,-9269.755526
916.823646,-2294.638420,-444.123565,-9959.241474
916.823966,-1702.473667,1554.432478,-10342.289223
916.824286,-1480.411884,2738.761985,-9882.631924
916.824606,148.041188,2664.741391,-10725.336972
916.824926,222.061783,1776.494261,-9806.022374
916.825246,296.082377,-1110.308913,-9882.631924
916.825566,814.226536,-2368.659014,-9806.022374
916.825886,740.205942,-1258.350101,-9039.926876
916.826207,444.123565,592.164754,-10342.289223
916.826527,1332.370696,2072.576638,-10342.289223
916.826847,2072.576638,2960.823768,-9806.022374
916.827167,3923.091493,1628.453072,-10955.165621
916.827487,3478.967927,1480.411884,-9882.631924
916.827807,1924.535449,-1036.288319,-10342.289223
916.828127,2220.617826,-2294.638420,-9729.412825
916.828447,2442.679609,-1924.535449,-9193.145976
916.828767,2294.638420,-1332.370696,-12104.308868
916.829087,1406.391290,-888.247130,-9882.631924
916.829407,1924.535449,-592.164754,-10342.289223
916.829727,2886.803174,666.185348,-10342.289223
916.830048,2442.679609,962.267725,-9806.022374
916.830368,2220.617826,222.061783,-10725.336972
916.830688,444.123565,-592.164754,-9806.022374
916.831008,2146.597232,-1258.350101,-10189.070123
916.831328,3404.947333,-1184.329507,-10342.289223
916.831648,2812.782580,-296.082377,-9959.241474
916.831968,1702.473667,-370.102971,-10418.898773
916.832288,740.205942,1184.329507,-10572.117872
916.832608,-518.144159,1480.411884,-10801.946522
916.832928,0.000000,1850.514855,-11108.384721
916.833248,-1628.453072,666.185348,-10265.679673
916.833568,-592.164754,0.000000,-10495.508323
916.833888,0.000000,296.082377,-9959.241474
916.834209,-888.247130,444.123565,-10265.679673
916.834529,-1036.288319,-962.267725,-9806.022374
916.834849,-370.102971,74.020594,-9729.412825
916.835169,370.102971,74.020594,-10035.851024
916.835489,0.000000,0.000000,-10189.070123
916.835809,-888.247130,-74.020594,-9499.584175
916.836129,-1628.453072,-518.144159,-9346.365076
916.836449,-148.041188,-1036.288319,-9576.193725
916.836769,1924.535449,-518.144159,-9882.631924
916.837089,444.123565,-518.144159,-10801.946522
916.837409,-3627.009116,-370.102971,-9346.365076
916.837729,-4367.215058,-1110.308913,-9806.022374
916.838050,-3552.988522,222.061783,-9729.412825
916.838370,-2442.679609,888.247130,-9959.241474
916.838690,0.000000,0.000000,-10725.336972
916.839010,-814.226536,0.000000,-9499.584175
916.839330,0.000000,-666.185348,-11338.213370
916.839650,-148.041188,-222.061783,-9882.631924
916.839970,-2368.659014,1406.391290,-10189.070123
916.840290,-1776.494261,1480.411884,-10878.556072
916.840610,-296.082377,1184.329507,-10035.851024
916.840930,444.123565,1184.329507,-11108.384721
916.841250,2590.720797,1258.350101,-10725.336972
916.841570,4145.153275,1702.473667,-10801.946522
916.841890,3478.967927,1554.432478,-11491.432470
916.842211,2368.659014,2442.679609,-10342.289223
916.842531,666.185348,2960.823768,-10648.727422
916.842851,-1406.391290,2886.803174,-10648.727422
916.843171,0.000000,2664.741391,-10035.851024
916.843491,2072.576638,962.267725,-11338.213370
916.843811,3404.947333,-296.082377,-10189.070123
916.844131,3627.009116,-518.144159,-9652.803275
916.844451,3034.844362,0.000000,-10495.508323
916.844771,1480.411884,1776.494261,-8886.707777
916.845091,2072.576638,2516.700203,-10418.898773
916.845411,2368.659014,1184.329507,-9576.193725
916.845731,2812.782580,-1554.432478,-8810.098227
916.846052,2368.659014,-3108.864956,-9193.145976
916.846372,2590.720797,-3627.009116,-8427.050478
916.846692,2960.823768,-2442.679609,-9346.365076
916.847012,3182.885551,-592.164754,-9499.584175
916.847332,2516.700203,0.000000,-9269.755526
916.847652,962.267725,1554.432478,-10035.851024
916.847972,-1702.473667,1628.453072,-9269.755526
916.848292,-2072.576638,-148.041188,-9806.022374
916.848612,1628.453072,-1850.514855,-9806.022374
916.848932,740.205942,-1110.308913,-10035.851024
916.849252,-592.164754,-888.247130,-9882.631924
916.849572,-1554.432478,148.041188,-10112.460574
916.849892,-740.205942,592.164754,-9882.631924
916.850213,2664.741391,1406.391290,-10648.727422
916.850533,2516.700203,1776.494261,-10648.727422
916.850853,1480.411884,1850.514855,-11184.994271
916.851173,-2294.638420,1998.556043,-10418.898773
916.851493,-2738.761985,2072.576638,-9422.974625
916.851813,-1110.308913,1332.370696,-11568.042020
916.852133,-1628.453072,-1554.432478,-10801.946522
916.852453,-1776.494261,-3404.947333,-10189.070123
916.852773,-2812.782580,-1702.473667,-10342.289223
916.853093,-1554.432478,1480.411884,-10112.460574
916.853413,-1702.473667,4515.256246,-12180.918418
916.853733,-4293.194464,3552.988522,-10955.165621
916.854054,-3849.070898,592.164754,-10265.679673
916.854374,-1258.350101,-1332.370696,-10418.898773
916.854694,814.226536,-3404.947333,-9729.412825
916.855014,1776.494261,-3404.947333,-10342.289223
916.855334,-370.102971,-1480.411884,-10189.070123
916.855654,0.000000,-444.123565,-9499.584175
916.855974,74.020594,-74.020594,-9729.412825
916.856294,-888.247130,-222.061783,-9039.926876
916.856614,-296.082377,0.000000,-10035.851024
916.856934,740.205942,-888.247130,-9882.631924
916.857254,0.000000,-1184.329507,-9422.974625
916.857574,666.185348,-1776.494261,-9193.145976
916.857894,370.102971,-1184.329507,-8580.269578
916.858215,296.082377,-1184.329507,-10035.851024
916.858535,2738.761985,-148.041188,-9959.241474
916.858855,2442.679609,888.247130,-9269.755526
916.859175,1776.494261,1258.350101,-9806.022374
916.859495,2590.720797,666.185348,-9652.803275
916.859815,3627.009116,0.000000,-10342.289223
916.860135,3552.988522,-1036.288319,-10112.460574
916.860455,1258.350101,-1258.350101,-9806.022374
916.860775,1332.370696,-518.144159,-10495.508323
916.861095,1406.391290,2368.659014,-10342.289223
916.861415,1110.308913,2590.720797,-10955.165621
916.861735,2960.823768,2664.741391,-11261.603821
916.862056,1406.391290,592.164754,-10265.679673
916.862376,4145.153275,740.205942,-11184.994271
916.862696,3034.844362,518.144159,-10955.165621
916.863016,2590.720797,1850.514855,-11184.994271
916.863336,1184.329507,1480.411884,-11108.384721
916.863656,-296.082377,2368.659014,-10725.336972
916.863976,-370.102971,2516.700203,-10878.556072
916.864296,444.123565,1332.370696,-11568.042020
916.864616,2516.700203,148.041188,-11184.994271
916.864936,2294.638420,-1628.453072,-10648.727422
916.865256,0.000000,-1776.494261,-10112.460574
916.865576,-962.267725,-444.123565,-9729.412825
916.865896,-1998.556043,1258.350101,-9959.241474
916.866217,814.226536,2886.803174,-9729.412825
916.866537,1628.453072,3923.091493,-11031.775171
916.866857,518.144159,2368.659014,-10112.460574
916.867177,-518.144159,740.205942,-9499.584175
916.867497,-1110.308913,-1924.535449,-9193.145976
916.867817,-1036.288319,-2368.659014,-8733.488677
916.868137,-1332.370696,-1850.514855,-9806.022374
916.868457,-1998.556043,-518.144159,-8580.269578
916.868777,-2220.617826,296.082377,-8963.317327
916.869097,-1628.453072,1110.308913,-9959.241474
916.869417,-1702.473667,1480.411884,-8963.317327
916.869737,74.020594,222.061783,-10265.679673
916.870058,1184.329507,-740.205942,-9576.193725
916.870378,814.226536,-1184.329507,-9499.584175
916.870698,222.061783,-296.082377,-10342.289223
916.871018,-888.247130,148.041188,-10035.851024
916.871338,-222.061783,1184.329507,-10495.508323
916.871658,-1554.432478,2220.617826,-11108.384721
916.871978,-1776.494261,1702.473667,-10265.679673
916.872298,-2072.576638,444.123565,-10725.336972
916.872618,-1258.350101,888.247130,-11108.384721
916.872938,814.226536,518.144159,-10955.165621
916.873258,888.247130,0.000000,-11797.870669
916.873578,-1554.432478,-370.102971,-10418.898773
916.873898,592.164754,74.020594,-11414.822920
916.874219,1036.288319,2960.823768,-11338.213370
916.874539,1702.473667,3923.091493,-11721.261119
916.874859,4293.194464,3108.864956,-11721.261119
916.875179,3108.864956,2294.638420,-10495.508323
916.875499,2072.576638,1258.350101,-10878.556072
916.875819,1036.288319,-444.123565,-10112.460574
916.876139,1406.391290,-1036.288319,-9806.022374
916.876459,2368.659014,-1554.432478,-10189.070123
916.876779,1406.391290,-740.205942,-9499.584175
916.877099,-74.020594,-814.226536,-9806.022374
916.877419,-1554.432478,-962.267725,-8580.269578
916.877739,-592.164754,592.164754,-8733.488677
916.878060,2368.659014,962.267725,-10265.679673
916.878380,2590.720797,814.226536,-8656.879127
916.878700,2886.803174,-740.205942,-10035.851024
916.879020,3627.009116,-2368.659014,-8963.317327
916.879340,4071.132681,-3182.885551,-8733.488677
916.879660,2738.761985,-2886.803174,-9422.974625
916.879980,2294.638420,-1332.370696,-9269.755526
916.880300,2664.741391,888.247130,-9882.631924
916.880620,1998.556043,1924.535449,-10342.289223
916.880940,1628.453072,1110.308913,-9422.974625
916.881260,2590.720797,296.082377,-11031.775171
916.881580,518.144159,-740.205942,-9193.145976
916.881900,-962.267725,-1480.411884,-9882.631924
916.882221,0.000000,-1406.391290,-10495.508323
916.882541,148.041188,-296.082377,-9806.022374
916.882861,888.247130,518.144159,-10878.556072
916.883181,-370.102971,1406.391290,-10725.336972
916.883501,-962.267725,2664.741391,-10189.070123
916.883821,-1776.494261,1776.494261,-11491.432470
916.884141,-1480.411884,-666.185348,-10112.460574
916.884461,222.061783,-962.267725,-10955.165621
916.884781,296.082377,-444.123565,-11261.603821
916.885101,-592.164754,0.000000,-9882.631924
916.885421,-1406.391290,1110.308913,-11184.994271
916.885741,-2294.638420,1184.329507,-9269.755526
916.886062,-518.144159,1554.432478,-10265.679673
916.886382,-592.164754,888.247130,-11261.603821
916.886702,-3108.864956,444.123565,-9422.974625
916.887022,-2886.803174,296.082377,-9729.412825
916.887342,-1554.432478,518.144159,-9652.803275
916.887662,0.000000,148.041188,-9652.803275
916.887982,2294.638420,-1480.411884,-10648.727422
916.888302,0.000000,-888.247130,-8733.488677
916.888622,-3330.926739,-814.226536,-9806.022374
916.888942,-3775.050304,-444.123565,-9269.755526
916.889262,-518.144159,370.102971,-9729.412825
916.889582,1036.288319,-148.041188,-10572.117872
916.889902,444.123565,-444.123565,-9346.365076
916.890223,-814.226536,148.041188,-10189.070123
916.890543,-666.185348,222.061783,-10035.851024
916.890863,1036.288319,1998.556043,-9499.584175
916.891183,1036.288319,1480.411884,-10572.117872
916.891503,740.205942,444.123565,-9116.536426
916.891823,592.164754,-888.247130,-9882.631924
916.892143,444.123565,-1998.556043,-9882.631924
916.892463,1258.350101,148.041188,-9729.412825
916.892783,2960.823768,740.205942,-10725.336972
916.893103,3404.947333,1554.432478,-9959.241474
916.893423,1332.370696,3182.885551,-10342.289223
916.893743,2072.576638,3330.926739,-10878.556072
916.894064,2146.597232,3034.844362,-9499.584175
916.894384,2960.823768,592.164754,-12870.404366
916.894704,3182.885551,-1332.370696,-9882.631924
916.895024,3256.906145,-3182.885551,-9499.584175
916.895344,3849.070898,-1184.329507,-10418.898773
916.895664,1998.556043,296.082377,-9652.803275
916.895984,1332.370696,2590.720797,-10572.117872
916.896304,888.247130,3701.029710,-10418.898773
916.896624,2442.679609,3256.906145,-9882.631924
916.896944,3923.091493,1924.535449,-10878.556072
916.897264,2812.782580,-148.041188,-9959.241474
916.897584,2590.720797,-1924.535449,-9193.145976
916.897904,3478.967927,-1776.494261,-10572.117872
916.898225,1850.514855,-814.226536,-9652.803275
916.898545,-1776.494261,1258.350101,-9959.241474
916.898865,-3034.844362,2368.659014,-9806.022374
916.899185,-148.041188,2886.803174,-9422.974625
916.899505,4885.359217,2220.617826,-11031.775171
916.899825,4145.153275,518.144159,-11491.432470
916.900145,296.082377,-962.267725,-10342.289223
916.900465,-2590.720797,-2072.576638,-9193.145976
916.900785,-2072.576638,-1702.473667,-9499.584175
916.901105,-222.061783,-666.185348,-10035.851024
916.901425,-444.123565,1406.391290,-9959.241474
916.901745,-740.205942,2738.761985,-10648.727422
916.902066,-1480.411884,1998.556043,-10418.898773
916.902386,-1258.350101,-370.102971,-9806.022374
916.902706,-1036.288319,-2220.617826,-10189.070123
916.903026,-2738.761985,-2738.761985,-9269.755526
916.903346,-2590.720797,-1258.350101,-9576.193725
916.903666,-2812.782580,296.082377,-10572.117872
916.903986,-2516.700203,1110.308913,-9959.241474
916.904306,-1480.411884,666.185348,-11031.775171
916.904626,-740.205942,1036.288319,-10265.679673
916.904946,-1184.329507,740.205942,-9959.241474
916.905266,-1702.473667,592.164754,-10725.336972
916.905586,-1702.473667,888.247130,-9193.145976
916.905906,-888.247130,-666.185348,-9959.241474
916.906227,-592.164754,-1850.514855,-9806.022374
916.906547,222.061783,-2072.576638,-9422.974625
916.906867,1776.494261,-1184.329507,-10572.117872
916.907187,1998.556043,1332.370696,-9806.022374
916.907507,2590.720797,2812.782580,-10878.556072
916.907827,3182.885551,2886.803174,-10495.508323
916.908147,296.082377,1110.308913,-9576.193725
916.908467,-1036.288319,0.000000,-10878.556072
916.908787,-1184.329507,-814.226536,-9652.803275
916.909107,740.205942,-592.164754,-10035.851024
916.909427,2072.576638,-888.247130,-10035.851024
916.909747,1702.473667,-1110.308913,-9422.974625
916.910068,1110.308913,-2368.659014,-9806.022374
916.910388,962.267725,-888.247130,-9499.584175
916.910708,2516.700203,-222.061783,-9806.022374
916.911028,4663.297435,370.102971,-10572.117872
916.911348,4293.194464,592.164754,-9269.755526
916.911668,1850.514855,1406.391290,-10725.336972
916.911988,1776.494261,1850.514855,-10418.898773
916.912308,2812.782580,1110.308913,-9959.241474
916.912628,4811.338623,148.041188,-11108.384721
916.912948,4589.276840,-1406.391290,-9193.145976
916.913268,3404.947333,-814.226536,-10112.460574
916.913588,1702.473667,0.000000,-10418.898773
916.913908,666.185348,1406.391290,-9882.631924
916.914229,-296.082377,1702.473667,-10878.556072
916.914549,-740.205942,1850.514855,-10035.851024
916.914869,-74.020594,1036.288319,-10189.070123
916.915189,370.102971,222.061783,-10418.898773
916.915509,1554.432478,-222.061783,-9346.365076
916.915829,3034.844362,74.020594,-10342.289223
916.916149,2738.761985,296.082377,-10342.289223
916.916469,1184.329507,222.061783,-10265.679673
916.916790,-148.041188,592.164754,-10265.679673
916.917110,-1702.473667,888.247130,-9269.755526
916.917430,-814.226536,1110.308913,-9882.631924
916.917750,-1924.535449,1184.329507,-10725.336972
916.918070,-518.144159,1480.411884,-9882.631924
916.918390,148.041188,666.185348,-9806.022374
916.918710,888.247130,74.020594,-9346.365076
916.919031,1628.453072,518.144159,-10189.070123
916.919351,370.102971,1110.308913,-10418.898773
916.919671,-2368.659014,962.267725,-9959.241474
916.919991,-3997.112087,1628.453072,-9729.412825
916.920311,-3182.885551,1184.329507,-9652.803275
916.920631,-1924.535449,1036.288319,-10342.289223
916.920951,-1036.288319,962.267725,-10112.460574
916.921271,-2220.617826,1036.288319,-10572.117872
916.921592,-1480.411884,1036.288319,-10342.289223
916.921912,-814.226536,962.267725,-9729.412825
916.922232,74.020594,1406.391290,-10495.508323
916.922552,370.102971,0.000000,-10265.679673
916.922872,222.061783,-444.123565,-9729.412825
916.923192,-1184.329507,-296.082377,-11261.603821
916.923512,-740.205942,-222.061783,-10342.289223
916.923833,-444.123565,592.164754,-10495.508323
916.924153,1776.494261,1110.308913,-10725.336972
916.924473,1628.453072,2442.679609,-10035.851024
916.924793,1110.308913,2960.823768,-11184.994271
916.925113,1406.391290,1998.556043,-10112.460574
916.925433,1850.514855,518.144159,-10342.289223
916.925753,2738.761985,-518.144159,-10112.460574
916.926073,1036.288319,-1258.350101,-9576.193725
916.926394,444.123565,-888.247130,-9652.803275
916.926714,444.123565,-222.061783,-9806.022374
916.927034,2516.700203,148.041188,-8733.488677
916.927354,4367.215058,1406.391290,-9729.412825
916.927674,3849.070898,1480.411884,-9882.631924
916.927994,2294.638420,814.226536,-8886.707777
916.928314,222.061783,-1184.329507,-9806.022374
916.928635,444.123565,-3034.844362,-8580.269578
916.928955,2220.617826,-3108.864956,-9422.974625
916.929275,2960.823768,-1702.473667,-9346.365076
916.929595,1998.556043,222.061783,-9576.193725
916.929915,2072.576638,2442.679609,-11414.822920
916.930235,3478.967927,3182.885551,-9806.022374
916.930555,4293.194464,3182.885551,-10648.727422
916.930875,2516.700203,666.185348,-10189.070123
916.931196,148.041188,-2220.617826,-9882.631924
916.931516,-1628.453072,-3034.844362,-10878.556072
916.931836,-1850.514855,-2146.597232,-10189.070123
916.932156,592.164754,0.000000,-10878.556072
916.932476,814.226536,2220.617826,-11031.775171
916.932796,222.061783,2960.823768,-11031.775171
916.933116,-592.164754,2516.700203,-11721.261119
916.933437,1036.288319,1036.288319,-10801.946522
916.933757,222.061783,-222.061783,-10878.556072
916.934077,-1554.432478,-2664.741391,-10265.679673
916.934397,-2220.617826,-2590.720797,-9959.241474
916.934717,-1480.411884,-1850.514855,-10725.336972
916.935037,-888.247130,-370.102971,-9729.412825
916.935357,-1036.288319,888.247130,-9959.241474
916.935677,-1924.535449,1480.411884,-10265.679673
916.935998,-1554.432478,518.144159,-9499.584175
916.936318,-1332.370696,444.123565,-10035.851024
916.936638,-888.247130,148.041188,-9882.631924
916.936958,-1258.350101,-962.267725,-9346.365076
916.937278,-1406.391290,-3182.885551,-9806.022374
916.937598,-2146.597232,-2442.679609,-9116.536426
916.937918,-2738.761985,-296.082377,-9806.022374
916.938239,-3997.112087,1998.556043,-9806.022374
916.938559,-2664.741391,2738.761985,-9959.241474
916.938879,0.000000,962.267725,-10265.679673
916.939199,2886.803174,0.000000,-9882.631924
916.939519,3034.844362,-1554.432478,-9806.022374
916.939839,592.164754,-1258.350101,-10572.117872
916.940159,-1184.329507,222.061783,-9882.631924
916.940479,888.247130,1110.308913,-10648.727422
916.940800,1628.453072,1628.453072,-10418.898773
916.941120,1036.288319,1850.514855,-10189.070123
916.941440,962.267725,1110.308913,-10495.508323
916.941760,2294.638420,962.267725,-10189.070123
916.942080,2516.700203,1480.411884,-11261.603821
916.942400,2368.659014,1184.329507,-10955.165621
916.942720,592.164754,-518.144159,-10112.460574
916.943041,814.226536,-1406.391290,-10189.070123
916.943361,1036.288319,-444.123565,-9729.412825
916.943681,3182.885551,2220.617826,-10801.946522
916.944001,3627.009116,3923.091493,-11491.432470
916.944321,3775.050304,3182.885551,-10342.289223
916.944641,2664.741391,1554.432478,-10035.851024
916.944961,2442.679609,222.061783,-9576.193725
916.945281,2368.659014,0.000000,-9729.412825
916.945602,3108.864956,0.000000,-10418.898773
916.945922,1628.453072,222.061783,-9193.145976
916.946242,1332.370696,0.000000,-9576.193725
916.946562,740.205942,0.000000,-8810.098227
916.946882,2516.700203,74.020594,-9193.145976
916.947202,3034.844362,1480.411884,-9729.412825
916.947522,2664.741391,2960.823768,-9193.145976
916.947843,518.144159,2590.720797,-10189.070123
916.948163,-222.061783,1406.391290,-9729.412825
916.948483,1036.288319,74.020594,-9039.926876
916.948803,1332.370696,-2146.597232,-10265.679673
916.949123,148.041188,-1036.288319,-9346.365076
916.949443,-1998.556043,-740.205942,-9882.631924
916.949763,-1184.329507,1702.473667,-10418.898773
916.950083,1110.308913,2960.823768,-10342.289223
916.950404,2738.761985,2960.823768,-11414.822920
916.950724,1110.308913,2960.823768,-11184.994271
916.951044,-1628.453072,1554.432478,-10878.556072
916.951364,-2368.659014,-740.205942,-10418.898773
916.951684,-1184.329507,-1110.308913,-10342.289223
916.952004,-962.267725,-1110.308913,-10955.165621
916.952324,-3478.967927,0.000000,-10035.851024
916.952645,-4737.318029,2590.720797,-10112.460574
916.952965,-2664.741391,2516.700203,-10572.117872
916.953285,666.185348,2220.617826,-10955.165621
916.953605,2220.617826,-148.041188,-11261.603821
916.953925,74.020594,-2516.700203,-10035.851024
916.954245,-2738.761985,-666.185348,-9959.241474
916.954565,-4219.173869,1480.411884,-10572.117872
916.954885,-3256.906145,4441.235652,-9882.631924
916.955206,814.226536,4145.153275,-11184.994271
916.955526,888.247130,2146.597232,-10418.898773
916.955846,-740.205942,-962.267725,-9039.926876
916.956166,-2146.597232,-4367.215058,-9193.145976
916.956486,-296.082377,-5699.585753,-8886.707777
916.956806,1258.350101,-4293.194464,-9422.974625
916.957126,-222.061783,-2146.597232,-10189.070123
916.957447,-1406.391290,222.061783,-8963.317327
916.957767,-2368.659014,1184.329507,-9959.241474
916.958087,-888.247130,1480.411884,-9882.631924
916.958407,3108.864956,1258.350101,-10112.460574
916.958727,3330.926739,-814.226536,-10648.727422
916.959047,2886.803174,-2146.597232,-9346.365076
916.959367,1998.556043,-3701.029710,-10265.679673
916.959687,2590.720797,-3404.947333,-9806.022374
916.960008,3182.885551,-1036.288319,-10495.508323
916.960328,2220.617826,0.000000,-11031.775171
916.960648,-592.164754,1480.411884,-9729.412825
916.960968,-370.102971,2442.679609,-10648.727422
916.961288,3627.009116,1480.411884,-10572.117872
916.961608,6439.791695,1184.329507,-10265.679673
916.961928,6069.688724,222.061783,-11184.994271
916.962249,2664.741391,0.000000,-10035.851024
916.962569,-296.082377,74.020594,-9806.022374
916.962889,-666.185348,-222.061783,-10572.117872
916.963209,888.247130,74.020594,-9422.974625
916.963529,1776.494261,-518.144159,-10189.070123
916.963849,1850.514855,-296.082377,-10265.679673
916.964169,2590.720797,0.000000,-9729.412825
916.964489,2146.597232,74.020594,-11031.775171
916.964810,3034.844362,814.226536,-9806.022374
916.965130,3034.844362,222.061783,-10495.508323
916.965450,2368.659014,-666.185348,-9806.022374
916.965770,-740.205942,0.000000,-9652.803275
916.966090,-2146.597232,-518.144159,-10189.070123
916.966410,-1332.370696,-370.102971,-9422.974625
916.966730,518.144159,444.123565,-10418.898773
916.967051,2442.679609,74.020594,-10265.679673
916.967371,740.205942,1554.432478,-9806.022374
916.967691,-1184.329507,296.082377,-10648.727422
916.968011,-962.267725,74.020594,-9806.022374
916.968331,-1332.370696,-592.164754,-10189.070123
916.968651,-1184.329507,-1184.329507,-9959.241474
916.968971,-3404.947333,-740.205942,-9116.536426
916.969291,-2886.803174,1480.411884,-10265.679673
916.969612,-1702.473667,3256.906145,-9806.022374
916.969932,148.041188,3330.926739,-10725.336972
916.970252,1036.288319,592.164754,-10418.898773
916.970572,-1480.411884,-666.185348,-9729.412825
916.970892,-2590.720797,222.061783,-9806.022374
916.971212,-1998.556043,666.185348,-9882.631924
916.971532,-666.185348,1332.370696,-9422.974625
916.971853,1258.350101,1110.308913,-10495.508323
916.972173,-592.164754,1110.308913,-9806.022374
916.972493,-2738.761985,1406.391290,-10035.851024
916.972813,-2146.597232,1332.370696,-9806.022374
916.973133,1776.494261,2442.679609,-10112.460574
916.973453,3182.885551,2368.659014,-10878.556072
916.973773,962.267725,1924.535449,-9806.022374
916.974093,-1628.453072,666.185348,-8886.707777
916.974414,-1702.473667,-296.082377,-9806.022374
916.974734,444.123565,0.000000,-9652.803275
916.975054,1554.432478,222.061783,-10648.727422
916.975374,4367.215058,1480.411884,-9806.022374
916.975694,1850.514855,1036.288319,-9959.241474
916.976014,2146.597232,888.247130,-10418.898773
916.976334,3034.844362,1184.329507,-9729.412825
916.976655,2516.700203,1110.308913,-10495.508323
916.976975,1184.329507,814.226536,-9806.022374
916.977295,888.247130,0.000000,-9576.193725
916.977615,2886.803174,0.000000,-10342.289223
916.977935,4071.132681,0.000000,-9576.193725
916.978255,4441.235652,962.267725,-10342.289223
916.978575,3330.926739,1406.391290,-10572.117872
916.978895,1480.411884,814.226536,-9806.022374
916.979216,370.102971,-518.144159,-9959.241474
916.979536,-592.164754,-444.123565,-9499.584175
916.979856,-1110.308913,518.144159,-9729.412825
916.980176,222.061783,592.164754,-10265.679673
916.980496,1406.391290,888.247130,-9882.631924
916.980816,1924.535449,0.000000,-10572.117872
916.981136,1258.350101,-1110.308913,-9193.145976
916.981457,1628.453072,-2294.638420,-9499.584175
916.981777,3108.864956,-1776.494261,-10342.289223
916.982097,1776.494261,74.020594,-9882.631924
916.982417,222.061783,1776.494261,-10801.946522
916.982737,666.185348,1776.494261,-10265.679673
916.983057,370.102971,1554.432478,-10265.679673
916.983377,296.082377,-814.226536,-10418.898773
916.983697,-1332.370696,-2146.597232,-9729.412825
916.984018,-2442.679609,-1258.350101,-9576.193725
916.984338,-2738.761985,-962.267725,-10418.898773
916.984658,-962.267725,-222.061783,-9959.241474
916.984978,-1258.350101,-1036.288319,-11261.603821
916.985298,-2664.741391,-1406.391290,-10035.851024
916.985618,-2368.659014,296.082377,-9499.584175
916.985938,-1776.494261,814.226536,-10265.679673
916.986259,1036.288319,1406.391290,-10189.070123
916.986579,2960.823768,-222.061783,-10342.289223
916.986899,592.164754,-1406.391290,-11184.994271
916.987219,-1924.535449,-1776.494261,-10495.508323
916.987539,-2146.597232,-1480.411884,-9882.631924
916.987859,-1184.329507,-222.061783,-9576.193725
916.988179,-370.102971,1924.535449,-10035.851024
916.988499,-962.267725,2738.761985,-10878.556072
916.988820,-3034.844362,1776.494261,-10112.460574
916.989140,-3701.029710,-814.226536,-10112.460574
916.989460,-962.267725,-2146.597232,-9039.926876
916.989780,2516.700203,-2738.761985,-9346.365076
916.990100,3478.967927,-1924.535449,-9882.631924
916.990420,1480.411884,-370.102971,-9959.241474
916.990740,222.061783,814.226536,-10112.460574
916.991061,296.082377,1702.473667,-9729.412825
916.991381,2146.597232,2664.741391,-11031.775171
916.991701,1776.494261,1850.514855,-10572.117872
916.992021,444.123565,444.123565,-9346.365076
916.992341,0.000000,-1406.391290,-10189.070123
916.992661,2368.659014,-3923.091493,-9729.412825
916.992981,4737.318029,-4219.173869,-9806.022374
916.993301,2738.761985,-2664.741391,-10342.289223
916.993622,444.123565,74.020594,-9346.365076
916.993942,296.082377,2442.679609,-10265.679673
916.994262,1332.370696,3997.112087,-10418.898773
916.994582,2072.576638,3997.112087,-10112.460574
916.994902,1924.535449,3404.947333,-10265.679673
916.995222,2738.761985,1998.556043,-10418.898773
916.995542,3478.967927,-592.164754,-10648.727422
916.995863,2590.720797,-1480.411884,-9499.584175
916.996183,1480.411884,-1332.370696,-9346.365076
916.996503,2146.597232,0.000000,-9806.022374
916.996823,1332.370696,1776.494261,-10878.556072
916.997143,222.061783,3108.864956,-10648.727422
916.997463,518.144159,2294.638420,-9882.631924
916.997783,2960.823768,1554.432478,-10648.727422
916.998104,3775.050304,518.144159,-10878.556072
916.998424,1332.370696,-444.123565,-11108.384721
916.998744,-1332.370696,74.020594,-10418.898773
916.999064,-1554.432478,814.226536,-10572.117872
916.999384,-222.061783,1036.288319,-10189.070123
916.999704,-370.102971,1258.350101,-10418.898773
917.000024,-2368.659014,148.041188,-9576.193725
917.000344,-2664.741391,-222.061783,-10189.070123
917.000665,-740.205942,0.000000,-10342.289223
917.000985,-222.061783,222.061783,-9652.803275
917.001305,0.000000,740.205942,-10112.460574
917.001625,-1110.308913,518.144159,-9652.803275
917.001945,-2146.597232,148.041188,-9806.022374
917.002265,-2146.597232,-222.061783,-10189.070123
917.002585,-1924.535449,-222.061783,-10495.508323
917.002906,-666.185348,296.082377,-9959.241474
917.003226,888.247130,1776.494261,-10342.289223
917.003546,-1850.514855,1702.473667,-9422.974625
917.003866,-1776.494261,1480.411884,-10418.898773
917.004186,-592.164754,740.205942,-9499.584175
917.004506,-1184.329507,-814.226536,-10112.460574
917.004826,-1406.391290,-814.226536,-10572.117872
917.005146,-2960.823768,-296.082377,-9729.412825
917.005467,-2960.823768,814.226536,-10342.289223
917.005787,-148.041188,2294.638420,-9806.022374
917.006107,4219.173869,3108.864956,-10495.508323
917.006427,4367.215058,2590.720797,-11491.432470
917.006747,2146.597232,148.041188,-9652.803275
917.007067,-222.061783,-1406.391290,-10265.679673
917.007387,518.144159,-3256.906145,-9729.412825
917.007708,2442.679609,-2072.576638,-10342.289223
917.008028,2664.741391,74.020594,-10801.946522
917.008348,518.144159,666.185348,-10112.460574
917.008668,-222.061783,2368.659014,-11108.384721
917.008988,1776.494261,1628.453072,-10112.460574
917.009308,3034.844362,666.185348,-10725.336972
917.009628,2812.782580,-666.185348,-11108.384721
917.009948,2516.700203,-592.164754,-9806.022374
917.010269,2442.679609,-1184.329507,-10342.289223
917.010589,2072.576638,-1480.411884,-9806.022374
917.010909,1850.514855,-962.267725,-9499.584175
917.011229,1924.535449,0.000000,-10189.070123
917.011549,666.185348,592.164754,-9882.631924
917.011869,1258.350101,666.185348,-9346.365076
917.012189,2886.803174,1406.391290,-10418.898773
917.012510,5255.462188,666.185348,-10189.070123
917.012830,4737.318029,-740.205942,-10265.679673
917.013150,2664.741391,-1554.432478,-10112.460574
917.013470,518.144159,-888.247130,-9116.536426
917.013790,-666.185348,-518.144159,-10265.679673
917.014110,518.144159,-592.164754,-9959.241474
917.014430,1702.473667,-1924.535449,-9882.631924
917.014750,1184.329507,-1110.308913,-10035.851024
917.015071,-1554.432478,148.041188,-9806.022374
917.015391,-1628.453072,1850.514855,-10495.508323
917.015711,-370.102971,1924.535449,-10189.070123
917.016031,2590.720797,740.205942,-10572.117872
917.016351,1258.350101,-888.247130,-10648.727422
917.016671,-1702.473667,-1406.391290,-9729.412825
917.016991,-2812.782580,-1332.370696,-10112.460574
917.017311,-1184.329507,-1406.391290,-10265.679673
917.017631,370.102971,0.000000,-10648.727422
917.017951,0.000000,518.144159,-10648.727422
917.018271,-2886.803174,1850.514855,-9576.193725
917.018591,-3997.112087,2072.576638,-11108.384721
917.018911,-1110.308913,1850.514855,-9729.412825
917.019231,0.000000,1628.453072,-10342.289223
917.019551,592.164754,1332.370696,-11108.384721
917.019871,-1480.411884,-814.226536,-8886.707777
917.020191,-1924.535449,-1332.370696,-10342.289223
917.020511,-814.226536,-1628.453072,-10112.460574
917.020831,592.164754,518.144159,-9269.755526
917.021151,-1110.308913,3256.906145,-10955.165621
917.021471,-1628.453072,4145.153275,-9806.022374
917.021791,-592.164754,4515.256246,-10418.898773
917.022111,-518.144159,1998.556043,-10801.946522
917.022431,148.041188,-1554.432478,-8810.098227
917.022751,1776.494261,-3404.947333,-10189.070123
917.023071,962.267725,-2294.638420,-9499.584175
917.023391,814.226536,-666.185348,-9882.631924
917.023711,2294.638420,1184.329507,-10495.508323
917.024031,3552.988522,2664.741391,-10112.460574
917.024351,2812.782580,2368.659014,-11184.994271
917.024671,814.226536,1776.494261,-10725.336972
917.024991,-666.185348,814.226536,-10265.679673
917.025311,444.123565,-296.082377,-10265.679673
917.025631,2664.741391,-1184.329507,-8810.098227
917.025951,2664.741391,-2220.617826,-10342.289223
917.026271,740.205942,-2072.576638,-9729.412825
917.026591,148.041188,-814.226536,-10035.851024
917.026911,1628.453072,1776.494261,-10265.679673
917.027230,2442.679609,2590.720797,-9959.241474
917.027550,3552.988522,2590.720797,-10112.460574
917.027870,2072.576638,740.205942,-9729.412825
917.028190,888.247130,1702.473667,-9729.412825
917.028510,666.185348,888.247130,-10955.165621
917.028830,814.226536,518.144159,-8963.317327
917.029150,2368.659014,962.267725,-10495.508323
917.029470,2368.659014,518.144159,-10035.851024
917.029790,814.226536,-1110.308913,-7124.688131
917.030110,-814.226536,-1406.391290,-9729.412825
917.030430,518.144159,-370.102971,-9346.365076
917.030750,1480.411884,-814.226536,-9882.631924
917.031070,2738.761985,-2146.597232,-9422.974625
917.031390,3552.988522,-1628.453072,-9039.926876
917.031710,222.061783,74.020594,-10189.070123
917.032030,-962.267725,1258.350101,-10112.460574
917.032350,518.144159,2368.659014,-10495.508323
917.032670,2886.803174,1554.432478,-11414.822920
917.032990,814.226536,740.205942,-10112.460574
917.033310,-2738.761985,-1036.288319,-11108.384721
917.033630,-2516.700203,-3404.947333,-9499.584175
917.033950,-2368.659014,-1776.494261,-9576.193725
917.034270,-888.247130,-962.267725,-11184.994271
917.034590,-888.247130,0.000000,-9959.241474
917.034910,-2516.700203,296.082377,-10342.289223
917.035230,-1702.473667,1480.411884,-10112.460574
917.035550,1036.288319,3330.926739,-10418.898773
917.035870,2220.617826,2368.659014,-11491.432470
917.036190,888.247130,1332.370696,-10342.289223
917.036510,-1850.514855,592.164754,-10265.679673
917.036830,-2516.700203,-1554.432478,-9729.412825
917.037150,-2664.741391,-1406.391290,-9422.974625
917.037470,-1480.411884,-148.041188,-10572.117872
917.037790,-2368.659014,962.267725,-9882.631924
917.038110,-1036.288319,296.082377,-9806.022374
917.038429,-1480.411884,1110.308913,-10955.165621
917.038749,-1480.411884,-222.061783,-9039.926876
917.039069,-296.082377,962.267725,-9959.241474
917.039389,1628.453072,1184.329507,-9806.022374
917.039709,2220.617826,1924.535449,-9576.193725
917.040029,3627.009116,2220.617826,-10801.946522
917.040349,2442.679609,148.041188,-9806.022374
917.040669,2220.617826,-888.247130,-9959.241474
917.040989,1554.432478,-2294.638420,-10418.898773
917.041309,296.082377,-1406.391290,-8963.317327
917.041629,0.000000,1258.350101,-10725.336972
917.041949,518.144159,2664.741391,-10035.851024
917.042269,1998.556043,2442.679609,-10725.336972
917.042589,4367.215058,1924.535449,-12257.527968
917.042909,3330.926739,592.164754,-9959.241474
917.043229,3034.844362,0.000000,-10495.508323
917.043549,4071.132681,666.185348,-10112.460574
917.043869,4959.379811,2664.741391,-10801.946522
917.044189,4811.338623,888.247130,-11261.603821
917.044509,2220.617826,1184.329507,-10189.070123
917.044829,962.267725,1850.514855,-10572.117872
917.045149,-296.082377,0.000000,-10342.289223
917.045469,1184.329507,0.000000,-9882.631924
917.045789,1110.308913,-888.247130,-10955.165621
917.046109,-1258.350101,-1554.432478,-9116.536426
917.046429,-1850.514855,-74.020594,-9193.145976
917.046749,-1258.350101,814.226536,-9806.022374
917.047069,0.000000,2072.576638,-9576.193725
917.047389,1924.535449,2812.782580,-10725.336972
917.047709,3330.926739,740.205942,-9499.584175
917.048029,2368.659014,-2072.576638,-9576.193725
917.048349,-962.267725,-2220.617826,-8427.050478
917.048669,-1036.288319,-1776.494261,-9499.584175
917.048989,2294.638420,0.000000,-9882.631924
917.049309,2664.741391,2146.597232,-9806.022374
917.049628,-814.226536,2220.617826,-9882.631924
917.049948,-3923.091493,-222.061783,-9806.022374
917.050268,-2664.741391,-2960.823768,-8886.707777
917.050588,0.000000,-1628.453072,-10342.289223
917.050908,666.185348,-1628.453072,-9652.803275
917.051228,-592.164754,0.000000,-9499.584175
917.051548,-2294.638420,888.247130,-10495.508323
917.051868,-1924.535449,666.185348,-10035.851024
917.052188,-1110.308913,2294.638420,-10725.336972
917.052508,-1184.329507,3108.864956,-11261.603821
917.052828,-2294.638420,2442.679609,-10572.117872
917.053148,-2738.761985,518.144159,-10801.946522
917.053468,-2442.679609,-1776.494261,-9729.412825
917.053788,-2368.659014,-2072.576638,-9806.022374
917.054108,4145.153275,-1702.473667,-10725.336972
917.054428,1702.473667,222.061783,-10189.070123
917.054748,-814.226536,1110.308913,-10648.727422
917.055068,-444.123565,1332.370696,-9806.022374
917.055388,3701.029710,2812.782580,-10418.898773
917.055708,518.144159,2812.782580,-10878.556072
917.056028,0.000000,2590.720797,-10418.898773
917.056348,1998.556043,370.102971,-11031.775171
917.056668,2590.720797,-2146.597232,-8810.098227
917.056988,3034.844362,-1924.535449,-9882.631924
917.057308,1480.411884,-2072.576638,-9806.022374
917.057628,148.041188,-1110.308913,-9346.365076
917.057948,-518.144159,370.102971,-9806.022374
917.058268,1110.308913,1406.391290,-9882.631924
917.058588,2146.597232,666.185348,-10265.679673
917.058908,4441.235652,-592.164754,-10495.508323
917.059228,3108.864956,0.000000,-9346.365076
917.059548,2442.679609,740.205942,-10648.727422
917.059868,518.144159,592.164754,-9729.412825
917.060188,2516.700203,-148.041188,-9652.803275
917.060508,3775.050304,-518.144159,-9882.631924
917.060827,2072.576638,-1406.391290,-9269.755526
917.061147,518.144159,-1258.350101,-9806.022374
917.061467,-740.205942,0.000000,-9422.974625
917.061787,888.247130,1998.556043,-9806.022374
917.062107,2960.823768,1702.473667,-10495.508323
917.062427,1850.514855,1554.432478,-10648.727422
917.062747,-1036.288319,666.185348,-9576.193725
917.063067,-2146.597232,-1332.370696,-9806.022374
917.063387,1332.370696,-518.144159,-9346.365076
917.063707,1998.556043,222.061783,-11261.603821
917.064027,1406.391290,0.000000,-12104.308868
917.064347,-1036.288319,1776.494261,-9652.803275
917.064667,-2886.803174,1924.535449,-10955.165621
917.064987,-814.226536,1110.308913,-9652.803275
917.065307,444.123565,0.000000,-11184.994271
917.065627,0.000000,-1184.329507,-10801.946522
917.065947,666.185348,-2072.576638,-9806.022374
917.066267,370.102971,-1258.350101,-10878.556072
917.066587,-666.185348,888.247130,-9959.241474
917.066907,-1776.494261,3256.906145,-10418.898773
917.067227,-1776.494261,3182.885551,-10878.556072
917.067547,-148.041188,2516.700203,-9882.631924
917.067867,962.267725,518.144159,-10801.946522
917.068187,-740.205942,-1110.308913,-10801.946522
917.068507,-2442.679609,-1036.288319,-9806.022374
917.068827,-2368.659014,-1184.329507,-9882.631924
917.069147,-1776.494261,-814.226536,-8963.317327
917.069467,-1406.391290,0.000000,-9652.803275
917.069787,0.000000,888.247130,-9959.241474
917.070107,1184.329507,2220.617826,-9959.241474
917.070427,1776.494261,3256.906145,-10725.336972
917.070747,-888.247130,2664.741391,-10035.851024
917.071067,-222.061783,444.123565,-9806.022374
917.071387,0.000000,-1554.432478,-9576.193725
917.071707,740.205942,-740.205942,-9422.974625
917.072026,1702.473667,962.267725,-10418.898773
917.072346,-370.102971,1036.288319,-9959.241474
917.072666,666.185348,888.247130,-10112.460574
917.072986,2294.638420,1554.432478,-9959.241474
917.073306,2960.823768,1850.514855,-10648.727422
917.073626,3775.050304,518.144159,-10418.898773
917.073946,2738.761985,0.000000,-8733.488677
917.074266,1184.329507,0.000000,-10342.289223
917.074586,1480.411884,740.205942,-10495.508323
917.074906,814.226536,1184.329507,-10265.679673
917.075226,1480.411884,666.185348,-10495.508323
917.075546,1406.391290,666.185348,-10035.851024
917.075866,1480.411884,740.205942,-9882.631924
917.076186,444.123565,0.000000,-10572.117872
917.076506,296.082377,370.102971,-9422.974625
917.076826,1480.411884,0.000000,-9729.412825
917.077146,3478.967927,-370.102971,-9729.412825
917.077466,2146.597232,-962.267725,-9806.022374
917.077786,518.144159,-1036.288319,-10265.679673
917.078106,370.102971,0.000000,-9806.022374
917.078426,1554.432478,444.123565,-9882.631924
917.078746,2442.679609,2664.741391,-10878.556072
917.079066,1406.391290,1924.535449,-9499.584175
917.079386,-296.082377,1110.308913,-10801.946522
917.079706,-1924.535449,-1258.350101,-9806.022374
917.080026,-370.102971,-3108.864956,-9193.145976
917.080346,1480.411884,-2516.700203,-10265.679673
917.080666,1480.411884,-370.102971,-9269.755526
917.080986,-296.082377,-148.041188,-9729.412825
917.081306,-2738.761985,370.102971,-9499.584175
917.081626,-2368.659014,592.164754,-9806.022374
917.081946,444.123565,-1036.288319,-10572.117872
917.082266,666.185348,-1850.514855,-9422.974625
917.082586,-1258.350101,-518.144159,-10189.070123
917.082906,-2072.576638,148.041188,-10112.460574
917.083226,-1406.391290,0.000000,-9576.193725
917.083545,-1554.432478,370.102971,-10342.289223
917.083865,-2886.803174,-296.082377,-9269.755526
917.084185,-1628.453072,-444.123565,-10112.460574
917.084505,-370.102971,-1184.329507,-9959.241474
917.084825,0.000000,-1036.288319,-10189.070123
917.085145,740.205942,0.000000,-10572.117872
917.085465,-888.247130,1258.350101,-9882.631924
917.085785,-1258.350101,1406.391290,-10035.851024
917.086105,518.144159,2516.700203,-10955.165621
917.086425,1258.350101,1036.288319,-10189.070123
917.086745,2146.597232,1998.556043,-11031.775171
917.087065,444.123565,-222.061783,-9959.241474
917.087385,-1406.391290,-518.144159,-9959.241474
917.087705,-2368.659014,-444.123565,-9959.241474
917.088025,-370.102971,222.061783,-9806.022374
917.088345,1554.432478,2294.638420,-10265.679673
917.088665,1258.350101,74.020594,-10112.460574
917.088985,2590.720797,666.185348,-10418.898773
917.089305,2590.720797,888.247130,-11031.775171
917.089625,1554.432478,1406.391290,-9806.022374
917.089945,888.247130,1702.473667,-9806.022374
917.090265,2664.741391,740.205942,-11031.775171
917.090585,2146.597232,148.041188,-9806.022374
917.090905,3034.844362,814.226536,-10572.117872
917.091225,3404.947333,1702.473667,-10648.727422
917.091545,5255.462188,3034.844362,-10418.898773
917.091865,4441.235652,3108.864956,-10572.117872
917.092185,666.185348,1184.329507,-10112.460574
917.092505,518.144159,-222.061783,-9422.974625
917.092825,74.020594,-1110.308913,-9729.412825
917.093145,1406.391290,-962.267725,-9422.974625
917.093465,2146.597232,-518.144159,-9652.803275
917.093785,2072.576638,1554.432478,-10035.851024
917.094105,2368.659014,1628.453072,-9422.974625
917.094425,2072.576638,2072.576638,-10112.460574
917.094744,1776.494261,2516.700203,-9959.241474
917.095064,1110.308913,1998.556043,-10342.289223
917.095384,-2146.597232,2368.659014,-9576.193725
917.095704,-1998.556043,-444.123565,-10035.851024
917.096024,-1332.370696,-2368.659014,-9116.536426
917.096344,-518.144159,-1480.411884,-9806.022374
917.096664,0.000000,-1036.288319,-10495.508323
917.096984,888.247130,1332.370696,-9882.631924
917.097304,0.000000,3923.091493,-10648.727422
917.097624,-1036.288319,2886.803174,-10648.727422
917.097944,-740.205942,1406.391290,-10112.460574
917.098264,-1850.514855,-222.061783,-12334.137518
917.098584,-518.144159,-2072.576638,-9806.022374
917.098904,0.000000,-592.164754,-10572.117872
917.099224,-1924.535449,-2664.741391,-10495.508323
917.099544,-2146.597232,-518.144159,-9652.803275
917.099864,-2960.823768,1850.514855,-10495.508323
917.100184,962.267725,2072.576638,-10801.946522
917.100504,-1480.411884,518.144159,-10342.289223
917.100824,-2368.659014,222.061783,-10648.727422
917.101144,-3478.967927,-1258.350101,-9269.755526
917.101464,-3108.864956,-1702.473667,-9499.584175
917.101784,962.267725,-2738.761985,-10035.851024
917.102104,962.267725,-1776.494261,-9806.022374
917.102424,666.185348,-296.082377,-9576.193725
917.102744,1332.370696,2442.679609,-10189.070123
917.103064,2368.659014,3997.112087,-10189.070123
917.103384,1184.329507,2738.761985,-11184.994271
917.103704,-1628.453072,814.226536,-9652.803275
917.104024,-2516.700203,-1924.535449,-9576.193725
917.104344,1184.329507,-2590.720797,-10035.851024
917.104664,1776.494261,-2516.700203,-9346.365076
917.104984,3108.864956,-2072.576638,-10112.460574
917.105304,1776.494261,-740.205942,-9882.631924
917.105624,1258.350101,962.267725,-10495.508323
917.105943,2812.782580,2072.576638,-10112.460574
917.106263,74.020594,3256.906145,-10112.460574
917.106583,1332.370696,3330.926739,-11108.384721
917.106903,3256.906145,370.102971,-10265.679673
917.107223,4145.153275,-2442.679609,-9882.631924
917.107543,2516.700203,-3701.029710,-10725.336972
917.107863,1776.494261,-2442.679609,-9729.412825
917.108183,2886.803174,-370.102971,-10955.165621
917.108503,3256.906145,3182.885551,-10648.727422
917.108823,1776.494261,5773.606348,-10418.898773
917.109143,444.123565,2886.803174,-11031.775171
917.109463,-740.205942,-1036.288319,-9882.631924
917.109783,1702.473667,-3775.050304,-9959.241474
917.110103,2738.761985,-2516.700203,-10648.727422
917.110423,296.082377,-2294.638420,-9576.193725
917.110743,1184.329507,1258.350101,-10801.946522
917.111063,1850.514855,2442.679609,-9729.412825
917.111383,2294.638420,3182.885551,-10418.898773
917.111703,2590.720797,2664.741391,-10112.460574
917.112023,1332.370696,74.020594,-10648.727422
917.112343,0.000000,-1258.350101,-9346.365076
917.112663,0.000000,-1628.453072,-9576.193725
917.112983,148.041188,-518.144159,-9576.193725
917.113303,-1110.308913,-1110.308913,-9499.584175
917.113623,-2442.679609,-518.144159,-9499.584175
917.113943,-1258.350101,962.267725,-9499.584175
917.114263,0.000000,2442.679609,-9729.412825
917.114583,1554.432478,3256.906145,-10572.117872
917.114903,666.185348,962.267725,-10189.070123
917.115223,-1998.556043,-296.082377,-9116.536426
917.115543,-3923.091493,-1628.453072,-9806.022374
917.115863,-1258.350101,-2294.638420,-9193.145976
917.116183,74.020594,-1480.411884,-9576.193725
917.116503,296.082377,-814.226536,-10418.898773
917.116822,0.000000,1406.391290,-10265.679673
917.117142,-296.082377,2516.700203,-10878.556072
917.117462,-1110.308913,3997.112087,-10648.727422
917.117782,-1554.432478,3701.029710,-10342.289223
917.118102,-3182.885551,518.144159,-9576.193725
917.118422,-2220.617826,-1924.535449,-9499.584175
917.118742,-1036.288319,-2664.741391,-10112.460574
917.119062,1258.350101,-2738.761985,-10035.851024
917.119382,3182.885551,-1036.288319,-9806.022374
917.119702,2812.782580,814.226536,-10955.165621
917.120022,444.123565,4367.215058,-10265.679673
917.120342,-2812.782580,4811.338623,-10035.851024
917.120662,-3997.112087,2664.741391,-10035.851024
917.120981,-2886.803174,-666.185348,-9116.536426
917.121301,1554.432478,-2072.576638,-10035.851024
917.121621,2738.761985,-2812.782580,-10035.851024
917.121941,2886.803174,-3034.844362,-9422.974625
917.122261,2442.679609,-148.041188,-10725.336972
917.122581,3627.009116,2738.761985,-9346.365076
917.122901,4145.153275,4737.318029,-11338.213370
917.123221,2664.741391,3552.988522,-10112.460574
917.123541,2072.576638,1850.514855,-10801.946522
917.123861,1184.329507,-740.205942,-10495.508323
917.124181,2146.597232,-2960.823768,-9806.022374
917.124501,740.205942,-3478.967927,-9806.022374
917.124821,962.267725,-2442.679609,-9959.241474
917.125141,1110.308913,1776.494261,-10035.851024
917.125460,3108.864956,3404.947333,-10418.898773
917.125780,4071.132681,3034.844362,-10418.898773
917.126100,2886.803174,1628.453072,-10035.851024
917.126420,2368.659014,-1184.329507,-10878.556072
917.126740,0.000000,-2220.617826,-8197.221829
917.127060,518.144159,-1036.288319,-9806.022374
917.127380,1998.556043,888.247130,-9576.193725
917.127700,2368.659014,888.247130,-9806.022374
917.128020,3108.864956,592.164754,-10572.117872
917.128340,1036.288319,518.144159,-9422.974625
917.128660,-962.267725,-2146.597232,-9499.584175
917.128980,-370.102971,-1036.288319,-9652.803275
917.129300,1110.308913,-666.185348,-9959.241474
917.129619,1110.308913,-1184.329507,-10265.679673
917.129939,-1850.514855,-222.061783,-9422.974625
917.130259,-2516.700203,1924.535449,-10418.898773
917.130579,-2368.659014,592.164754,-9882.631924
917.130899,-592.164754,296.082377,-10112.460574
917.131219,1184.329507,296.082377,-10342.289223
917.131539,592.164754,-888.247130,-10342.289223
917.131859,-1258.350101,-592.164754,-10112.460574
917.132179,-2886.803174,0.000000,-10495.508323
917.132499,-3701.029710,370.102971,-9959.241474
917.132819,-1110.308913,1258.350101,-10878.556072
917.133139,-296.082377,1036.288319,-9959.241474
917.133459,-1998.556043,-370.102971,-10418.898773
917.133779,-1776.494261,-370.102971,-10725.336972
917.134098,-740.205942,-592.164754,-9882.631924
917.134418,296.082377,0.000000,-10878.556072
917.134738,0.000000,0.000000,-9806.022374
917.135058,-2146.597232,1184.329507,-9806.022374
917.135378,-3330.926739,2294.638420,-10572.117872
917.135698,0.000000,1110.308913,-10035.851024
917.136018,5181.441594,1850.514855,-10265.679673
917.136338,2146.597232,-222.061783,-11414.822920
917.136658,-1628.453072,0.000000,-8810.098227
917.136978,-3256.906145,74.020594,-10418.898773
917.137298,1406.391290,592.164754,-9116.536426
917.137618,3701.029710,1110.308913,-9882.631924
917.137938,2368.659014,-518.144159,-10572.117872
917.138257,222.061783,1628.453072,-9499.584175
917.138577,1036.288319,1332.370696,-10878.556072
917.138897,2590.720797,1036.288319,-9422.974625
917.139217,2812.782580,1850.514855,-10572.117872
917.139537,1998.556043,148.041188,-9959.241474
917.139857,2960.823768,1258.350101,-9806.022374
917.140177,2294.638420,1332.370696,-10495.508323
917.140497,2294.638420,592.164754,-9422.974625
917.140817,0.000000,-814.226536,-9806.022374
917.141137,740.205942,-2368.659014,-9882.631924
917.141457,962.267725,-2294.638420,-9422.974625
917.141777,2664.741391,1332.370696,-10112.460574
917.142097,2960.823768,1702.473667,-10189.070123
917.142416,4589.276840,2738.761985,-10112.460574
917.142736,3330.926739,2442.679609,-11184.994271
917.143056,1554.432478,1924.535449,-10342.289223
917.143376,1554.432478,0.000000,-10112.460574
917.143696,814.226536,-962.267725,-10035.851024
917.144016,1628.453072,-592.164754,-9269.755526
917.144336,888.247130,-222.061783,-10495.508323
917.144656,-962.267725,518.144159,-10112.460574
917.144976,-444.123565,2146.597232,-10112.460574
917.145296,-888.247130,2590.720797,-10572.117872
917.145616,-148.041188,1110.308913,-10112.460574
917.145936,518.144159,-222.061783,-10035.851024
917.146256,962.267725,-962.267725,-10189.070123
917.146576,370.102971,-1184.329507,-8886.707777
917.146895,1110.308913,-814.226536,-11031.775171
917.147215,-222.061783,-444.123565,-9576.193725
917.147535,-1406.391290,666.185348,-10112.460574
917.147855,-1850.514855,-666.185348,-9499.584175
917.148175,-1998.556043,-1554.432478,-9576.193725
917.148495,-2368.659014,-222.061783,-10189.070123
917.148815,-1258.350101,-962.267725,-9959.241474
917.149135,296.082377,-1258.350101,-10342.289223
917.149455,-666.185348,-1554.432478,-9039.926876
917.149775,-2886.803174,-148.041188,-9576.193725
917.150095,-3330.926739,0.000000,-9806.022374
917.150415,-1924.535449,814.226536,-10572.117872
917.150735,0.000000,1184.329507,-10265.679673
917.151054,1998.556043,1776.494261,-11414.822920
917.151374,-592.164754,0.000000,-9806.022374
917.151694,-592.164754,-814.226536,-11338.213370
917.152014,-1332.370696,-592.164754,-10112.460574
917.152334,-1184.329507,-666.185348,-10572.117872
917.152654,-962.267725,-740.205942,-10342.289223
917.152974,-2072.576638,-148.041188,-9806.022374
917.153294,-666.185348,1258.350101,-10648.727422
917.153614,1406.391290,1036.288319,-10495.508323
917.153934,3108.864956,592.164754,-9882.631924
917.154254,2812.782580,370.102971,-10342.289223
917.154574,2294.638420,-74.020594,-10495.508323
917.154894,2368.659014,-814.226536,-9806.022374
917.155214,1406.391290,-1702.473667,-9499.584175
917.155533,814.226536,-444.123565,-9422.974625
917.155853,2368.659014,74.020594,-10035.851024
917.156173,4811.338623,0.000000,-9959.241474
917.156493,3849.070898,1110.308913,-9882.631924
917.156813,2516.700203,2294.638420,-11338.213370
917.157133,-222.061783,1850.514855,-9193.145976
917.157453,518.144159,1258.350101,-10035.851024
917.157773,1406.391290,-666.185348,-9499.584175
917.158093,1406.391290,-1850.514855,-9269.755526
917.158413,2146.597232,-1258.350101,-10035.851024
917.158733,2590.720797,-296.082377,-9806.022374
917.159053,2294.638420,1332.370696,-9959.241474
917.159373,2516.700203,2812.782580,-10648.727422
917.159692,2442.679609,3034.844362,-9806.022374
917.160012,2812.782580,2220.617826,-10572.117872
917.160332,3034.844362,0.000000,-9806.022374
917.160652,4219.173869,-814.226536,-10495.508323
917.160972,1850.514855,370.102971,-10418.898773
917.161292,0.000000,2294.638420,-10265.679673
917.161612,-296.082377,2886.803174,-10801.946522
917.161932,-148.041188,1998.556043,-9806.022374
917.162252,-1628.453072,888.247130,-11108.384721
917.162572,-1924.535449,-592.164754,-10878.556072
917.162892,-1480.411884,-592.164754,-9729.412825
917.163212,-1184.329507,444.123565,-9729.412825
917.163532,-1036.288319,1480.411884,-10035.851024
917.163852,-1036.288319,1332.370696,-9806.022374
917.164171,148.041188,-962.267725,-10112.460574
917.164491,-814.226536,-1850.514855,-9269.755526
917.164811,0.000000,-1628.453072,-9882.631924
917.165131,-1036.288319,-370.102971,-9499.584175
917.165451,-1332.370696,1332.370696,-10189.070123
917.165771,-888.247130,2960.823768,-10725.336972
917.166091,-2516.700203,2220.617826,-9882.631924
917.166411,-3701.029710,444.123565,-9882.631924
917.166731,-2886.803174,-1850.514855,-10878.556072
917.167051,-666.185348,-1332.370696,-10189.070123
917.167371,370.102971,222.061783,-10035.851024
917.167691,-1258.350101,1480.411884,-10035.851024
917.168011,-370.102971,2738.761985,-9576.193725
917.168330,370.102971,2590.720797,-11568.042020
917.168650,666.185348,1110.308913,-10418.898773
917.168970,370.102971,518.144159,-10572.117872
917.169290,0.000000,-740.205942,-9806.022374
917.169610,1850.514855,370.102971,-9806.022374
917.169930,2886.803174,1332.370696,-11031.775171
917.170250,2368.659014,1628.453072,-10342.289223
917.170570,1850.514855,592.164754,-10648.727422
917.170890,1702.473667,370.102971,-9882.631924
917.171210,2072.576638,0.000000,-10265.679673
917.171530,1850.514855,222.061783,-10572.117872
917.171850,2590.720797,518.144159,-9882.631924
917.172170,3775.050304,1332.370696,-10648.727422
917.172490,3256.906145,222.061783,-10035.851024
917.172809,1998.556043,962.267725,-9806.022374
917.173129,1480.411884,962.267725,-10112.460574
917.173449,666.185348,888.247130,-9882.631924
917.173769,2294.638420,-444.123565,-10342.289223
917.174089,1480.411884,-1776.494261,-9806.022374
917.174409,444.123565,-1406.391290,-8963.317327
917.174729,740.205942,-518.144159,-9806.022374
917.175049,2294.638420,-370.102971,-9269.755526
917.175369,4441.235652,444.123565,-9882.631924
917.175689,2886.803174,0.000000,-10035.851024
917.176009,370.102971,-370.102971,-8963.317327
917.176329,-666.185348,-1406.391290,-9959.241474
917.176649,0.000000,-1406.391290,-8656.879127
917.176968,370.102971,-222.061783,-9806.022374
917.177288,0.000000,-296.082377,-9806.022374
917.177608,-296.082377,814.226536,-9729.412825
917.177928,-962.267725,-592.164754,-10418.898773
917.178248,-1776.494261,-2220.617826,-9576.193725
917.178568,-1036.288319,-2294.638420,-9729.412825
917.178888,518.144159,-1110.308913,-10495.508323
917.179208,740.205942,444.123565,-10265.679673
917.179528,-666.185348,2590.720797,-10495.508323
917.179848,-1554.432478,2368.659014,-11031.775171
917.180168,740.205942,1998.556043,-10725.336972
917.180488,740.205942,888.247130,-11184.994271
917.180808,-2960.823768,666.185348,-10955.165621
917.181128,-4071.132681,592.164754,-10112.460574
917.181447,-2738.761985,-740.205942,-10418.898773
917.181767,-296.082377,-962.267725,-10265.679673
917.182087,-222.061783,-1628.453072,-10725.336972
917.182407,-2960.823768,-740.205942,-9729.412825
917.182727,-2442.679609,592.164754,-9806.022374
917.183047,-1184.329507,2664.741391,-10035.851024
917.183367,1258.350101,2590.720797,-9806.022374
917.183687,2368.659014,1554.432478,-10725.336972
917.184007,-666.185348,-1406.391290,-9959.241474
917.184327,-1924.535449,-1628.453072,-9499.584175
917.184647,-1184.329507,-592.164754,-9882.631924
917.184967,2442.679609,-148.041188,-9652.803275
917.185287,3701.029710,1332.370696,-10035.851024
917.185606,740.205942,1332.370696,-10495.508323
917.185926,-1406.391290,888.247130,-9729.412825
917.186246,-1406.391290,592.164754,-9806.022374
917.186566,1406.391290,296.082377,-8963.317327
917.186886,3256.906145,1036.288319,-10265.679673
917.187206,3404.947333,518.144159,-9806.022374
917.187526,1776.494261,1036.288319,-9576.193725
917.187846,1258.350101,1036.288319,-10418.898773
917.188166,962.267725,740.205942,-9882.631924
917.188486,2664.741391,-444.123565,-10035.851024
917.188806,2516.700203,-1406.391290,-9806.022374
917.189126,1480.411884,-1184.329507,-8886.707777
917.189446,370.102971,296.082377,-10801.946522
917.189766,592.164754,1110.308913,-9806.022374
917.190085,2442.679609,3923.091493,-10801.946522
917.190405,3552.988522,4145.153275,-11108.384721
917.190725,3034.844362,3552.988522,-11108.384721
917.191045,2442.679609,1110.308913,-11721.261119
917.191365,1924.535449,0.000000,-9882.631924
917.191685,2072.576638,74.020594,-9806.022374
917.192005,2664.741391,0.000000,-10648.727422
917.192325,1110.308913,-148.041188,-9806.022374
917.192645,-1258.350101,444.123565,-9959.241474
917.192965,296.082377,1110.308913,-9959.241474
917.193285,3330.926739,1628.453072,-10265.679673
917.193605,2812.782580,1480.411884,-10572.117872
917.193925,888.247130,666.185348,-10342.289223
917.194244,-1998.556043,592.164754,-9806.022374
917.194564,-666.185348,0.000000,-9806.022374
917.194884,1036.288319,-666.185348,-9422.974625
917.195204,1998.556043,-518.144159,-10112.460574
917.195524,-666.185348,-148.041188,-10112.460574
917.195844,-2664.741391,-148.041188,-9576.193725
917.196164,-2812.782580,814.226536,-10112.460574
917.196484,-1776.494261,666.185348,-9346.365076
917.196804,74.020594,666.185348,-10495.508323
917.197124,-888.247130,-1184.329507,-10112.460574
917.197444,-2590.720797,-592.164754,-8810.098227
917.197764,-3627.009116,74.020594,-9806.022374
917.198084,-740.205942,-740.205942,-9959.241474
917.198404,1036.288319,-592.164754,-10572.117872
917.198723,962.267725,296.082377,-10648.727422
917.199043,-1850.514855,1776.494261,-8886.707777
917.199363,-3478.967927,3256.906145,-10572.117872
917.199683,-1554.432478,592.164754,-9959.241474
917.200003,1406.391290,-2072.576638,-9729.412825
917.200323,740.205942,-5773.606348,-9576.193725
917.200643,-2146.597232,-4811.338623,-9652.803275
917.200963,-2886.803174,-1480.411884,-10112.460574
917.201283,-2072.576638,2368.659014,-10878.556072
917.201603,0.000000,5107.421000,-10955.165621
917.201923,222.061783,4737.318029,-11491.432470
917.202243,-1110.308913,1628.453072,-9269.755526
917.202563,-1184.329507,-1332.370696,-10342.289223
917.202882,1702.473667,-2442.679609,-10342.289223
917.203202,3997.112087,-2812.782580,-10495.508323
917.203522,4367.215058,-1480.411884,-11031.775171
917.203842,1036.288319,-518.144159,-10189.070123
917.204162,-518.144159,1628.453072,-10495.508323
917.204482,-296.082377,3182.885551,-11031.775171
917.204802,2516.700203,1702.473667,-10112.460574
917.205122,5329.482782,888.247130,-12104.308868
917.205442,4811.338623,-962.267725,-9882.631924
917.205762,3108.864956,-1998.556043,-9806.022374
917.206082,1702.473667,-444.123565,-10035.851024
917.206402,2368.659014,222.061783,-9806.022374
917.206722,2738.761985,2368.659014,-11184.994271
917.207042,2220.617826,1406.391290,-10189.070123
917.207361,444.123565,148.041188,-9269.755526
917.207681,0.000000,-2072.576638,-9806.022374
917.208001,2442.679609,-2442.679609,-9346.365076
917.208321,2442.679609,-962.267725,-9729.412825
917.208641,3404.947333,-1406.391290,-9729.412825
917.208961,2146.597232,148.041188,-8963.317327
917.209281,1406.391290,2664.741391,-10648.727422
917.209601,1110.308913,2368.659014,-9499.584175
917.209921,2442.679609,2442.679609,-10418.898773
917.210241,4441.235652,888.247130,-10342.289223
917.210561,2886.803174,-444.123565,-10112.460574
917.210881,-2368.659014,-740.205942,-9959.241474
917.211201,-3923.091493,-444.123565,-9499.584175
917.211520,-2368.659014,1036.288319,-9499.584175
917.211840,1332.370696,2146.597232,-11261.603821
917.212160,1406.391290,592.164754,-10189.070123
917.212480,-1554.432478,74.020594,-9882.631924
917.212800,-3034.844362,-666.185348,-10112.460574
917.213120,-888.247130,0.000000,-9652.803275
917.213440,2294.638420,1628.453072,-11108.384721
917.213760,444.123565,2516.700203,-10801.946522
917.214080,-2294.638420,3256.906145,-10265.679673
917.214400,-1702.473667,2738.761985,-10572.117872
917.214720,-296.082377,1332.370696,-10112.460574
917.215040,1184.329507,-1110.308913,-11338.213370
917.215360,-2146.597232,-1776.494261,-9729.412825
917.215680,-5033.400406,-1036.288319,-9959.241474
917.215999,-4589.276840,1036.288319,-9576.193725
917.216319,-962.267725,1184.329507,-9652.803275
917.216639,1036.288319,1776.494261,-10112.460574
917.216959,740.205942,1110.308913,-10265.679673
917.217279,148.041188,74.020594,-9576.193725
917.217599,0.000000,370.102971,-9729.412825
917.217919,888.247130,518.144159,-9576.193725
917.218239,1776.494261,666.185348,-10189.070123
917.218559,2368.659014,592.164754,-10189.070123
917.218879,-518.144159,1702.473667,-9652.803275
917.219199,-3478.967927,1554.432478,-9806.022374
917.219519,-2220.617826,814.226536,-9652.803275
917.219839,1406.391290,518.144159,-9882.631924
917.220159,2960.823768,-962.267725,-10035.851024
917.220479,1406.391290,-1480.411884,-9806.022374
917.220798,666.185348,-1258.350101,-9652.803275
917.221118,2738.761985,0.000000,-10342.289223
917.221438,4737.318029,3701.029710,-10801.946522
917.221758,3627.009116,4441.235652,-10725.336972
917.222078,1776.494261,2886.803174,-10265.679673
917.222398,740.205942,0.000000,-10572.117872
917.222718,370.102971,-2294.638420,-9576.193725
917.223038,1480.411884,-2516.700203,-10418.898773
917.223358,2368.659014,-2368.659014,-10189.070123
917.223678,1406.391290,222.061783,-10035.851024
917.223998,-1184.329507,1480.411884,-10495.508323
917.224318,74.020594,2368.659014,-9959.241474
917.224638,2072.576638,2812.782580,-10495.508323
917.224958,3701.029710,814.226536,-10648.727422
917.225278,2220.617826,-1998.556043,-9576.193725
917.225598,518.144159,-1702.473667,-9882.631924
917.225918,1406.391290,-1258.350101,-9729.412825
917.226238,3330.926739,-444.123565,-9806.022374
917.226558,4071.132681,74.020594,-10112.460574
917.226877,1924.535449,1406.391290,-10572.117872
917.227197,-888.247130,1850.514855,-10418.898773
917.227517,-1850.514855,2294.638420,-10342.289223
917.227837,-1258.350101,2220.617826,-9346.365076
917.228157,888.247130,-1332.370696,-10112.460574
917.228477,1554.432478,-3256.906145,-9882.631924
917.228797,1480.411884,-4441.235652,-9499.584175
917.229117,370.102971,-2960.823768,-9346.365076
917.229437,1406.391290,1258.350101,-9346.365076
917.229757,2072.576638,2368.659014,-10725.336972
917.230077,444.123565,2368.659014,-9959.241474
917.230397,-1850.514855,-222.061783,-9806.022374
917.230717,-1258.350101,-1776.494261,-9346.365076
917.231037,-1332.370696,-2812.782580,-9269.755526
917.231357,-2664.741391,-1628.453072,-10265.679673
917.231677,-4293.194464,-1184.329507,-9346.365076
917.231997,-5551.544565,-444.123565,-10112.460574
917.232317,-4367.215058,0.000000,-9806.022374
917.232637,-2812.782580,-1554.432478,-8733.488677
917.232956,-1850.514855,-592.164754,-9806.022374
917.233276,-2368.659014,592.164754,-10495.508323
917.233596,-1702.473667,1110.308913,-9806.022374
917.233916,814.226536,518.144159,-10878.556072
917.234236,2738.761985,-814.226536,-10035.851024
917.234556,3627.009116,370.102971,-10648.727422
917.234876,1628.453072,962.267725,-11414.822920
917.235196,-518.144159,4219.173869,-10189.070123
917.235516,-1258.350101,5033.400406,-12027.699319
917.235836,-222.061783,3108.864956,-10801.946522
917.236156,1110.308913,370.102971,-10648.727422
917.236476,2738.761985,-592.164754,-10878.556072
917.236796,1702.473667,-1628.453072,-10265.679673
917.237116,444.123565,370.102971,-10955.165621
917.237436,0.000000,1776.494261,-10955.165621
917.237756,1628.453072,4441.235652,-10265.679673
917.238076,3108.864956,4367.215058,-11644.651570
917.238396,4145.153275,2368.659014,-10495.508323
917.238715,3552.988522,666.185348,-10342.289223
917.239035,2516.700203,518.144159,-10112.460574
917.239355,4071.132681,518.144159,-9652.803275
917.239675,4959.379811,444.123565,-10495.508323
917.239995,3701.029710,-1184.329507,-9269.755526
917.240315,1258.350101,-2442.679609,-8733.488677
917.240635,814.226536,-1110.308913,-9499.584175
917.240955,1332.370696,592.164754,-9422.974625
917.241275,2812.782580,3330.926739,-9882.631924
917.241595,3404.947333,2664.741391,-10189.070123
917.241915,3552.988522,0.000000,-8963.317327
917.242235,2812.782580,-1702.473667,-9806.022374
917.242555,-148.041188,-1332.370696,-8503.660028
917.242875,-666.185348,1702.473667,-9729.412825
917.243195,1554.432478,2960.823768,-10189.070123
917.243515,2294.638420,2960.823768,-9959.241474
917.243835,1036.288319,2072.576638,-10112.460574
917.244155,-1110.308913,0.000000,-9576.193725
917.244475,-2368.659014,0.000000,-10035.851024
917.244794,-296.082377,148.041188,-10495.508323
917.245114,-518.144159,444.123565,-9652.803275
917.245434,-1628.453072,1036.288319,-10495.508323
917.245754,-1776.494261,444.123565,-9882.631924
917.246074,-444.123565,1776.494261,-10572.117872
917.246394,2812.782580,2442.679609,-10878.556072
917.246714,2886.803174,4145.153275,-10725.336972
917.247034,296.082377,3034.844362,-11491.432470
917.247354,-2812.782580,2072.576638,-10725.336972
917.247674,-4293.194464,518.144159,-10418.898773
917.247994,-3256.906145,-888.247130,-10572.117872
917.248314,-2812.782580,-1850.514855,-9729.412825
917.248634,-2442.679609,-1258.350101,-10112.460574
917.248954,-814.226536,-962.267725,-10189.070123
917.249274,74.020594,296.082377,-9499.584175
917.249594,1702.473667,518.144159,-10418.898773
917.249914,2664.741391,1702.473667,-9806.022374
917.250234,3330.926739,2886.803174,-9422.974625
917.250554,1850.514855,2664.741391,-10112.460574
917.250873,444.123565,1184.329507,-9116.536426
917.251193,2294.638420,740.205942,-10035.851024
917.251513,2812.782580,370.102971,-9116.536426
917.251833,2072.576638,296.082377,-9116.536426
917.252153,814.226536,0.000000,-9576.193725
917.252473,1036.288319,74.020594,-9193.145976
917.252793,1406.391290,888.247130,-9729.412825
917.253113,2886.803174,1480.411884,-10112.460574
917.253433,2220.617826,1258.350101,-8733.488677
917.253753,2294.638420,2664.741391,-10955.165621
917.254073,4811.338623,3108.864956,-10418.898773
917.254393,5625.565159,4441.235652,-10035.851024
917.254713,7328.038826,4293.194464,-11721.261119
917.255033,7179.997637,2960.823768,-10112.460574
917.255353,4219.173869,1850.514855,-10572.117872
917.255673,1258.350101,1332.370696,-10955.165621
917.255993,2146.597232,740.205942,-9729.412825
917.256313,2886.803174,1332.370696,-10801.946522
917.256633,3034.844362,1406.391290,-10112.460574
917.256952,3552.988522,814.226536,-10418.898773
917.257272,2886.803174,2590.720797,-11108.384721
917.257592,4293.194464,3404.947333,-10648.727422
917.257912,4589.276840,5255.462188,-10725.336972
917.258232,4515.256246,5477.523971,-11721.261119
917.258552,4959.379811,4145.153275,-10648.727422
917.258872,5255.462188,3108.864956,-10035.851024
917.259192,3330.926739,4145.153275,-11568.042020
917.259512,1406.391290,5255.462188,-10035.851024
917.259832,-962.267725,4367.215058,-9729.412825
917.260152,1258.350101,3701.029710,-9959.241474
917.260472,2886.803174,1110.308913,-8733.488677
917.260792,1998.556043,-962.267725,-9806.022374
917.261112,814.226536,-1036.288319,-8963.317327
917.261432,1480.411884,148.041188,-9039.926876
917.261752,2812.782580,2368.659014,-9193.145976
917.262072,3701.029710,5403.503377,-9039.926876
917.262392,4219.173869,5551.544565,-9959.241474
917.262711,3997.112087,4145.153275,-9806.022374
917.263031,3108.864956,2516.700203,-9806.022374
917.263351,2368.659014,1628.453072,-10189.070123
917.263671,962.267725,2072.576638,-9806.022374
917.263991,-370.102971,1628.453072,-10112.460574
917.264311,-222.061783,1776.494261,-10265.679673
917.264631,592.164754,2146.597232,-10112.460574
917.264951,-592.164754,2442.679609,-11568.042020
917.265271,0.000000,4219.173869,-10342.289223
917.265591,2368.659014,3775.050304,-10878.556072
917.265911,4071.132681,4737.318029,-11108.384721
917.266231,2516.700203,3701.029710,-10648.727422
917.266551,814.226536,3108.864956,-10418.898773
917.266871,-370.102971,2220.617826,-10572.117872
917.267191,74.020594,2886.803174,-10418.898773
917.267511,814.226536,3404.947333,-10572.117872
917.267831,1628.453072,4145.153275,-10801.946522
917.268151,592.164754,3997.112087,-10418.898773
917.268471,-740.205942,2664.741391,-10342.289223
917.268790,370.102971,2368.659014,-9806.022374
917.269110,1776.494261,2294.638420,-10495.508323
917.269430,3256.906145,2072.576638,-10418.898773
917.269750,2368.659014,1406.391290,-10035.851024
917.270070,1332.370696,1110.308913,-9652.803275
917.270390,3256.906145,1998.556043,-9882.631924
917.270710,4145.153275,3182.885551,-10035.851024
917.271030,2516.700203,3775.050304,-9959.241474
917.271350,962.267725,3552.988522,-9116.536426
917.271670,2812.782580,2072.576638,-9729.412825
917.271990,5403.503377,814.226536,-9729.412825
917.272310,5329.482782,-814.226536,-9422.974625
917.272630,2516.700203,-296.082377,-9346.365076
917.272950,2368.659014,444.123565,-9499.584175
917.273270,3775.050304,1924.535449,-9806.022374
917.273590,3923.091493,3478.967927,-9806.022374
917.273910,2220.617826,3997.112087,-9806.022374
917.274230,3478.967927,3330.926739,-10035.851024
917.274550,6587.832884,1776.494261,-10648.727422
917.274869,7105.977043,1332.370696,-10418.898773
917.275189,4293.194464,2738.761985,-10801.946522
917.275509,1924.535449,4219.173869,-10342.289223
917.275829,1702.473667,5847.626942,-10725.336972
917.276149,2738.761985,6143.709319,-11338.213370
917.276469,2516.700203,5255.462188,-11108.384721
917.276789,1036.288319,3034.844362,-10725.336972
917.277109,2146.597232,1554.432478,-10495.508323
917.277429,2960.823768,296.082377,-10112.460574
917.277749,4219.173869,296.082377,-10495.508323
917.278069,2072.576638,1702.473667,-10265.679673
917.278389,444.123565,2812.782580,-10418.898773
917.278709,962.267725,4071.132681,-10265.679673
917.279029,2442.679609,4515.256246,-10035.851024
917.279349,4145.153275,3552.988522,-10725.336972
917.279669,4367.215058,2664.741391,-10418.898773
917.279989,2590.720797,1776.494261,-10112.460574
917.280309,518.144159,888.247130,-9652.803275
917.280629,-592.164754,296.082377,-8044.002729
917.280948,296.082377,0.000000,-9422.974625
917.281268,1628.453072,74.020594,-9652.803275
917.281588,1332.370696,888.247130,-9499.584175
917.281908,-740.205942,1776.494261,-9652.803275
917.282228,0.000000,2664.741391,-9116.536426
917.282548,1924.535449,3404.947333,-9729.412825
917.282868,4293.194464,3256.906145,-10189.070123
917.283188,5107.421000,2072.576638,-9422.974625
917.283508,3330.926739,1924.535449,-10418.898773
917.283828,814.226536,1406.391290,-9882.631924
917.284148,-888.247130,1628.453072,-9729.412825
917.284468,-1110.308913,2146.597232,-10035.851024
917.284788,296.082377,1406.391290,-9806.022374
917.285108,1554.432478,740.205942,-9806.022374
917.285428,2664.741391,1036.288319,-10801.946522
917.285748,3701.029710,2960.823768,-10801.946522
917.286068,3478.967927,4885.359217,-10955.165621
917.286388,2442.679609,5625.565159,-10648.727422
917.286707,3256.906145,4071.132681,-10189.070123
917.287027,4441.235652,1554.432478,-10878.556072
917.287347,4071.132681,0.000000,-10495.508323
917.287667,2516.700203,444.123565,-9882.631924
917.287987,2220.617826,2368.659014,-10572.117872
917.288307,2590.720797,3923.091493,-10342.289223
917.288627,1184.329507,4367.215058,-10495.508323
917.288947,666.185348,3034.844362,-9959.241474
917.289267,1480.411884,1554.432478,-9499.584175
917.289587,3182.885551,222.061783,-10265.679673
917.289907,4663.297435,592.164754,-9882.631924
917.290227,4589.276840,2442.679609,-9959.241474
917.290547,4885.359217,4071.132681,-9652.803275
917.290867,5551.544565,4811.338623,-9729.412825
917.291187,3849.070898,5181.441594,-10035.851024
917.291507,1406.391290,4515.256246,-10112.460574
917.291827,0.000000,2812.782580,-9576.193725
917.292147,1110.308913,444.123565,-9269.755526
917.292467,2368.659014,-1036.288319,-9269.755526
917.292786,2368.659014,-1406.391290,-9269.755526
917.293106,2220.617826,222.061783,-9269.755526
917.293426,3034.844362,3256.906145,-9652.803275
917.293746,5329.482782,6291.750507,-10112.460574
917.294066,6217.729913,7179.997637,-10418.898773
917.294386,5107.421000,6291.750507,-10648.727422
917.294706,2960.823768,3701.029710,-10572.117872
917.295026,814.226536,1628.453072,-10035.851024
917.295346,-1110.308913,148.041188,-10112.460574
917.295666,-1554.432478,222.061783,-9806.022374
917.295986,-222.061783,666.185348,-9959.241474
917.296306,740.205942,1776.494261,-11184.994271
917.296626,1332.370696,3256.906145,-10418.898773
917.296946,2812.782580,4737.318029,-10725.336972
917.297266,4737.318029,6069.688724,-10878.556072
917.297586,6439.791695,6217.729913,-10878.556072
917.297906,5329.482782,5773.606348,-10801.946522
917.298226,3478.967927,4071.132681,-10572.117872
917.298546,1702.473667,2812.782580,-10342.289223
917.298865,666.185348,2812.782580,-10265.679673
917.299185,518.144159,1998.556043,-10265.679673
917.299505,-1332.370696,2516.700203,-9959.241474
917.299825,-2220.617826,1924.535449,-9882.631924
917.300145,-2146.597232,814.226536,-9422.974625
917.300465,-962.267725,222.061783,-9193.145976
917.300785,1184.329507,592.164754,-9346.365076
917.301105,3404.947333,1554.432478,-9499.584175
917.301425,5403.503377,3034.844362,-9499.584175
917.301745,6513.812290,4219.173869,-9806.022374
917.302065,5033.400406,5181.441594,-10189.070123
917.302385,3923.091493,5403.503377,-10572.117872
917.302705,2220.617826,4737.318029,-10265.679673
917.303025,814.226536,3478.967927,-10342.289223
917.303345,148.041188,1628.453072,-9806.022374
917.303665,-222.061783,0.000000,-9499.584175
917.303985,-888.247130,-222.061783,-9729.412825
917.304305,-1036.288319,74.020594,-9576.193725
917.304625,0.000000,1554.432478,-9652.803275
917.304944,2516.700203,3108.864956,-11031.775171
917.305264,4885.359217,3997.112087,-10418.898773
917.305584,6439.791695,4145.153275,-10572.117872
917.305904,7031.956449,3627.009116,-10878.556072
917.306224,5921.647536,2368.659014,-10572.117872
917.306544,3701.029710,1702.473667,-10342.289223
917.306864,666.185348,1554.432478,-10112.460574
917.307184,-740.205942,1184.329507,-9806.022374
917.307504,-1036.288319,740.205942,-10189.070123
917.307824,-370.102971,74.020594,-10112.460574
917.308144,148.041188,-222.061783,-10265.679673
917.308464,962.267725,-222.061783,-9959.241474
917.308784,1998.556043,962.267725,-9959.241474
917.309104,3404.947333,2590.720797,-10265.679673
917.309424,4737.318029,3923.091493,-10572.117872
917.309744,4959.379811,4367.215058,-10495.508323
917.310064,4515.256246,4293.194464,-10495.508323
917.310384,3627.009116,3256.906145,-10418.898773
917.310704,2368.659014,2368.659014,-10112.460574
917.311023,1184.329507,1110.308913,-10112.460574
917.311343,370.102971,370.102971,-9729.412825
917.311663,518.144159,444.123565,-9729.412825
917.311983,1406.391290,814.226536,-8886.707777
917.312303,2072.576638,1480.411884,-9806.022374
917.312623,2516.700203,2072.576638,-9882.631924
917.312943,3701.029710,3552.988522,-10035.851024
917.313263,5551.544565,4145.153275,-10035.851024
917.313583,7476.080014,4589.276840,-10035.851024
917.313903,7254.018232,4663.297435,-10418.898773
917.314223,6069.688724,4959.379811,-10801.946522
917.314543,3627.009116,5033.400406,-10495.508323
917.314863,592.164754,5107.421000,-10035.851024
917.315183,-1850.514855,2738.761985,-9806.022374
917.315503,-1776.494261,518.144159,-9576.193725
917.315823,-666.185348,-1036.288319,-9346.365076
917.316143,740.205942,-1258.350101,-9499.584175
917.316463,1924.535449,444.123565,-9729.412825
917.316782,3701.029710,3404.947333,-9959.241474
917.317102,5625.565159,6291.750507,-10265.679673
917.317422,6661.853478,8142.265362,-10801.946522
917.317742,7105.977043,7179.997637,-10878.556072
917.318049,4959.379811,6439.791695,-10495.508323
917.318369,4071.132681,4293.194464,-10572.117872
917.318689,3108.864956,2960.823768,-10495.508323
917.319009,888.247130,2368.659014,-9652.803275
917.319329,-2072.576638,2368.659014,-9729.412825
917.319649,-3775.050304,2664.741391,-9576.193725
917.319969,-2664.741391,2664.741391,-9576.193725
917.320289,-592.164754,2146.597232,-9806.022374
917.320609,1702.473667,1702.473667,-9193.145976
917.320929,2886.803174,1628.453072,-9959.241474
917.321249,3256.906145,3034.844362,-9729.412825
917.321569,4367.215058,4663.297435,-9806.022374
917.321889,5477.523971,6513.812290,-9806.022374
917.322209,6291.750507,6883.915261,-10495.508323
917.322529,5329.482782,5255.462188,-10725.336972
917.322849,1924.535449,3478.967927,-10495.508323
917.323169,-2146.597232,2072.576638,-9806.022374
917.323489,-2886.803174,740.205942,-9729.412825
917.323809,-1924.535449,0.000000,-9269.755526
917.324129,-888.247130,0.000000,-9269.755526
917.324449,0.000000,0.000000,-9269.755526
917.324769,2072.576638,1184.329507,-9346.365076
917.325089,5107.421000,3478.967927,-9959.241474
917.325409,7254.018232,5625.565159,-10495.508323
917.325729,7105.977043,7105.977043,-10495.508323
917.326049,5847.626942,6735.874072,-10725.336972
917.326369,4293.194464,4737.318029,-11338.213370
917.326689,2590.720797,2072.576638,-10189.070123
917.327009,888.247130,0.000000,-9652.803275
917.327329,592.164754,-1036.288319,-10035.851024
917.327649,962.267725,-1110.308913,-9499.584175
917.327969,74.020594,74.020594,-9806.022374
917.328289,-592.164754,1850.514855,-10112.460574
917.328609,740.205942,3034.844362,-10189.070123
917.328929,3849.070898,3478.967927,-10265.679673
917.329249,6069.688724,3182.885551,-10495.508323
917.329569,7254.018232,2664.741391,-10265.679673
917.329889,7105.977043,3034.844362,-10725.336972
917.330209,5625.565159,3552.988522,-10572.117872
917.330529,3478.967927,4441.235652,-11031.775171
917.330849,740.205942,3256.906145,-10418.898773
917.331169,222.061783,814.226536,-9806.022374
917.331489,296.082377,-444.123565,-10265.679673
917.331809,0.000000,-1110.308913,-10955.165621
917.332129,-740.205942,-592.164754,-9882.631924
917.332449,-444.123565,666.185348,-9882.631924
917.332769,1554.432478,1702.473667,-10035.851024
917.333089,3849.070898,1850.514855,-9806.022374
917.333409,5551.544565,2294.638420,-10112.460574
917.333729,6513.812290,2516.700203,-10725.336972
917.334049,5847.626942,3775.050304,-10418.898773
917.334369,3108.864956,4737.318029,-10572.117872
917.334688,2072.576638,4367.215058,-9959.241474
917.335008,814.226536,2960.823768,-9806.022374
917.335328,-1776.494261,962.267725,-10112.460574
917.335648,-4219.173869,-1110.308913,-9422.974625
917.335968,-5403.503377,-2294.638420,-9193.145976
917.336288,-2738.761985,-2220.617826,-9193.145976
917.336608,2294.638420,-1702.473667,-9346.365076
917.336928,5403.503377,518.144159,-9882.631924
917.337248,5181.441594,2738.761985,-10418.898773
917.337568,4219.173869,4737.318029,-8963.317327
917.337888,4737.318029,6291.750507,-10725.336972
917.338208,6439.791695,6661.853478,-11338.213370
917.338528,5625.565159,6217.729913,-11108.384721
917.338848,2220.617826,4293.194464,-11108.384721
917.339168,-888.247130,2812.782580,-10035.851024
917.339488,-2442.679609,1406.391290,-10112.460574
917.339808,-1924.535449,962.267725,-10342.289223
917.340128,-814.226536,444.123565,-9499.584175
917.340448,296.082377,1258.350101,-9652.803275
917.340768,3182.885551,1184.329507,-9499.584175
917.341088,6069.688724,2738.761985,-9882.631924
917.341408,6957.935855,4515.256246,-10725.336972
917.341728,6217.729913,5995.668130,-10342.289223
917.342048,5255.462188,6735.874072,-10112.460574
917.342368,6069.688724,5773.606348,-10189.070123
917.342688,6143.709319,3849.070898,-9882.631924
917.343008,4589.276840,2442.679609,-9806.022374
917.343328,1850.514855,518.144159,-9422.974625
917.343648,-814.226536,962.267725,-8963.317327
917.343968,-2220.617826,740.205942,-9499.584175
917.344288,-2590.720797,296.082377,-8656.879127
917.344608,-666.185348,1924.535449,-8656.879127
917.344928,2886.803174,2368.659014,-9499.584175
917.345248,6439.791695,3701.029710,-9806.022374
917.345568,6439.791695,4663.297435,-10342.289223
917.345888,5847.626942,5551.544565,-10189.070123
917.346208,6809.894666,5995.668130,-9729.412825
917.346528,6217.729913,5403.503377,-10725.336972
917.346848,3552.988522,4811.338623,-10265.679673
917.347168,0.000000,4515.256246,-10189.070123
917.347488,-814.226536,3108.864956,-10572.117872
917.347808,-1406.391290,1702.473667,-10112.460574
917.348128,-2368.659014,592.164754,-10035.851024
917.348448,-1924.535449,370.102971,-9806.022374
917.348768,370.102971,592.164754,-10189.070123
917.349088,2664.741391,3330.926739,-10265.679673
917.349408,2960.823768,3997.112087,-10495.508323
917.349728,3182.885551,4885.359217,-10801.946522
917.350048,3404.947333,5551.544565,-10725.336972
917.350368,5181.441594,5625.565159,-11874.480219
917.350688,3404.947333,5329.482782,-10955.165621
917.351008,1850.514855,4293.194464,-10342.289223
917.351328,0.000000,1998.556043,-9882.631924
917.351647,296.082377,592.164754,-9806.022374
917.351967,-1036.288319,0.000000,-9652.803275
917.352287,-1850.514855,-592.164754,-9193.145976
917.352607,-2146.597232,592.164754,-8427.050478
917.352927,148.041188,2368.659014,-9499.584175
917.353247,3701.029710,3330.926739,-9652.803275
917.353567,4737.318029,3701.029710,-9576.193725
917.353887,5699.585753,2146.597232,-10725.336972
917.354207,7179.997637,740.205942,-9116.536426
917.354527,6883.915261,518.144159,-9422.974625
917.354847,5255.462188,3775.050304,-10265.679673
917.355167,2664.741391,5033.400406,-10112.460574
917.355487,814.226536,6143.709319,-10572.117872
917.355807,666.185348,4737.318029,-10801.946522
917.356127,0.000000,2368.659014,-10112.460574
917.356447,0.000000,-666.185348,-9499.584175
917.356767,444.123565,-1036.288319,-10265.679673
917.357087,1998.556043,-1480.411884,-10189.070123
917.357407,4293.194464,666.185348,-9652.803275
917.357727,5995.668130,2590.720797,-10725.336972
917.358047,5995.668130,3923.091493,-11031.775171
917.358367,5403.503377,5181.441594,-10648.727422
917.358687,3997.112087,5921.647536,-11414.822920
917.359007,2590.720797,4515.256246,-12257.527968
917.359327,370.102971,1406.391290,-10265.679673
917.359647,666.185348,-1184.329507,-10801.946522
917.359967,1332.370696,-2664.741391,-10035.851024
917.360287,592.164754,-2146.597232,-9959.241474
917.360607,-2146.597232,-666.185348,-10801.946522
917.360927,-1110.308913,518.144159,-9729.412825
917.361247,1554.432478,1850.514855,-9959.241474
917.361567,3923.091493,1924.535449,-10572.117872
917.361887,6439.791695,1110.308913,-9729.412825
917.362207,5181.441594,2960.823768,-10495.508323
917.362527,3701.029710,3182.885551,-11261.603821
917.362847,3997.112087,2368.659014,-9346.365076
917.363167,3478.967927,1184.329507,-10112.460574
917.363487,1776.494261,148.041188,-9806.022374
917.363807,-1184.329507,0.000000,-8733.488677
917.364127,-4737.318029,0.000000,-10418.898773
917.364447,-3923.091493,-370.102971,-9269.755526
917.364767,-296.082377,-962.267725,-8503.660028
917.365087,1036.288319,-1406.391290,-10189.070123
917.365407,1850.514855,-1554.432478,-9346.365076
917.365727,1184.329507,666.185348,-9269.755526
917.366047,2294.638420,2368.659014,-10342.289223
917.366367,3701.029710,4219.173869,-9882.631924
917.366687,2220.617826,3627.009116,-10878.556072
917.367007,814.226536,1258.350101,-10801.946522
917.367327,-296.082377,-444.123565,-9806.022374
917.367647,-1184.329507,-1036.288319,-10342.289223
917.367967,-1554.432478,-1110.308913,-9729.412825
917.368286,-2220.617826,0.000000,-10112.460574
917.368606,-1480.411884,222.061783,-11108.384721
917.368926,-444.123565,666.185348,-9652.803275
917.369246,-1406.391290,1406.391290,-10955.165621
917.369566,-1924.535449,1184.329507,-10035.851024
917.369886,-1258.350101,1258.350101,-10342.289223
917.370206,814.226536,1850.514855,-11568.042020
917.370526,4663.297435,1184.329507,-9882.631924
917.370846,3478.967927,1258.350101,-10648.727422
917.371166,1036.288319,1480.411884,-10725.336972
917.371486,-1036.288319,1184.329507,-9499.584175
917.371806,-1184.329507,666.185348,-10801.946522
917.372126,-370.102971,1332.370696,-9729.412825
917.372446,-888.247130,222.061783,-9499.584175
917.372766,-888.247130,-444.123565,-9959.241474
917.373086,222.061783,-888.247130,-9346.365076
917.373406,1332.370696,-592.164754,-9806.022374
917.373726,1776.494261,370.102971,-10035.851024
917.374046,2294.638420,1776.494261,-9269.755526
917.374366,2812.782580,2590.720797,-10572.117872
917.374686,2812.782580,1406.391290,-9576.193725
917.375006,740.205942,1406.391290,-9959.241474
917.375326,-1036.288319,444.123565,-10189.070123
917.375646,-222.061783,-370.102971,-9269.755526
917.375966,814.226536,-740.205942,-10265.679673
917.376286,1480.411884,-1776.494261,-9882.631924
917.376606,740.205942,-1406.391290,-9346.365076
917.376926,-888.247130,0.000000,-10572.117872
917.377246,-592.164754,1110.308913,-9729.412825
917.377566,-296.082377,740.205942,-10342.289223
917.377886,2442.679609,666.185348,-10189.070123
917.378206,3997.112087,814.226536,-10189.070123
917.378526,2886.803174,2146.597232,-11491.432470
917.378846,1702.473667,2368.659014,-10648.727422
917.379166,0.000000,3108.864956,-9729.412825
917.379486,370.102971,2664.741391,-11568.042020
917.379806,1702.473667,1184.329507,-9959.241474
917.380126,962.267725,-962.267725,-10878.556072
917.380446,-962.267725,-3034.844362,-9652.803275
917.380766,-370.102971,-2294.638420,-9652.803275
917.381086,814.226536,-518.144159,-10265.679673
917.381406,2738.761985,1406.391290,-10189.070123
917.381726,3552.988522,3182.885551,-11108.384721
917.382046,3256.906145,3034.844362,-11031.775171
917.382366,2960.823768,1850.514855,-10265.679673
917.382686,518.144159,1628.453072,-10495.508323
917.383006,-1554.432478,814.226536,-9729.412825
917.383326,-2072.576638,444.123565,-9499.584175
917.383646,1110.308913,-1554.432478,-9729.412825
917.383966,1554.432478,-3627.009116,-8733.488677
917.384286,222.061783,-3256.906145,-9193.145976
917.384606,-814.226536,-2442.679609,-9039.926876
917.384926,0.000000,518.144159,-9499.584175
917.385245,-148.041188,1850.514855,-9729.412825
917.385565,-2590.720797,1332.370696,-8810.098227
917.385885,-4293.194464,666.185348,-9652.803275
917.386205,-1258.350101,-1776.494261,-9499.584175
917.386525,1406.391290,-1924.535449,-9806.022374
917.386845,1406.391290,-296.082377,-10112.460574
917.387165,-296.082377,814.226536,-9806.022374
917.387485,-1406.391290,2294.638420,-9806.022374
917.387805,-370.102971,2146.597232,-10112.460574
917.388125,444.123565,2072.576638,-10648.727422
917.388445,-740.205942,1184.329507,-10418.898773
917.388765,-2590.720797,814.226536,-10112.460574
917.389085,-1628.453072,666.185348,-10418.898773
917.389405,1110.308913,0.000000,-11184.994271
917.389725,1924.535449,222.061783,-10572.117872
917.390045,1110.308913,2146.597232,-10572.117872
917.390365,666.185348,3552.988522,-9193.145976
917.390685,-148.041188,3108.864956,-10572.117872
917.391005,0.000000,1258.350101,-10648.727422
917.391325,0.000000,-814.226536,-10189.070123
917.391645,148.041188,-2072.576638,-10035.851024
917.391965,-518.144159,-2294.638420,-9806.022374
917.392285,0.000000,0.000000,-9729.412825
917.392605,2368.659014,1480.411884,-10265.679673
917.392925,3775.050304,2294.638420,-10189.070123
917.393245,3701.029710,740.205942,-10878.556072
917.393565,2220.617826,-1258.350101,-9882.631924
917.393885,-814.226536,-3182.885551,-9576.193725
917.394205,-1480.411884,-3034.844362,-9806.022374
917.394525,962.267725,-1184.329507,-8273.831378
917.394845,2738.761985,666.185348,-10035.851024
917.395165,1998.556043,592.164754,-10648.727422
917.395485,222.061783,148.041188,-9576.193725
917.395805,-888.247130,444.123565,-9806.022374
917.396125,888.247130,-444.123565,-8886.707777
917.396445,2812.782580,-370.102971,-10265.679673
917.396765,4515.256246,-444.123565,-10801.946522
917.397085,2738.761985,-1258.350101,-9576.193725
917.397405,2664.741391,296.082377,-9806.022374
917.397725,2294.638420,0.000000,-10342.289223
917.398045,1628.453072,2294.638420,-10725.336972
917.398365,1110.308913,2738.761985,-10955.165621
917.398685,370.102971,2072.576638,-9959.241474
917.399005,370.102971,444.123565,-10342.289223
917.399325,-592.164754,-2812.782580,-10189.070123
917.399645,-962.267725,-4293.194464,-9576.193725
917.399965,74.020594,-3034.844362,-10801.946522
917.400285,-740.205942,222.061783,-9729.412825
917.400605,-1258.350101,3627.009116,-10418.898773
917.400925,-1554.432478,3552.988522,-10418.898773
917.401245,-888.247130,1924.535449,-10189.070123
917.401565,222.061783,-370.102971,-10648.727422
917.401884,-296.082377,-1924.535449,-9652.803275
917.402204,-444.123565,-2368.659014,-9422.974625
917.402524,1110.308913,-1184.329507,-10418.898773
917.402844,2294.638420,592.164754,-10265.679673
917.403164,0.000000,2220.617826,-10265.679673
917.403484,-3256.906145,2220.617826,-9882.631924
917.403804,-5033.400406,888.247130,-9346.365076
917.404124,-3256.906145,-222.061783,-10572.117872
917.404444,1258.350101,-1184.329507,-9806.022374
917.404764,2886.803174,-1110.308913,-9882.631924
917.405084,1628.453072,-888.247130,-10265.679673
917.405404,-592.164754,1036.288319,-9346.365076
917.405724,-370.102971,2960.823768,-10342.289223
917.406044,370.102971,3256.906145,-10035.851024
917.406364,-666.185348,2220.617826,-10035.851024
917.406684,-2960.823768,814.226536,-10189.070123
917.407004,-740.205942,-1628.453072,-8963.317327
917.407324,2664.741391,-2294.638420,-9806.022374
917.407644,2738.761985,-1036.288319,-10265.679673
917.407964,296.082377,1036.288319,-10035.851024
917.408284,-1406.391290,2368.659014,-10572.117872
917.408604,-518.144159,2220.617826,-9576.193725
917.408924,370.102971,2442.679609,-10495.508323
917.409244,2442.679609,0.000000,-10189.070123
917.409564,1776.494261,-1332.370696,-9576.193725
917.409884,2220.617826,-1924.535449,-10648.727422
917.410204,1850.514855,-1998.556043,-9499.584175
917.410524,888.247130,1554.432478,-10572.117872
917.410844,2368.659014,2146.597232,-9882.631924
917.411164,3182.885551,2812.782580,-10418.898773
917.411484,3478.967927,1184.329507,-11261.603821
917.411804,2294.638420,-444.123565,-10035.851024
917.412124,148.041188,74.020594,-10265.679673
917.412444,962.267725,666.185348,-10265.679673
917.412764,2368.659014,2220.617826,-10418.898773
917.413084,3849.070898,3404.947333,-10878.556072
917.413404,4293.194464,2960.823768,-11031.775171
917.413724,4071.132681,2738.761985,-10418.898773
917.414044,2220.617826,1480.411884,-10189.070123
917.414364,740.205942,-518.144159,-10189.070123
917.414684,1702.473667,-2072.576638,-10265.679673
917.415004,148.041188,-2960.823768,-9652.803275
917.415324,-1702.473667,-1036.288319,-9422.974625
917.415644,-1184.329507,222.061783,-10112.460574
917.415964,740.205942,1332.370696,-10189.070123
917.416284,888.247130,740.205942,-10189.070123
917.416604,1110.308913,0.000000,-9806.022374
917.416924,-296.082377,-740.205942,-9729.412825
917.417244,-444.123565,-1776.494261,-9806.022374
917.417564,370.102971,-1702.473667,-8886.707777
917.417884,1554.432478,-962.267725,-10418.898773
917.418204,444.123565,-888.247130,-9806.022374
917.418524,-2886.803174,-666.185348,-9422.974625
917.418843,-4515.256246,0.000000,-9269.755526
917.419163,-1924.535449,-370.102971,-9652.803275
917.419483,592.164754,0.000000,-10189.070123
917.419803,444.123565,-518.144159,-10342.289223
917.420123,-2220.617826,-1332.370696,-7967.393179
917.420443,-3256.906145,-1332.370696,-9806.022374
917.420763,-1554.432478,-592.164754,-10342.289223
917.421083,-222.061783,666.185348,-9806.022374
917.421403,0.000000,1258.350101,-10801.946522
917.421723,-962.267725,1924.535449,-10035.851024
917.422043,-1850.514855,1702.473667,-10648.727422
917.422363,-592.164754,814.226536,-10495.508323
917.422683,-444.123565,0.000000,-10572.117872
917.423003,-2072.576638,-1110.308913,-10955.165621
917.423323,-2368.659014,-2072.576638,-9729.412825
917.423642,-2072.576638,-2294.638420,-10265.679673
917.423962,518.144159,-2146.597232,-9882.631924
917.424282,1480.411884,0.000000,-10418.898773
917.424602,2664.741391,444.123565,-11874.480219
917.424922,1332.370696,1110.308913,-10112.460574
917.425242,0.000000,1332.370696,-10495.508323
917.425562,296.082377,296.082377,-9652.803275
917.425882,2294.638420,-1776.494261,-9806.022374
917.426202,2590.720797,-2516.700203,-10342.289223
917.426522,2368.659014,-4515.256246,-9729.412825
917.426842,518.144159,-3701.029710,-9576.193725
917.427162,1480.411884,-888.247130,-9882.631924
917.427481,3701.029710,1628.453072,-9806.022374
917.427801,3108.864956,4441.235652,-10801.946522
917.428121,2072.576638,3701.029710,-10189.070123
917.428441,1998.556043,592.164754,-9499.584175
917.428761,3404.947333,-1998.556043,-10572.117872
917.429081,3256.906145,-2960.823768,-9576.193725
917.429401,1776.494261,-296.082377,-10418.898773
917.429721,2886.803174,814.226536,-10725.336972
917.430041,2146.597232,2368.659014,-9652.803275
917.430361,2072.576638,3775.050304,-11031.775171
917.430681,1332.370696,4145.153275,-10725.336972
917.431001,1036.288319,666.185348,-10495.508323
917.431320,2368.659014,-962.267725,-10801.946522
917.431640,1406.391290,-1036.288319,-9882.631924
917.431960,-888.247130,-444.123565,-10572.117872
917.432280,74.020594,518.144159,-9959.241474
917.432600,1332.370696,2442.679609,-10189.070123
917.432920,740.205942,2960.823768,-10801.946522
917.433240,0.000000,2442.679609,-9806.022374
917.433560,-666.185348,1184.329507,-10725.336972
917.433880,1036.288319,-296.082377,-10265.679673
917.434200,666.185348,-814.226536,-9576.193725
917.434520,444.123565,-518.144159,-9882.631924
917.434840,-1184.329507,592.164754,-9729.412825
917.435159,-1628.453072,1332.370696,-9576.193725
917.435479,-2294.638420,2146.597232,-10342.289223
917.435799,-740.205942,2368.659014,-9193.145976
917.436119,-370.102971,814.226536,-10189.070123
917.436439,-888.247130,666.185348,-9806.022374
917.436759,-2368.659014,0.000000,-9116.536426
917.437079,-2442.679609,-222.061783,-9422.974625
917.437399,-1480.411884,592.164754,-8503.660028
917.437719,740.205942,444.123565,-9959.241474
917.438039,1110.308913,666.185348,-9806.022374
917.438359,296.082377,1776.494261,-9193.145976
917.438679,-962.267725,2294.638420,-9959.241474
917.438998,-666.185348,1480.411884,-9346.365076
917.439318,370.102971,1258.350101,-10189.070123
917.439638,1110.308913,814.226536,-10801.946522
917.439958,-666.185348,-222.061783,-9652.803275
917.440278,-2590.720797,592.164754,-10572.117872
917.440598,-2294.638420,74.020594,-9882.631924
917.440918,0.000000,814.226536,-10265.679673
917.441238,1998.556043,296.082377,-10418.898773
917.441558,1554.432478,296.082377,-10035.851024
917.441878,-222.061783,74.020594,-10495.508323
917.442198,592.164754,0.000000,-10572.117872
917.442518,2516.700203,814.226536,-10495.508323
917.442837,4737.318029,370.102971,-10801.946522
917.443157,2738.761985,0.000000,-10342.289223
917.443477,0.000000,0.000000,-10035.851024
917.443797,814.226536,-962.267725,-10342.289223
917.444117,2294.638420,-962.267725,-10342.289223
917.444437,3997.112087,-148.041188,-9959.241474
917.444757,2146.597232,-444.123565,-9729.412825
917.445077,518.144159,-222.061783,-10418.898773
917.445397,2294.638420,-148.041188,-10189.070123
917.445717,1998.556043,-518.144159,-9959.241474
917.446037,1702.473667,-1554.432478,-9806.022374
917.446357,-222.061783,-2590.720797,-9499.584175
917.446676,1184.329507,-2516.700203,-9882.631924
917.446996,3034.844362,-1406.391290,-10112.460574
917.447316,2812.782580,666.185348,-9882.631924
917.447636,1110.308913,2368.659014,-10572.117872
917.447956,592.164754,2146.597232,-10189.070123
917.448276,-444.123565,1628.453072,-10725.336972
917.448596,0.000000,0.000000,-10878.556072
917.448916,1110.308913,-1628.453072,-9499.584175
917.449236,666.185348,-1998.556043,-10342.289223
917.449556,2220.617826,-2516.700203,-9422.974625
917.449876,1776.494261,-2738.761985,-10035.851024
917.450196,-370.102971,-2368.659014,-10495.508323
917.450515,-1628.453072,-592.164754,-9193.145976
917.450835,-2664.741391,2294.638420,-10572.117872
