#time,accel_x,accel_y,accel_z
816.372286,518.144159,222.061783,-10189.070123
816.372606,444.123565,222.061783,-10035.851024
816.372926,370.102971,296.082377,-10112.460574
816.373246,74.020594,74.020594,-10265.679673
816.373566,518.144159,74.020594,-10112.460574
816.373886,518.144159,222.061783,-10342.289223
816.374206,740.205942,592.164754,-11568.042020
816.374525,592.164754,518.144159,-10112.460574
816.374845,296.082377,370.102971,-10342.289223
816.375165,592.164754,222.061783,-10418.898773
816.375485,518.144159,74.020594,-10112.460574
816.375805,666.185348,74.020594,-10725.336972
816.376125,518.144159,222.061783,-10035.851024
816.376445,740.205942,296.082377,-9959.241474
816.376765,888.247130,296.082377,-9882.631924
816.377085,1924.535449,-666.185348,-9959.241474
816.377405,148.041188,148.041188,-10035.851024
816.377725,-74.020594,-148.041188,-10035.851024
816.378045,0.000000,-148.041188,-9806.022374
816.378365,592.164754,370.102971,-9729.412825
816.378685,296.082377,222.061783,-10112.460574
816.379005,518.144159,0.000000,-10189.070123
816.379325,962.267725,222.061783,-9959.241474
816.379645,962.267725,222.061783,-10035.851024
816.379965,1258.350101,-148.041188,-10572.117872
816.380285,74.020594,0.000000,-10342.289223
816.380605,370.102971,0.000000,-9806.022374
816.380925,444.123565,0.000000,-9882.631924
816.381245,222.061783,-444.123565,-9882.631924
816.381565,-962.267725,-666.185348,-10035.851024
816.381885,-1036.288319,-814.226536,-9652.803275
816.382205,-666.185348,-740.205942,-9882.631924
816.382525,-370.102971,-518.144159,-9882.631924
816.382845,-592.164754,-370.102971,-10801.946522
816.383165,-444.123565,-666.185348,-10189.070123
816.383484,370.102971,-666.185348,-10112.460574
816.383804,0.000000,-814.226536,-10035.851024
816.384124,-444.123565,-1924.535449,-9882.631924
816.384444,-1036.288319,-1850.514855,-10112.460574
816.384764,-444.123565,-1850.514855,-10112.460574
816.385084,-592.164754,-1406.391290,-9882.631924
816.385404,-1850.514855,-1776.494261,-10265.679673
816.385724,-2738.761985,-2220.617826,-9882.631924
816.386044,-1776.494261,-1850.514855,-9882.631924
816.386364,-888.247130,-1554.432478,-10035.851024
816.386684,-1110.308913,-1332.370696,-10035.851024
816.387004,-1258.350101,-1924.535449,-9882.631924
816.387324,-962.267725,-1702.473667,-9806.022374
816.387644,-296.082377,-1258.350101,-10342.289223
816.387964,-518.144159,-962.267725,-10112.460574
816.388284,-1850.514855,-1924.535449,-10265.679673
816.388604,-2516.700203,-2738.761985,-9959.241474
816.388924,-2442.679609,-3182.885551,-9576.193725
816.389244,-2294.638420,-3034.844362,-9806.022374
816.389564,-2294.638420,-3256.906145,-10035.851024
816.389884,-2590.720797,-3330.926739,-10725.336972
816.390204,-1924.535449,-3182.885551,-9959.241474
816.390524,-592.164754,-2220.617826,-10035.851024
816.390844,518.144159,-1036.288319,-10265.679673
816.391164,370.102971,-370.102971,-9652.803275
816.391484,-1036.288319,-296.082377,-10725.336972
816.391804,-1924.535449,-1332.370696,-10418.898773
816.392124,-3108.864956,-2220.617826,-10189.070123
816.392443,-4737.318029,-3701.029710,-9806.022374
816.392763,-5921.647536,-4811.338623,-9882.631924
816.393083,-4811.338623,-5403.503377,-9499.584175
816.393403,-2442.679609,-4811.338623,-9576.193725
816.393723,-444.123565,-3849.070898,-9882.631924
816.394043,666.185348,-1480.411884,-10112.460574
816.394363,740.205942,296.082377,-10418.898773
816.394683,1480.411884,1628.453072,-10801.946522
816.395003,2146.597232,1628.453072,-10418.898773
816.395323,1850.514855,814.226536,-10495.508323
816.395643,444.123565,-444.123565,-10801.946522
816.395963,-1258.350101,-2220.617826,-10265.679673
816.396283,-3182.885551,-3256.906145,-10265.679673
816.396603,-5477.523971,-4145.153275,-9346.365076
816.396923,-6143.709319,-4737.318029,-10035.851024
816.397243,-4515.256246,-5107.421000,-9193.145976
816.397563,-888.247130,-4441.235652,-9652.803275
816.397883,1332.370696,-2516.700203,-10265.679673
816.398203,1850.514855,0.000000,-10035.851024
816.398523,3034.844362,2442.679609,-10112.460574
816.398843,4441.235652,3923.091493,-10801.946522
816.399163,4293.194464,4293.194464,-11338.213370
816.399483,962.267725,2368.659014,-10801.946522
816.399803,-3775.050304,-962.267725,-10189.070123
816.400123,-5699.585753,-4663.297435,-9193.145976
816.400443,-5181.441594,-7328.038826,-9039.926876
816.400763,-4737.318029,-7846.182985,-9269.755526
816.401083,-3997.112087,-6883.915261,-9269.755526
816.401402,-2812.782580,-3330.926739,-9193.145976
816.401722,0.000000,0.000000,-10189.070123
816.402042,1702.473667,2812.782580,-10418.898773
816.402362,1850.514855,4441.235652,-11108.384721
816.402682,2368.659014,3404.947333,-10648.727422
816.403002,2738.761985,962.267725,-10801.946522
816.403322,1702.473667,-814.226536,-10878.556072
816.403642,-1776.494261,-1998.556043,-10035.851024
816.403962,-4219.173869,-2368.659014,-9882.631924
816.404282,-5847.626942,-2664.741391,-9882.631924
816.404602,-6291.750507,-3627.009116,-9806.022374
816.404922,-7031.956449,-4737.318029,-9422.974625
816.405242,-6143.709319,-6291.750507,-9116.536426
816.405562,-2368.659014,-5181.441594,-9346.365076
816.405882,1702.473667,-2738.761985,-10265.679673
816.406202,3923.091493,296.082377,-10725.336972
816.406522,3034.844362,2886.803174,-11031.775171
816.406842,1850.514855,3552.988522,-10495.508323
816.407162,1184.329507,3034.844362,-10801.946522
816.407482,1628.453072,444.123565,-10878.556072
816.407802,-296.082377,-2442.679609,-10342.289223
816.408122,-3701.029710,-5107.421000,-10189.070123
816.408442,-6661.853478,-6291.750507,-9806.022374
816.408762,-8438.347739,-5107.421000,-9499.584175
816.409082,-8734.430116,-4441.235652,-9039.926876
816.409402,-5625.565159,-4811.338623,-9193.145976
816.409722,-592.164754,-5033.400406,-9193.145976
816.410042,2516.700203,-4441.235652,-10189.070123
816.410362,3404.947333,-2368.659014,-9959.241474
816.410681,3552.988522,0.000000,-9959.241474
816.411001,4441.235652,2442.679609,-10648.727422
816.411321,4071.132681,4293.194464,-10418.898773
816.411641,1258.350101,2812.782580,-11031.775171
816.411961,-2812.782580,74.020594,-10495.508323
816.412281,-6809.894666,-3034.844362,-9882.631924
816.412601,-7698.141797,-5551.544565,-9652.803275
816.412921,-6143.709319,-7698.141797,-9116.536426
816.413241,-5181.441594,-8438.347739,-9806.022374
816.413561,-4737.318029,-7328.038826,-9039.926876
816.413881,-3627.009116,-4737.318029,-9499.584175
816.414201,666.185348,-222.061783,-9806.022374
816.414521,4737.318029,2664.741391,-10725.336972
816.414841,7179.997637,4367.215058,-11644.651570
816.415161,5403.503377,3923.091493,-11721.261119
816.415481,888.247130,2664.741391,-10878.556072
816.415801,-2146.597232,0.000000,-10189.070123
816.416121,-3478.967927,-2812.782580,-10035.851024
816.416441,-2590.720797,-4737.318029,-10342.289223
816.416761,-3404.947333,-5847.626942,-9806.022374
816.417081,-5181.441594,-6587.832884,-9576.193725
816.417401,-5551.544565,-5181.441594,-9269.755526
816.417721,-2368.659014,-3404.947333,-9806.022374
816.418041,1702.473667,-148.041188,-10342.289223
816.418361,1406.391290,2960.823768,-10112.460574
816.418681,222.061783,4145.153275,-10112.460574
816.419001,2442.679609,3330.926739,-10648.727422
816.419321,6957.935855,2738.761985,-10648.727422
816.419640,6513.812290,1998.556043,-12104.308868
816.419960,1628.453072,-296.082377,-10418.898773
816.420280,-2960.823768,-2442.679609,-9422.974625
816.420600,-3775.050304,-2516.700203,-9806.022374
816.420920,-1850.514855,-1184.329507,-10265.679673
816.421240,-2886.803174,-296.082377,-10112.460574
816.421560,-3627.009116,-962.267725,-9499.584175
816.421880,-1332.370696,-1998.556043,-9269.755526
816.422200,3552.988522,-518.144159,-10112.460574
816.422520,5033.400406,1554.432478,-10418.898773
816.422840,4071.132681,2960.823768,-10725.336972
816.423160,3034.844362,4441.235652,-10495.508323
816.423480,3330.926739,5551.544565,-11108.384721
816.423800,3552.988522,5625.565159,-11031.775171
816.424120,1332.370696,2886.803174,-10801.946522
816.424440,-1110.308913,-1924.535449,-9499.584175
816.424760,-3256.906145,-5329.482782,-9039.926876
816.425080,-1480.411884,-6809.894666,-9269.755526
816.425400,-814.226536,-4071.132681,-7967.393179
816.425720,-592.164754,-2368.659014,-10112.460574
816.426040,1406.391290,1406.391290,-9729.412825
816.426360,2146.597232,3775.050304,-10265.679673
816.426680,1628.453072,5107.421000,-10035.851024
816.426999,148.041188,5847.626942,-9959.241474
816.427319,592.164754,3701.029710,-10418.898773
816.427639,1924.535449,1258.350101,-10189.070123
816.427959,2072.576638,-1702.473667,-10495.508323
816.428279,-296.082377,-2368.659014,-9806.022374
816.428599,-1702.473667,-3034.844362,-9806.022374
816.428919,-1554.432478,-592.164754,-9806.022374
816.429238,-1110.308913,1110.308913,-10189.070123
816.429558,-1258.350101,2146.597232,-11184.994271
816.429878,-888.247130,1258.350101,-10342.289223
816.430198,1998.556043,518.144159,-10572.117872
816.430518,3997.112087,592.164754,-11414.822920
816.430838,2516.700203,1998.556043,-10572.117872
816.431157,518.144159,2812.782580,-10572.117872
816.431477,962.267725,2294.638420,-10035.851024
816.431797,1554.432478,2072.576638,-10648.727422
816.432117,444.123565,740.205942,-10342.289223
816.432437,-1850.514855,-1998.556043,-9882.631924
816.432757,-2220.617826,-3849.070898,-9193.145976
816.433077,-1110.308913,-3182.885551,-9729.412825
816.433396,-1036.288319,-1998.556043,-9806.022374
816.433716,-1184.329507,444.123565,-9806.022374
816.434036,-148.041188,444.123565,-9039.926876
816.434356,2146.597232,814.226536,-10112.460574
816.434676,3701.029710,2294.638420,-9882.631924
816.434996,2442.679609,1628.453072,-10495.508323
816.435316,1776.494261,1036.288319,-9806.022374
816.435635,2442.679609,-888.247130,-9806.022374
816.435955,2368.659014,-962.267725,-10342.289223
816.436275,518.144159,-148.041188,-9959.241474
816.436595,-2368.659014,-370.102971,-10035.851024
816.436915,-2738.761985,-888.247130,-9576.193725
816.437235,-1332.370696,-1110.308913,-10035.851024
816.437554,0.000000,-888.247130,-10035.851024
816.437874,1110.308913,-1258.350101,-9882.631924
816.438194,1998.556043,-1998.556043,-10189.070123
816.438514,2664.741391,-740.205942,-10265.679673
816.438834,2590.720797,666.185348,-10418.898773
816.439154,1258.350101,1480.411884,-10112.460574
816.439474,1036.288319,2146.597232,-10648.727422
816.439793,1184.329507,1776.494261,-10418.898773
816.440113,-148.041188,962.267725,-11108.384721
816.440433,-1776.494261,-1258.350101,-10342.289223
816.440753,-1924.535449,-2146.597232,-9806.022374
816.441073,-1406.391290,-2886.803174,-9806.022374
816.441393,-1258.350101,-3330.926739,-9882.631924
816.441713,0.000000,-2294.638420,-9499.584175
816.442032,-1628.453072,-666.185348,-9959.241474
816.442352,74.020594,740.205942,-10189.070123
816.442672,1924.535449,1480.411884,-10342.289223
816.442992,1998.556043,1406.391290,-10572.117872
816.443312,370.102971,1110.308913,-10189.070123
816.443632,1036.288319,148.041188,-10342.289223
816.443951,2368.659014,-444.123565,-10035.851024
816.444271,1702.473667,-444.123565,-10112.460574
816.444591,0.000000,-740.205942,-9729.412825
816.444911,-1924.535449,-2146.597232,-9729.412825
816.445231,-1036.288319,-1628.453072,-8810.098227
816.445551,-888.247130,-1628.453072,-9729.412825
816.445871,-1480.411884,-518.144159,-9882.631924
816.446190,-1258.350101,0.000000,-9806.022374
816.446510,888.247130,1554.432478,-9959.241474
816.446830,2516.700203,1628.453072,-9806.022374
816.447150,1924.535449,1702.473667,-10418.898773
816.447470,666.185348,1702.473667,-10572.117872
816.447790,2072.576638,1332.370696,-10572.117872
816.448110,1110.308913,3182.885551,-9959.241474
816.448429,-814.226536,2664.741391,-11031.775171
816.448749,-1702.473667,2960.823768,-10342.289223
816.449069,-296.082377,1036.288319,-10572.117872
816.449389,1554.432478,-518.144159,-10035.851024
816.449709,2368.659014,-1554.432478,-10035.851024
816.450029,1406.391290,-814.226536,-9959.241474
816.450348,444.123565,0.000000,-10112.460574
816.450668,1702.473667,2072.576638,-10035.851024
816.450988,1184.329507,3775.050304,-10955.165621
816.451308,222.061783,3182.885551,-9882.631924
816.451628,74.020594,2368.659014,-10112.460574
816.451948,1554.432478,296.082377,-10112.460574
816.452268,1628.453072,-1628.453072,-9806.022374
816.452587,592.164754,-1184.329507,-9806.022374
816.452907,-888.247130,-296.082377,-9346.365076
816.453227,-148.041188,-814.226536,-10035.851024
816.453547,1850.514855,296.082377,-9652.803275
816.453867,148.041188,222.061783,-9576.193725
816.454187,-1554.432478,0.000000,-9806.022374
816.454507,-148.041188,296.082377,-9269.755526
816.454826,2664.741391,814.226536,-10265.679673
816.455146,2590.720797,-148.041188,-10342.289223
816.455466,1924.535449,-222.061783,-9729.412825
816.455786,222.061783,518.144159,-9806.022374
816.456106,444.123565,1702.473667,-9959.241474
816.456426,444.123565,1628.453072,-10418.898773
816.456745,-2738.761985,74.020594,-9576.193725
816.457065,-3923.091493,-1184.329507,-9729.412825
816.457385,-2590.720797,-1480.411884,-9729.412825
816.457705,-222.061783,-518.144159,-10265.679673
816.458025,1850.514855,1258.350101,-10189.070123
816.458345,1628.453072,592.164754,-10342.289223
816.458665,2590.720797,0.000000,-10495.508323
816.458984,2368.659014,0.000000,-10725.336972
816.459304,1332.370696,1110.308913,-10418.898773
816.459624,-370.102971,3256.906145,-11184.994271
816.459944,0.000000,2146.597232,-10495.508323
816.460264,1258.350101,518.144159,-10725.336972
816.460584,1406.391290,296.082377,-10189.070123
816.460904,-518.144159,-1332.370696,-10265.679673
816.461223,444.123565,-1702.473667,-10342.289223
816.461543,1036.288319,-2368.659014,-9499.584175
816.461863,74.020594,-1406.391290,-10035.851024
816.462183,-1998.556043,222.061783,-9806.022374
816.462503,-1480.411884,-592.164754,-9959.241474
816.462823,2368.659014,-222.061783,-9806.022374
816.463142,3256.906145,0.000000,-9806.022374
816.463462,2812.782580,740.205942,-9652.803275
816.463782,1924.535449,814.226536,-10112.460574
816.464102,2072.576638,370.102971,-10112.460574
816.464422,1554.432478,666.185348,-10035.851024
816.464742,-888.247130,222.061783,-9729.412825
816.465062,-2738.761985,0.000000,-9729.412825
816.465381,-1998.556043,-740.205942,-9806.022374
816.465701,0.000000,-1628.453072,-10112.460574
816.466021,814.226536,-2072.576638,-9806.022374
816.466341,-814.226536,-1258.350101,-9576.193725
816.466661,740.205942,666.185348,-9882.631924
816.466981,3034.844362,1998.556043,-10725.336972
816.467301,3034.844362,3404.947333,-10955.165621
816.467620,666.185348,3478.967927,-10725.336972
816.467940,-1406.391290,1480.411884,-10035.851024
816.468260,370.102971,-148.041188,-10342.289223
816.468580,1406.391290,-592.164754,-10572.117872
816.468900,370.102971,-1184.329507,-10112.460574
816.469220,-1554.432478,-1110.308913,-10418.898773
816.469539,-962.267725,-1184.329507,-10035.851024
816.469859,0.000000,-370.102971,-10112.460574
816.470179,-666.185348,0.000000,-10265.679673
816.470499,-1998.556043,962.267725,-10189.070123
816.470819,-962.267725,74.020594,-9806.022374
816.471139,518.144159,1480.411884,-10265.679673
816.471459,962.267725,1702.473667,-10189.070123
816.471778,222.061783,444.123565,-9806.022374
816.472098,666.185348,888.247130,-10035.851024
816.472418,1998.556043,0.000000,-10342.289223
816.472738,1776.494261,-592.164754,-10495.508323
816.473058,-1110.308913,222.061783,-9576.193725
816.473378,-2368.659014,1110.308913,-9806.022374
816.473698,-888.247130,814.226536,-9882.631924
816.474017,370.102971,-370.102971,-9806.022374
816.474337,370.102971,296.082377,-10035.851024
816.474657,0.000000,518.144159,-9882.631924
816.474977,2664.741391,370.102971,-9729.412825
816.475297,5107.421000,2368.659014,-10418.898773
816.475617,4811.338623,2220.617826,-9959.241474
816.475936,2220.617826,2442.679609,-10418.898773
816.476256,1036.288319,2812.782580,-10265.679673
816.476576,962.267725,1924.535449,-9652.803275
816.476896,1258.350101,740.205942,-10112.460574
816.477216,0.000000,148.041188,-9882.631924
816.477536,-222.061783,-148.041188,-9882.631924
816.477856,1036.288319,-962.267725,-9806.022374
816.478175,2072.576638,-518.144159,-9959.241474
816.478495,592.164754,1110.308913,-9882.631924
816.478815,0.000000,2220.617826,-10495.508323
816.479135,1924.535449,2220.617826,-10189.070123
816.479455,3478.967927,2590.720797,-12257.527968
816.479775,2738.761985,2294.638420,-10418.898773
816.480095,1184.329507,1702.473667,-10112.460574
816.480414,1998.556043,74.020594,-10035.851024
816.480734,3404.947333,-148.041188,-9499.584175
816.481054,1998.556043,740.205942,-10418.898773
816.481374,-1554.432478,740.205942,-10035.851024
816.481694,-2072.576638,-148.041188,-9959.241474
816.482014,-740.205942,-370.102971,-10112.460574
816.482333,-518.144159,74.020594,-9039.926876
816.482653,-814.226536,666.185348,-9806.022374
816.482973,0.000000,962.267725,-9806.022374
816.483293,2590.720797,1628.453072,-10418.898773
816.483613,2960.823768,2220.617826,-10572.117872
816.483933,370.102971,1480.411884,-9959.241474
816.484253,-1332.370696,-444.123565,-9806.022374
816.484572,148.041188,-1628.453072,-9729.412825
816.484892,-592.164754,-1776.494261,-10112.460574
816.485212,-1406.391290,-2072.576638,-9652.803275
816.485532,-2294.638420,-1480.411884,-9652.803275
816.485852,-518.144159,-1110.308913,-9806.022374
816.486172,222.061783,-1184.329507,-9959.241474
816.486492,-666.185348,-222.061783,-9882.631924
816.486811,-1332.370696,444.123565,-9346.365076
816.487131,0.000000,-666.185348,-9729.412825
816.487451,1628.453072,-666.185348,-10572.117872
816.487771,1184.329507,-1110.308913,-9576.193725
816.488091,-814.226536,-296.082377,-9806.022374
816.488411,-370.102971,518.144159,-9806.022374
816.488731,1924.535449,222.061783,-10342.289223
816.489050,2368.659014,1628.453072,-10801.946522
816.489370,0.000000,1998.556043,-10648.727422
816.489690,-592.164754,0.000000,-10265.679673
816.490010,814.226536,-2368.659014,-9959.241474
816.490330,1554.432478,-2220.617826,-10342.289223
816.490650,518.144159,-592.164754,-10189.070123
816.490969,962.267725,1332.370696,-10878.556072
816.491289,2516.700203,2220.617826,-10572.117872
816.491609,3256.906145,2368.659014,-11414.822920
816.491929,444.123565,2368.659014,-10572.117872
816.492249,-2664.741391,1184.329507,-10112.460574
816.492569,-1184.329507,-296.082377,-10265.679673
816.492889,1998.556043,-1110.308913,-10342.289223
816.493208,1776.494261,-1480.411884,-10418.898773
816.493528,-814.226536,-592.164754,-10112.460574
816.493848,-74.020594,74.020594,-9576.193725
816.494168,1480.411884,888.247130,-10112.460574
816.494488,1776.494261,1554.432478,-10265.679673
816.494808,0.000000,1184.329507,-9576.193725
816.495128,-888.247130,-296.082377,-10189.070123
816.495447,1258.350101,-1036.288319,-9576.193725
816.495767,1776.494261,-1924.535449,-9806.022374
816.496087,370.102971,-2072.576638,-9116.536426
816.496407,-1036.288319,-222.061783,-9346.365076
816.496727,-222.061783,666.185348,-9806.022374
816.497047,1184.329507,1924.535449,-10495.508323
816.497366,-740.205942,1850.514855,-10112.460574
816.497686,-3775.050304,444.123565,-9882.631924
816.498006,-2590.720797,-1776.494261,-9499.584175
816.498326,296.082377,-2442.679609,-10035.851024
816.498646,1332.370696,-888.247130,-10112.460574
816.498966,-222.061783,2220.617826,-10035.851024
816.499286,222.061783,3256.906145,-10418.898773
816.499605,3256.906145,2960.823768,-10725.336972
816.499925,2072.576638,2738.761985,-11031.775171
816.500245,-1110.308913,2294.638420,-10342.289223
816.500565,-814.226536,0.000000,-9959.241474
816.500885,1258.350101,-1184.329507,-10342.289223
816.501205,2294.638420,-1480.411884,-10418.898773
816.501525,518.144159,74.020594,-10418.898773
816.501844,-1554.432478,1776.494261,-10112.460574
816.502164,222.061783,2516.700203,-9346.365076
816.502484,2516.700203,3404.947333,-10035.851024
816.502804,1184.329507,3404.947333,-10955.165621
816.503124,-518.144159,1850.514855,-9806.022374
816.503444,1998.556043,-296.082377,-9806.022374
816.503763,3701.029710,-962.267725,-9422.974625
816.504083,3034.844362,1406.391290,-10112.460574
816.504403,1702.473667,1924.535449,-9729.412825
816.504723,1406.391290,2886.803174,-10342.289223
816.505043,2886.803174,4071.132681,-11644.651570
816.505363,592.164754,3923.091493,-10418.898773
816.505683,-1924.535449,2294.638420,-9959.241474
816.506002,-1998.556043,370.102971,-9576.193725
816.506322,370.102971,-1628.453072,-9422.974625
816.506642,1258.350101,-2664.741391,-9959.241474
816.506962,666.185348,-1702.473667,-9652.803275
816.507282,222.061783,-666.185348,-9806.022374
816.507602,3701.029710,888.247130,-10495.508323
816.507922,3552.988522,3256.906145,-10112.460574
816.508241,814.226536,2664.741391,-9806.022374
816.508561,-1480.411884,1924.535449,-10112.460574
816.508881,0.000000,0.000000,-10035.851024
816.509201,2664.741391,-1776.494261,-10418.898773
816.509521,740.205942,-1924.535449,-10035.851024
816.509841,-2146.597232,-1332.370696,-9576.193725
816.510160,-1776.494261,-1628.453072,-9882.631924
816.510480,-592.164754,-740.205942,-10342.289223
816.510800,-962.267725,592.164754,-9959.241474
816.511120,-2442.679609,1776.494261,-10035.851024
816.511440,-2220.617826,1110.308913,-10265.679673
816.511760,2220.617826,0.000000,-10495.508323
816.512080,2368.659014,-222.061783,-10572.117872
816.512399,-444.123565,148.041188,-10035.851024
816.512719,-2072.576638,-148.041188,-9806.022374
816.513039,592.164754,-518.144159,-10112.460574
816.513359,2516.700203,296.082377,-10648.727422
816.513679,-222.061783,0.000000,-9499.584175
816.513999,-3552.988522,-962.267725,-9806.022374
816.514319,-1998.556043,-1480.411884,-10035.851024
816.514638,518.144159,-888.247130,-10265.679673
816.514958,1480.411884,74.020594,-10725.336972
816.515278,148.041188,0.000000,-9882.631924
816.515598,962.267725,-296.082377,-10418.898773
816.515918,2368.659014,740.205942,-10189.070123
816.516238,1554.432478,1480.411884,-10572.117872
816.516557,-1110.308913,2220.617826,-9959.241474
816.516877,0.000000,0.000000,-9806.022374
816.517197,3182.885551,-1924.535449,-9652.803275
816.517517,2590.720797,-1776.494261,-10189.070123
816.517837,962.267725,-3182.885551,-9269.755526
816.518157,296.082377,-2368.659014,-9652.803275
816.518477,2960.823768,-370.102971,-10112.460574
816.518796,3182.885551,1554.432478,-10495.508323
816.519116,962.267725,1628.453072,-10265.679673
816.519436,-148.041188,1110.308913,-9882.631924
816.519756,592.164754,-518.144159,-10342.289223
816.520076,3627.009116,0.000000,-10572.117872
816.520396,2812.782580,592.164754,-9959.241474
816.520716,0.000000,1850.514855,-9959.241474
816.521035,148.041188,1110.308913,-10112.460574
816.521355,2146.597232,814.226536,-10495.508323
816.521675,592.164754,1406.391290,-10878.556072
816.521995,-1776.494261,1554.432478,-10112.460574
816.522315,-1850.514855,1554.432478,-10112.460574
816.522635,148.041188,814.226536,-10648.727422
816.522954,1554.432478,0.000000,-10495.508323
816.523274,518.144159,1184.329507,-10495.508323
816.523594,0.000000,740.205942,-9806.022374
816.523914,1924.535449,74.020594,-9882.631924
816.524234,2516.700203,1332.370696,-10265.679673
816.524554,-296.082377,2368.659014,-10418.898773
816.524874,-4071.132681,1702.473667,-9576.193725
816.525193,-2294.638420,-1110.308913,-9959.241474
816.525513,518.144159,-888.247130,-9806.022374
816.525833,-296.082377,-814.226536,-9959.241474
816.526153,-814.226536,0.000000,-9576.193725
816.526473,-740.205942,962.267725,-10035.851024
816.526793,1406.391290,1776.494261,-10112.460574
816.527113,1480.411884,3404.947333,-10418.898773
816.527432,-1184.329507,2664.741391,-9882.631924
816.527752,-888.247130,1702.473667,-10418.898773
816.528072,1332.370696,666.185348,-9806.022374
816.528392,1184.329507,-296.082377,-10035.851024
816.528712,-444.123565,-814.226536,-9576.193725
816.529032,148.041188,296.082377,-9499.584175
816.529352,1628.453072,1554.432478,-10035.851024
816.529672,1554.432478,2442.679609,-10648.727422
816.529992,444.123565,3034.844362,-10265.679673
816.530312,-1850.514855,1998.556043,-10035.851024
816.530632,222.061783,-296.082377,-9576.193725
816.530952,3552.988522,-814.226536,-9806.022374
816.531272,2516.700203,-1184.329507,-9806.022374
816.531592,1036.288319,222.061783,-9882.631924
816.531912,2294.638420,2146.597232,-9806.022374
816.532232,3182.885551,3108.864956,-11568.042020
816.532552,2442.679609,2294.638420,-10648.727422
816.532873,-296.082377,1628.453072,-10035.851024
816.533193,-740.205942,592.164754,-10265.679673
816.533513,1258.350101,0.000000,-9039.926876
816.533833,2368.659014,444.123565,-10189.070123
816.534153,-222.061783,0.000000,-10112.460574
816.534473,-592.164754,-296.082377,-10342.289223
816.534793,1776.494261,0.000000,-10112.460574
816.535113,2442.679609,592.164754,-11261.603821
816.535433,1184.329507,1776.494261,-10418.898773
816.535753,-740.205942,1406.391290,-10342.289223
816.536073,-370.102971,370.102971,-9959.241474
816.536393,2368.659014,-592.164754,-9882.631924
816.536713,1332.370696,-1406.391290,-10112.460574
816.537033,-1554.432478,-1776.494261,-9576.193725
816.537353,-222.061783,-1184.329507,-9882.631924
816.537673,1628.453072,-1258.350101,-10035.851024
816.537994,1480.411884,0.000000,-10342.289223
816.538314,-2146.597232,-74.020594,-9116.536426
816.538634,-3552.988522,222.061783,-10035.851024
816.538954,-1702.473667,0.000000,-9806.022374
816.539274,740.205942,370.102971,-10112.460574
816.539594,-888.247130,-740.205942,-10035.851024
816.539914,-444.123565,-1628.453072,-9806.022374
816.540234,2590.720797,-1776.494261,-9806.022374
816.540554,2590.720797,-1406.391290,-11108.384721
816.540874,148.041188,-370.102971,-10112.460574
816.541194,-1850.514855,-518.144159,-9882.631924
816.541514,0.000000,1554.432478,-10189.070123
816.541834,1258.350101,296.082377,-9959.241474
816.542154,518.144159,0.000000,-11414.822920
816.542474,0.000000,-370.102971,-9882.631924
816.542794,222.061783,-518.144159,-10648.727422
816.543114,3034.844362,-518.144159,-10495.508323
816.543435,1776.494261,-740.205942,-10801.946522
816.543755,-962.267725,1184.329507,-10189.070123
816.544075,-1628.453072,1406.391290,-9882.631924
816.544395,370.102971,148.041188,-10265.679673
816.544715,3849.070898,-740.205942,-10418.898773
816.545035,1184.329507,-1036.288319,-10342.289223
816.545355,-1258.350101,-296.082377,-9806.022374
816.545675,-444.123565,148.041188,-10035.851024
816.545995,3034.844362,592.164754,-11031.775171
816.546315,1480.411884,962.267725,-8963.317327
816.546635,222.061783,-444.123565,-10035.851024
816.546955,962.267725,-1850.514855,-9652.803275
816.547275,962.267725,-3034.844362,-10112.460574
816.547595,814.226536,-888.247130,-9959.241474
816.547915,-1406.391290,296.082377,-8886.707777
816.548235,518.144159,592.164754,-10265.679673
816.548556,3923.091493,1406.391290,-10418.898773
816.548876,2368.659014,-148.041188,-10418.898773
816.549196,-1998.556043,0.000000,-9806.022374
816.549516,-3330.926739,-962.267725,-9729.412825
816.549836,1184.329507,-814.226536,-10265.679673
816.550156,2072.576638,-370.102971,-9959.241474
816.550476,-444.123565,-370.102971,-10189.070123
816.550796,-2812.782580,-370.102971,-9499.584175
816.551116,444.123565,1036.288319,-10342.289223
816.551436,1850.514855,2590.720797,-11031.775171
816.551756,-518.144159,2220.617826,-10648.727422
816.552076,-2738.761985,1406.391290,-9882.631924
816.552396,-814.226536,-444.123565,-9959.241474
816.552716,1258.350101,0.000000,-10035.851024
816.553036,370.102971,-148.041188,-10648.727422
816.553356,-1850.514855,222.061783,-9959.241474
816.553676,-814.226536,74.020594,-10495.508323
816.553997,2072.576638,888.247130,-10265.679673
816.554317,1036.288319,2812.782580,-10418.898773
816.554637,-1036.288319,2664.741391,-10189.070123
816.554957,-518.144159,2072.576638,-11184.994271
816.555277,1776.494261,370.102971,-10342.289223
816.555597,3478.967927,-518.144159,-10112.460574
816.555917,1036.288319,-222.061783,-9959.241474
816.556237,-296.082377,1406.391290,-10035.851024
816.556557,1776.494261,1332.370696,-9806.022374
816.556877,2664.741391,2886.803174,-10878.556072
816.557197,222.061783,3701.029710,-10418.898773
816.557517,-2072.576638,2368.659014,-9959.241474
816.557837,0.000000,296.082377,-9652.803275
816.558157,3256.906145,-666.185348,-9729.412825
816.558477,2886.803174,-444.123565,-9959.241474
816.558797,888.247130,0.000000,-9422.974625
816.559118,1184.329507,1110.308913,-10418.898773
816.559438,2886.803174,1480.411884,-10112.460574
816.559758,3034.844362,2886.803174,-10878.556072
816.560078,-1406.391290,3404.947333,-9959.241474
816.560398,-740.205942,2294.638420,-10342.289223
816.560718,3034.844362,1258.350101,-10189.070123
816.561038,3034.844362,666.185348,-10725.336972
816.561358,370.102971,444.123565,-10265.679673
816.561678,-222.061783,0.000000,-10112.460574
816.561998,666.185348,0.000000,-9806.022374
816.562318,1110.308913,592.164754,-10495.508323
816.562638,296.082377,814.226536,-10035.851024
816.562958,-2960.823768,1332.370696,-9959.241474
816.563278,-222.061783,962.267725,-9806.022374
816.563598,2368.659014,-1036.288319,-10035.851024
816.563918,814.226536,-1998.556043,-10189.070123
816.564238,0.000000,-1258.350101,-9806.022374
816.564559,74.020594,-1924.535449,-9346.365076
816.564879,2812.782580,-2220.617826,-9806.022374
816.565199,1406.391290,-222.061783,-9806.022374
816.565519,-2294.638420,-74.020594,-9882.631924
816.565839,-2220.617826,-888.247130,-9652.803275
816.566159,222.061783,-1480.411884,-9729.412825
816.566479,1554.432478,-1332.370696,-10342.289223
816.566799,-370.102971,0.000000,-9882.631924
816.567119,-1480.411884,148.041188,-10112.460574
816.567439,222.061783,-296.082377,-10112.460574
816.567759,1110.308913,666.185348,-10035.851024
816.568079,-1332.370696,592.164754,-10342.289223
816.568399,-2220.617826,148.041188,-9806.022374
816.568719,-518.144159,-814.226536,-10342.289223
816.569039,2368.659014,-1554.432478,-10342.289223
816.569359,2294.638420,-592.164754,-9959.241474
816.569680,-518.144159,-148.041188,-10035.851024
816.570000,74.020594,0.000000,-10418.898773
816.570320,2146.597232,962.267725,-10725.336972
816.570640,1184.329507,444.123565,-9652.803275
816.570960,-666.185348,0.000000,-9959.241474
816.571280,-1924.535449,-1480.411884,-9576.193725
816.571600,962.267725,-1480.411884,-10418.898773
816.571920,2368.659014,-1110.308913,-10418.898773
816.572240,1184.329507,-814.226536,-10801.946522
816.572560,-444.123565,296.082377,-10418.898773
816.572880,1110.308913,-592.164754,-10112.460574
816.573200,3330.926739,0.000000,-10418.898773
816.573520,740.205942,-814.226536,-10495.508323
816.573840,-1850.514855,1110.308913,-10265.679673
816.574160,-518.144159,-370.102971,-9882.631924
816.574480,1998.556043,0.000000,-10648.727422
816.574801,1998.556043,-592.164754,-9959.241474
816.575121,-740.205942,-888.247130,-10648.727422
816.575441,370.102971,-1184.329507,-9806.022374
816.575761,2146.597232,2072.576638,-10342.289223
816.576081,1036.288319,3034.844362,-11108.384721
816.576401,-2294.638420,4219.173869,-10342.289223
816.576721,-2886.803174,3108.864956,-10418.898773
816.577041,1480.411884,814.226536,-10342.289223
816.577361,1924.535449,-1554.432478,-10035.851024
816.577681,370.102971,-1480.411884,-9959.241474
816.578001,-1406.391290,-962.267725,-9576.193725
816.578321,370.102971,-962.267725,-9652.803275
816.578641,3256.906145,370.102971,-10189.070123
816.578961,-592.164754,1036.288319,-9959.241474
816.579281,-2886.803174,888.247130,-8580.269578
816.579601,-740.205942,-1036.288319,-9499.584175
816.579921,1628.453072,-1850.514855,-9806.022374
816.580242,814.226536,-518.144159,-9729.412825
816.580562,-1406.391290,-148.041188,-8656.879127
816.580882,0.000000,0.000000,-9499.584175
816.581202,2590.720797,-592.164754,-9806.022374
816.581522,2812.782580,1332.370696,-10495.508323
816.581842,-962.267725,2072.576638,-9959.241474
816.582162,-1702.473667,3404.947333,-10035.851024
816.582482,666.185348,1702.473667,-10189.070123
816.582802,2516.700203,1110.308913,-10265.679673
816.583122,370.102971,444.123565,-9882.631924
816.583442,-296.082377,1554.432478,-10648.727422
816.583762,2368.659014,1406.391290,-10035.851024
816.584082,3256.906145,1998.556043,-10648.727422
816.584402,1258.350101,2072.576638,-10112.460574
816.584722,-814.226536,2886.803174,-9882.631924
816.585042,74.020594,1998.556043,-10265.679673
816.585363,2590.720797,1406.391290,-10189.070123
816.585683,1628.453072,1184.329507,-10265.679673
816.586003,962.267725,1036.288319,-9959.241474
816.586323,1554.432478,148.041188,-9806.022374
816.586643,2294.638420,1036.288319,-10572.117872
816.586963,1924.535449,1628.453072,-10495.508323
816.587283,-296.082377,1924.535449,-10189.070123
816.587603,0.000000,1554.432478,-8963.317327
816.587923,2220.617826,666.185348,-9882.631924
816.588243,2294.638420,-518.144159,-10189.070123
816.588563,296.082377,-1184.329507,-9806.022374
816.588883,-296.082377,-2072.576638,-9269.755526
816.589203,2368.659014,-1332.370696,-9269.755526
816.589523,2368.659014,518.144159,-10495.508323
816.589843,-296.082377,1628.453072,-10495.508323
816.590163,-1998.556043,1702.473667,-9729.412825
816.590483,-592.164754,222.061783,-9422.974625
816.590804,1924.535449,0.000000,-10035.851024
816.591124,1332.370696,-740.205942,-9959.241474
816.591444,-1406.391290,-1184.329507,-9652.803275
816.591764,-296.082377,-1258.350101,-9729.412825
816.592084,518.144159,444.123565,-9806.022374
816.592404,888.247130,148.041188,-10495.508323
816.592724,-666.185348,1258.350101,-10648.727422
816.593044,-2146.597232,444.123565,-9346.365076
816.593364,1258.350101,-296.082377,-11721.261119
816.593684,2368.659014,0.000000,-10342.289223
816.594004,-148.041188,-962.267725,-9806.022374
816.594324,-962.267725,-962.267725,-9959.241474
816.594644,444.123565,0.000000,-10342.289223
816.594964,666.185348,-222.061783,-10955.165621
816.595284,-296.082377,0.000000,-10725.336972
816.595604,-2516.700203,666.185348,-10265.679673
816.595925,-370.102971,296.082377,-10418.898773
816.596245,2812.782580,-370.102971,-10725.336972
816.596565,1406.391290,-1406.391290,-10418.898773
816.596885,-1332.370696,-2442.679609,-10189.070123
816.597205,-666.185348,-2886.803174,-10189.070123
816.597525,2738.761985,148.041188,-10955.165621
816.597845,2220.617826,1924.535449,-11108.384721
816.598165,148.041188,2072.576638,-10572.117872
816.598485,-370.102971,1036.288319,-10189.070123
816.598805,1850.514855,444.123565,-10572.117872
816.599125,3997.112087,222.061783,-10265.679673
816.599445,2146.597232,-888.247130,-9652.803275
816.599765,-592.164754,-740.205942,-9882.631924
816.600085,888.247130,-962.267725,-9576.193725
816.600405,1332.370696,666.185348,-10265.679673
816.600725,-1924.535449,0.000000,-9576.193725
816.601045,-2220.617826,296.082377,-9652.803275
816.601366,-666.185348,-666.185348,-8886.707777
816.601686,2072.576638,-814.226536,-9652.803275
816.602006,2738.761985,592.164754,-9116.536426
816.602326,666.185348,-444.123565,-9806.022374
816.602646,814.226536,-1036.288319,-9652.803275
816.602966,1702.473667,-296.082377,-9652.803275
816.603286,0.000000,74.020594,-10801.946522
816.603606,-1554.432478,370.102971,-9576.193725
816.603926,-2294.638420,-222.061783,-9806.022374
816.604246,74.020594,-370.102971,-10189.070123
816.604566,296.082377,592.164754,-10572.117872
816.604886,-1554.432478,1332.370696,-10112.460574
816.605206,-592.164754,1036.288319,-10418.898773
816.605526,1184.329507,518.144159,-10418.898773
816.605846,592.164754,1554.432478,-10418.898773
816.606166,-1850.514855,1702.473667,-10418.898773
816.606487,-2442.679609,1924.535449,-9882.631924
816.606807,-222.061783,1110.308913,-10189.070123
816.607127,3034.844362,888.247130,-10495.508323
816.607447,1998.556043,74.020594,-10265.679673
816.607767,-222.061783,-222.061783,-9806.022374
816.608087,740.205942,148.041188,-10189.070123
816.608407,1554.432478,1702.473667,-10342.289223
816.608727,962.267725,2442.679609,-10572.117872
816.609047,-1480.411884,2812.782580,-10112.460574
816.609367,-888.247130,814.226536,-9269.755526
816.609687,1998.556043,-222.061783,-10035.851024
816.610007,2812.782580,0.000000,-10418.898773
816.610327,1184.329507,592.164754,-10112.460574
816.610647,0.000000,1332.370696,-9346.365076
816.610967,1998.556043,2738.761985,-10112.460574
816.611287,2960.823768,2516.700203,-10112.460574
816.611607,1776.494261,1850.514855,-10112.460574
816.611928,0.000000,74.020594,-8656.879127
816.612248,370.102971,-370.102971,-9576.193725
816.612568,962.267725,0.000000,-10189.070123
816.612888,518.144159,592.164754,-9729.412825
816.613208,-148.041188,222.061783,-9729.412825
816.613528,1036.288319,370.102971,-9959.241474
816.613848,3034.844362,962.267725,-9959.241474
816.614168,1924.535449,2146.597232,-10725.336972
816.614488,-1036.288319,1924.535449,-10112.460574
816.614808,-1258.350101,962.267725,-9806.022374
816.615128,1258.350101,370.102971,-10495.508323
816.615448,1628.453072,0.000000,-10495.508323
816.615768,-1184.329507,0.000000,-10189.070123
816.616088,-1406.391290,666.185348,-10572.117872
816.616408,740.205942,2146.597232,-10648.727422
816.616728,1924.535449,1998.556043,-11108.384721
816.617049,296.082377,1036.288319,-10648.727422
816.617369,-1776.494261,-814.226536,-9806.022374
816.617689,-222.061783,-2664.741391,-9729.412825
816.618009,2368.659014,-2590.720797,-10418.898773
816.618329,1332.370696,-1110.308913,-10112.460574
816.618649,-296.082377,962.267725,-9882.631924
816.618969,1406.391290,518.144159,-10112.460574
816.619289,3034.844362,0.000000,-9959.241474
816.619609,1258.350101,-666.185348,-10265.679673
816.619929,-2368.659014,-1184.329507,-9193.145976
816.620249,-2220.617826,-1628.453072,-9576.193725
816.620569,814.226536,-2664.741391,-10495.508323
816.620889,1702.473667,-2812.782580,-9882.631924
816.621209,0.000000,-1554.432478,-9422.974625
816.621529,-2886.803174,0.000000,-9346.365076
816.621849,740.205942,1036.288319,-9499.584175
816.622169,2146.597232,2368.659014,-10725.336972
816.622490,814.226536,1258.350101,-10035.851024
816.622810,-666.185348,-222.061783,-9806.022374
816.623130,0.000000,-3256.906145,-9499.584175
816.623450,2368.659014,-3330.926739,-9959.241474
816.623770,1110.308913,-1998.556043,-10189.070123
816.624090,-1110.308913,740.205942,-9959.241474
816.624410,74.020594,2516.700203,-10572.117872
816.624730,1480.411884,2368.659014,-11874.480219
816.625050,1850.514855,888.247130,-10955.165621
816.625370,-1332.370696,-296.082377,-10112.460574
816.625690,-1036.288319,-1258.350101,-9882.631924
816.626010,2368.659014,-1036.288319,-10648.727422
816.626330,3108.864956,-296.082377,-10572.117872
816.626650,740.205942,74.020594,-9882.631924
816.626970,-592.164754,592.164754,-10342.289223
816.627290,0.000000,-444.123565,-9882.631924
816.627611,3256.906145,-296.082377,-11414.822920
816.627931,962.267725,518.144159,-10189.070123
816.628251,-1924.535449,1480.411884,-10265.679673
816.628571,-962.267725,962.267725,-10418.898773
816.628891,296.082377,0.000000,-10265.679673
816.629211,148.041188,-1406.391290,-9652.803275
816.629531,-148.041188,-666.185348,-9959.241474
816.629851,888.247130,74.020594,-10265.679673
816.630171,3923.091493,1480.411884,-11108.384721
816.630491,2294.638420,1480.411884,-10189.070123
816.630811,-814.226536,2590.720797,-10265.679673
816.631131,-1554.432478,1480.411884,-9729.412825
816.631451,962.267725,1110.308913,-10342.289223
816.631772,2146.597232,2516.700203,-10265.679673
816.632092,74.020594,1924.535449,-9729.412825
816.632412,-1776.494261,666.185348,-9652.803275
816.632732,74.020594,0.000000,-9806.022374
816.633052,1628.453072,-296.082377,-10112.460574
816.633372,0.000000,-740.205942,-9193.145976
816.633692,-3478.967927,-666.185348,-9499.584175
816.634013,-1184.329507,0.000000,-8963.317327
816.634333,1110.308913,1554.432478,-10112.460574
816.634653,962.267725,2294.638420,-10955.165621
816.634973,-666.185348,1850.514855,-9116.536426
816.635293,-1554.432478,0.000000,-10112.460574
816.635613,1850.514855,-814.226536,-9806.022374
816.635934,1702.473667,0.000000,-10189.070123
816.636254,-1332.370696,1110.308913,-9806.022374
816.636574,-1258.350101,1258.350101,-10035.851024
816.636894,1850.514855,1406.391290,-9959.241474
816.637214,2590.720797,814.226536,-10112.460574
816.637534,1184.329507,-296.082377,-9806.022374
816.637855,-962.267725,-222.061783,-9193.145976
816.638175,2072.576638,1036.288319,-9959.241474
816.638495,3404.947333,2664.741391,-10955.165621
816.638815,1036.288319,2664.741391,-10725.336972
816.639135,74.020594,2146.597232,-10112.460574
816.639455,1850.514855,888.247130,-10035.851024
816.639776,3849.070898,444.123565,-10342.289223
816.640096,2590.720797,888.247130,-10342.289223
816.640416,296.082377,1406.391290,-9499.584175
816.640736,444.123565,592.164754,-10418.898773
816.641056,2368.659014,0.000000,-10495.508323
816.641376,962.267725,-370.102971,-10265.679673
816.641697,-2072.576638,592.164754,-9729.412825
816.642017,-2368.659014,1628.453072,-9576.193725
816.642337,962.267725,1036.288319,-10112.460574
816.642657,2590.720797,1184.329507,-10572.117872
816.642977,888.247130,-888.247130,-9729.412825
816.643297,666.185348,-592.164754,-10035.851024
816.643618,2072.576638,-1332.370696,-9959.241474
816.643938,3256.906145,0.000000,-10418.898773
816.644258,0.000000,740.205942,-10035.851024
816.644578,-1776.494261,814.226536,-9193.145976
816.644898,444.123565,444.123565,-9652.803275
816.645218,1998.556043,-296.082377,-10035.851024
816.645539,962.267725,-888.247130,-10265.679673
816.645859,-2368.659014,0.000000,-9652.803275
816.646179,-1776.494261,370.102971,-9806.022374
816.646499,2220.617826,814.226536,-10189.070123
816.646819,1036.288319,0.000000,-10112.460574
816.647139,-2294.638420,-296.082377,-9729.412825
816.647460,-3108.864956,-1850.514855,-9652.803275
816.647780,-370.102971,-814.226536,-10265.679673
816.648100,888.247130,0.000000,-10495.508323
816.648420,-592.164754,814.226536,-10495.508323
816.648740,-1480.411884,1110.308913,-10112.460574
816.649060,1258.350101,592.164754,-10418.898773
816.649381,2664.741391,222.061783,-11108.384721
816.649701,-370.102971,-222.061783,-10418.898773
816.650021,-2886.803174,-814.226536,-9729.412825
816.650341,-444.123565,-1554.432478,-9882.631924
816.650661,2590.720797,-1406.391290,-10342.289223
816.650981,2146.597232,-814.226536,-10189.070123
816.651302,-296.082377,148.041188,-10572.117872
816.651622,888.247130,148.041188,-10035.851024
816.651942,3775.050304,1110.308913,-10725.336972
816.652262,1332.370696,1406.391290,-10725.336972
816.652582,-2368.659014,592.164754,-10265.679673
816.652902,-2886.803174,-740.205942,-9576.193725
816.653222,666.185348,-888.247130,-9499.584175
816.653543,3627.009116,-1850.514855,-9959.241474
816.653863,2368.659014,-370.102971,-10189.070123
816.654183,0.000000,296.082377,-10035.851024
816.654503,518.144159,1628.453072,-10112.460574
816.654823,2516.700203,1924.535449,-9959.241474
816.655143,962.267725,2146.597232,-10648.727422
816.655464,296.082377,518.144159,-9576.193725
816.655784,888.247130,-1480.411884,-9269.755526
816.656104,1480.411884,-2146.597232,-9806.022374
816.656424,2368.659014,-2072.576638,-9729.412825
816.656744,-592.164754,-222.061783,-9729.412825
816.657064,518.144159,1184.329507,-10035.851024
816.657385,1702.473667,2442.679609,-10801.946522
816.657705,-1332.370696,2664.741391,-10955.165621
816.658025,-2146.597232,1702.473667,-9882.631924
816.658345,-2812.782580,-296.082377,-9882.631924
816.658665,0.000000,-1554.432478,-10189.070123
816.658985,2368.659014,-1702.473667,-10418.898773
816.659306,148.041188,-2368.659014,-9959.241474
816.659626,-592.164754,-740.205942,-9806.022374
816.659946,518.144159,2368.659014,-10342.289223
816.660266,1702.473667,3923.091493,-11184.994271
816.660586,222.061783,4515.256246,-10648.727422
816.660906,-2368.659014,2442.679609,-10112.460574
816.661227,-814.226536,-1184.329507,-9806.022374
816.661547,1702.473667,-2664.741391,-9652.803275
816.661867,0.000000,-3478.967927,-9269.755526
816.662187,-2886.803174,-2664.741391,-9346.365076
816.662507,-2590.720797,-888.247130,-9806.022374
816.662827,592.164754,1480.411884,-10112.460574
816.663148,1036.288319,3034.844362,-10878.556072
816.663468,-1776.494261,2294.638420,-9806.022374
816.663788,-2368.659014,1332.370696,-10189.070123
816.664108,296.082377,296.082377,-9882.631924
816.664428,2738.761985,444.123565,-10801.946522
816.664748,518.144159,-148.041188,-9806.022374
816.665069,-740.205942,444.123565,-9806.022374
816.665389,2368.659014,0.000000,-9729.412825
816.665709,4515.256246,1258.350101,-10955.165621
816.666029,1554.432478,1554.432478,-11261.603821
816.666349,-2442.679609,1850.514855,-9576.193725
816.666669,-1406.391290,518.144159,-9729.412825
816.666990,2516.700203,444.123565,-10189.070123
816.667310,3108.864956,-1554.432478,-9959.241474
816.667630,148.041188,-1406.391290,-10418.898773
816.667950,1332.370696,-1110.308913,-9806.022374
816.668270,4589.276840,1184.329507,-10265.679673
816.668590,3997.112087,2294.638420,-10801.946522
816.668911,2072.576638,1850.514855,-9959.241474
816.669231,-592.164754,1258.350101,-9806.022374
816.669551,1850.514855,148.041188,-9882.631924
816.669871,3404.947333,-222.061783,-10035.851024
816.670191,1998.556043,-666.185348,-10265.679673
816.670511,1480.411884,-1406.391290,-9882.631924
816.670832,2960.823768,148.041188,-10189.070123
816.671152,3478.967927,2072.576638,-10495.508323
816.671472,1480.411884,2738.761985,-10265.679673
816.671792,-370.102971,3404.947333,-10342.289223
816.672112,222.061783,2516.700203,-10112.460574
816.672432,2368.659014,1110.308913,-10342.289223
816.672752,2294.638420,-962.267725,-10112.460574
816.673073,518.144159,-1850.514855,-9806.022374
816.673393,592.164754,-1406.391290,-9499.584175
816.673713,1924.535449,-296.082377,-10035.851024
816.674033,148.041188,1258.350101,-10189.070123
816.674353,-2590.720797,1406.391290,-9806.022374
816.674673,-2886.803174,1480.411884,-9806.022374
816.674994,-222.061783,592.164754,-10265.679673
816.675314,2664.741391,296.082377,-10495.508323
816.675634,1702.473667,0.000000,-10265.679673
816.675954,-518.144159,-222.061783,-9959.241474
816.676274,-296.082377,0.000000,-10035.851024
816.676594,-962.267725,0.000000,-10189.070123
816.676915,-2146.597232,296.082377,-10265.679673
816.677235,-5033.400406,74.020594,-9729.412825
816.677555,-4219.173869,-1036.288319,-9729.412825
816.677875,0.000000,0.000000,-10112.460574
816.678195,-148.041188,-518.144159,-10495.508323
816.678515,-1554.432478,-666.185348,-9959.241474
816.678836,-1850.514855,-1702.473667,-9346.365076
816.679156,148.041188,-444.123565,-10189.070123
816.679476,814.226536,666.185348,-10265.679673
816.679796,-962.267725,1184.329507,-10342.289223
816.680116,-2368.659014,666.185348,-9806.022374
816.680436,888.247130,-1332.370696,-9882.631924
816.680757,1850.514855,-1554.432478,-10035.851024
816.681077,1110.308913,-1332.370696,-9806.022374
816.681397,-296.082377,0.000000,-9882.631924
816.681717,444.123565,1110.308913,-10112.460574
816.682037,2368.659014,444.123565,-10265.679673
816.682357,1258.350101,74.020594,-10112.460574
816.682678,-518.144159,-148.041188,-9806.022374
816.682998,0.000000,-370.102971,-10265.679673
816.683318,3108.864956,-666.185348,-10648.727422
816.683638,4145.153275,-296.082377,-10572.117872
816.683958,1554.432478,814.226536,-10801.946522
816.684278,296.082377,148.041188,-10265.679673
816.684599,1406.391290,74.020594,-11338.213370
816.684919,1554.432478,-296.082377,-10572.117872
816.685239,-592.164754,148.041188,-10342.289223
816.685559,-2146.597232,296.082377,-10418.898773
816.685879,222.061783,0.000000,-10342.289223
816.686199,2146.597232,-518.144159,-10801.946522
816.686520,1406.391290,0.000000,-10572.117872
816.686840,0.000000,814.226536,-10035.851024
816.687160,1184.329507,222.061783,-10265.679673
816.687480,3478.967927,1110.308913,-10035.851024
816.687800,518.144159,74.020594,-10189.070123
816.688120,-1554.432478,0.000000,-9806.022374
816.688441,0.000000,-592.164754,-9959.241474
816.688761,2590.720797,-740.205942,-9039.926876
816.689081,2516.700203,296.082377,-9652.803275
816.689401,666.185348,1036.288319,-9269.755526
816.689721,0.000000,1554.432478,-9422.974625
816.690041,962.267725,1110.308913,-9882.631924
816.690362,1110.308913,888.247130,-9806.022374
816.690682,-2368.659014,-370.102971,-9499.584175
816.691002,-2960.823768,-962.267725,-9039.926876
816.691322,-518.144159,-962.267725,-10035.851024
816.691642,1628.453072,222.061783,-9576.193725
816.691962,370.102971,1554.432478,-10112.460574
816.692282,-1628.453072,2368.659014,-9806.022374
816.692603,814.226536,2442.679609,-10112.460574
816.692923,1554.432478,1850.514855,-10648.727422
816.693243,1036.288319,962.267725,-10342.289223
816.693563,-1702.473667,0.000000,-10035.851024
816.693883,-1110.308913,-666.185348,-10035.851024
816.694203,962.267725,-444.123565,-10265.679673
816.694524,518.144159,962.267725,-10572.117872
816.694844,-1924.535449,2442.679609,-10342.289223
816.695164,-592.164754,2442.679609,-10265.679673
816.695484,1850.514855,1850.514855,-10801.946522
816.695804,2368.659014,1480.411884,-11184.994271
816.696124,222.061783,1110.308913,-9959.241474
816.696445,0.000000,888.247130,-9806.022374
816.696765,2294.638420,1110.308913,-10418.898773
816.697085,3256.906145,814.226536,-10418.898773
816.697405,1998.556043,0.000000,-10878.556072
816.697725,370.102971,-222.061783,-9499.584175
816.698045,1480.411884,74.020594,-10189.070123
816.698366,3034.844362,1036.288319,-10418.898773
816.698686,1258.350101,1110.308913,-10189.070123
816.699006,-1184.329507,1480.411884,-9959.241474
816.699326,888.247130,592.164754,-10035.851024
816.699646,3256.906145,0.000000,-9959.241474
816.699966,3256.906145,0.000000,-9806.022374
816.700287,1554.432478,1406.391290,-8886.707777
816.700607,1776.494261,296.082377,-9806.022374
816.700927,3256.906145,518.144159,-10112.460574
816.701247,1998.556043,-518.144159,-10648.727422
816.701567,-296.082377,-444.123565,-9882.631924
816.701887,-1406.391290,74.020594,-9806.022374
816.702208,592.164754,-296.082377,-10035.851024
816.702528,2220.617826,-296.082377,-10418.898773
816.702848,592.164754,-888.247130,-9806.022374
816.703168,-296.082377,444.123565,-11414.822920
816.703488,296.082377,74.020594,-10418.898773
816.703808,1480.411884,1258.350101,-11414.822920
816.704129,222.061783,666.185348,-10955.165621
816.704449,-2072.576638,-740.205942,-10265.679673
816.704769,-1480.411884,-1184.329507,-10265.679673
816.705089,0.000000,-1258.350101,-10648.727422
816.705409,-370.102971,-814.226536,-10801.946522
816.705729,-1776.494261,296.082377,-10189.070123
816.706050,-444.123565,666.185348,-10418.898773
816.706370,1406.391290,1406.391290,-11031.775171
816.706690,1332.370696,296.082377,-10878.556072
816.707010,-1258.350101,-444.123565,-10418.898773
816.707330,-2220.617826,-1776.494261,-9499.584175
816.707650,148.041188,-2220.617826,-9729.412825
816.707971,1850.514855,-2516.700203,-9806.022374
816.708291,666.185348,-740.205942,-9652.803275
816.708611,0.000000,1036.288319,-9882.631924
816.708931,1184.329507,1998.556043,-9806.022374
816.709251,2220.617826,1924.535449,-10725.336972
816.709571,-962.267725,740.205942,-10112.460574
816.709891,-4293.194464,-888.247130,-9576.193725
816.710212,-2812.782580,-2220.617826,-8886.707777
816.710532,-148.041188,-2738.761985,-9576.193725
816.710852,1480.411884,-2664.741391,-10035.851024
816.711172,666.185348,-666.185348,-9499.584175
816.711492,740.205942,666.185348,-9882.631924
816.711812,3256.906145,2664.741391,-10189.070123
816.712133,2072.576638,2664.741391,-10648.727422
816.712453,-74.020594,1480.411884,-9882.631924
816.712773,-888.247130,-666.185348,-9729.412825
816.713093,1184.329507,-1998.556043,-11797.870669
816.713413,1998.556043,-2368.659014,-10342.289223
816.713733,-370.102971,-1184.329507,-9882.631924
816.714054,-2368.659014,962.267725,-9882.631924
816.714374,222.061783,2812.782580,-10342.289223
816.714694,2072.576638,4293.194464,-11414.822920
816.715014,888.247130,3627.009116,-11031.775171
816.715334,-1184.329507,1184.329507,-9882.631924
816.715654,-1110.308913,-1776.494261,-10035.851024
816.715975,2072.576638,-3330.926739,-9576.193725
816.716295,2294.638420,-3034.844362,-9959.241474
816.716615,814.226536,-592.164754,-10418.898773
816.716935,1628.453072,1850.514855,-9882.631924
816.717255,3108.864956,4219.173869,-10878.556072
816.717575,1480.411884,4367.215058,-10878.556072
816.717896,-2294.638420,3182.885551,-10112.460574
816.718216,-3034.844362,592.164754,-9959.241474
816.718536,-370.102971,-1554.432478,-9806.022374
816.718856,1924.535449,-2368.659014,-9729.412825
816.719176,962.267725,-1184.329507,-9882.631924
816.719496,592.164754,-296.082377,-9729.412825
816.719817,2220.617826,1628.453072,-10189.070123
816.720137,3108.864956,3478.967927,-10035.851024
816.720457,814.226536,3404.947333,-10035.851024
816.720777,-1184.329507,2072.576638,-10265.679673
816.721097,-148.041188,370.102971,-10112.460574
816.721417,1998.556043,0.000000,-10342.289223
816.721738,2072.576638,-444.123565,-9806.022374
816.722058,444.123565,-74.020594,-9959.241474
816.722378,740.205942,1480.411884,-10265.679673
816.722698,2812.782580,2960.823768,-10801.946522
816.723018,1924.535449,3775.050304,-10801.946522
816.723338,-1554.432478,2442.679609,-9882.631924
816.723659,-2812.782580,-592.164754,-9652.803275
816.723979,-1184.329507,-1924.535449,-9422.974625
816.724299,740.205942,-1850.514855,-9576.193725
816.724619,740.205942,-148.041188,-9806.022374
816.724939,0.000000,814.226536,-9959.241474
816.725259,1480.411884,1776.494261,-10495.508323
816.725580,2738.761985,1554.432478,-10189.070123
816.725900,2368.659014,296.082377,-10035.851024
816.726220,-1036.288319,1110.308913,-9959.241474
816.726540,-1258.350101,222.061783,-9729.412825
816.726860,592.164754,-444.123565,-9882.631924
816.727180,1702.473667,-370.102971,-9729.412825
816.727501,814.226536,-1406.391290,-9422.974625
816.727821,888.247130,-1110.308913,-10035.851024
816.728141,2516.700203,296.082377,-10189.070123
816.728461,1702.473667,1554.432478,-10495.508323
816.728781,-1480.411884,3034.844362,-9422.974625
816.729101,-3182.885551,1110.308913,-9729.412825
816.729421,-1998.556043,-518.144159,-10112.460574
816.729742,1036.288319,-2220.617826,-9729.412825
816.730062,1110.308913,-2664.741391,-9806.022374
816.730382,1554.432478,-1628.453072,-9959.241474
816.730702,2886.803174,74.020594,-10572.117872
816.731022,3923.091493,1702.473667,-11108.384721
816.731342,2442.679609,2220.617826,-10572.117872
816.731663,222.061783,2220.617826,-10418.898773
816.731983,0.000000,1036.288319,-10648.727422
816.732303,1998.556043,-592.164754,-10342.289223
816.732623,2738.761985,-1554.432478,-10265.679673
816.732943,814.226536,-1702.473667,-9652.803275
816.733263,592.164754,-1776.494261,-10112.460574
816.733584,2220.617826,370.102971,-10189.070123
816.733904,1332.370696,1628.453072,-10725.336972
816.734224,74.020594,2442.679609,-10418.898773
816.734544,-444.123565,1554.432478,-9882.631924
816.734864,1110.308913,592.164754,-10265.679673
816.735184,2072.576638,-1110.308913,-10265.679673
816.735505,666.185348,-1702.473667,-9882.631924
816.735825,148.041188,-1184.329507,-9806.022374
816.736145,1924.535449,0.000000,-10342.289223
816.736465,2220.617826,1184.329507,-10265.679673
816.736785,370.102971,1702.473667,-10342.289223
816.737105,-2220.617826,1776.494261,-9959.241474
816.737425,-1258.350101,74.020594,-9806.022374
816.737746,74.020594,-222.061783,-9959.241474
816.738066,-222.061783,-1258.350101,-10035.851024
816.738386,-2664.741391,-1184.329507,-9652.803275
816.738706,-2590.720797,-1258.350101,-9652.803275
816.739026,-962.267725,-962.267725,-9806.022374
816.739346,-962.267725,-962.267725,-10495.508323
816.739667,-2738.761985,0.000000,-10035.851024
816.739987,-3849.070898,-296.082377,-9806.022374
816.740307,-1628.453072,-296.082377,-10495.508323
816.740627,-888.247130,814.226536,-10495.508323
816.740947,-2812.782580,148.041188,-10342.289223
816.741267,-2368.659014,222.061783,-10112.460574
816.741587,1184.329507,0.000000,-10725.336972
816.741908,2368.659014,0.000000,-10648.727422
816.742228,740.205942,888.247130,-10495.508323
816.742548,-1554.432478,962.267725,-10189.070123
816.742868,-814.226536,1332.370696,-10112.460574
816.743188,1850.514855,814.226536,-10189.070123
816.743508,2294.638420,740.205942,-10418.898773
816.743829,1184.329507,592.164754,-9729.412825
816.744149,1776.494261,814.226536,-9576.193725
816.744469,4219.173869,1480.411884,-9652.803275
816.744789,3627.009116,1036.288319,-9882.631924
816.745109,1554.432478,740.205942,-9806.022374
816.745429,148.041188,814.226536,-9652.803275
816.745750,1332.370696,0.000000,-9652.803275
816.746070,3108.864956,-296.082377,-9499.584175
816.746390,2590.720797,444.123565,-9959.241474
816.746710,1406.391290,518.144159,-9652.803275
816.747030,1924.535449,1184.329507,-9806.022374
816.747350,2812.782580,1258.350101,-10112.460574
816.747670,1406.391290,592.164754,-9882.631924
816.747991,-1036.288319,-148.041188,-9882.631924
816.748311,-888.247130,-296.082377,-9882.631924
816.748631,2590.720797,-518.144159,-9806.022374
816.748951,3256.906145,0.000000,-10495.508323
816.749271,1554.432478,222.061783,-10725.336972
816.749591,148.041188,740.205942,-9806.022374
816.749912,1184.329507,1554.432478,-10725.336972
816.750232,2590.720797,2516.700203,-10955.165621
816.750552,222.061783,1702.473667,-10572.117872
816.750872,-1406.391290,1110.308913,-10112.460574
816.751192,-148.041188,0.000000,-10495.508323
816.751512,888.247130,-1110.308913,-10189.070123
816.751833,0.000000,-1258.350101,-9959.241474
816.752153,-2072.576638,0.000000,-10112.460574
816.752473,-1924.535449,888.247130,-9959.241474
816.752793,-1554.432478,1332.370696,-10572.117872
816.753113,-2072.576638,740.205942,-10112.460574
816.753433,-3923.091493,740.205942,-9806.022374
816.753753,-2220.617826,0.000000,-9882.631924
816.754074,1554.432478,-814.226536,-10418.898773
816.754394,2072.576638,-222.061783,-10725.336972
816.754714,-740.205942,-740.205942,-9729.412825
816.755034,-1480.411884,-666.185348,-9499.584175
816.755354,-74.020594,-296.082377,-10112.460574
816.755674,-740.205942,370.102971,-9959.241474
816.755995,-2146.597232,1110.308913,-9729.412825
816.756315,-3701.029710,444.123565,-9422.974625
816.756635,-1184.329507,-740.205942,-9729.412825
816.756955,888.247130,-1628.453072,-10265.679673
816.757275,444.123565,-1554.432478,-9576.193725
816.757595,-518.144159,-962.267725,-9269.755526
816.757915,2442.679609,296.082377,-9882.631924
816.758236,5033.400406,1480.411884,-10725.336972
816.758556,3997.112087,1628.453072,-10801.946522
816.758876,296.082377,1184.329507,-9959.241474
816.759196,296.082377,-740.205942,-9806.022374
816.759516,3478.967927,-888.247130,-10189.070123
816.759836,3997.112087,0.000000,-10648.727422
816.760157,740.205942,370.102971,-10342.289223
816.760477,222.061783,222.061783,-10112.460574
816.760797,2220.617826,296.082377,-10495.508323
816.761117,2664.741391,1776.494261,-10801.946522
816.761437,1036.288319,1998.556043,-10648.727422
816.761757,1924.535449,1924.535449,-10112.460574
816.762078,4441.235652,814.226536,-10648.727422
816.762398,4959.379811,370.102971,-10495.508323
816.762718,2442.679609,-370.102971,-10189.070123
816.763038,1110.308913,-518.144159,-9652.803275
816.763358,2368.659014,0.000000,-10112.460574
816.763678,3849.070898,1554.432478,-10495.508323
816.763998,1332.370696,1480.411884,-10342.289223
816.764319,-1332.370696,962.267725,-9806.022374
816.764639,-962.267725,0.000000,-9959.241474
816.764959,740.205942,-148.041188,-10035.851024
816.765279,518.144159,148.041188,-10035.851024
816.765599,-740.205942,0.000000,-9499.584175
816.765919,-148.041188,-222.061783,-9576.193725
816.766240,3108.864956,-370.102971,-10418.898773
816.766560,2664.741391,518.144159,-9959.241474
816.766880,-2072.576638,1110.308913,-10189.070123
816.767200,-4515.256246,1036.288319,-9346.365076
816.767520,-2220.617826,148.041188,-9346.365076
816.767840,814.226536,-148.041188,-9806.022374
816.768161,-370.102971,-296.082377,-9806.022374
816.768481,-2442.679609,0.000000,-9882.631924
816.768801,-1998.556043,1258.350101,-10189.070123
816.769121,-296.082377,1628.453072,-10572.117872
816.769441,-1480.411884,1036.288319,-10189.070123
816.769761,-4219.173869,0.000000,-9806.022374
816.770081,-2516.700203,-1184.329507,-9576.193725
816.770402,222.061783,-592.164754,-10495.508323
816.770722,666.185348,592.164754,-10725.336972
816.771042,-888.247130,1628.453072,-10495.508323
816.771362,-1332.370696,2072.576638,-10418.898773
816.771682,962.267725,1628.453072,-10878.556072
816.772002,370.102971,148.041188,-10725.336972
816.772323,-2146.597232,-518.144159,-10342.289223
816.772643,-2664.741391,-444.123565,-9959.241474
816.772963,1036.288319,74.020594,-10418.898773
816.773283,3330.926739,1036.288319,-10725.336972
816.773603,1406.391290,1406.391290,-10418.898773
816.773923,-888.247130,1184.329507,-9806.022374
816.774244,1332.370696,814.226536,-10189.070123
816.774564,3997.112087,1036.288319,-10189.070123
816.774884,3404.947333,962.267725,-9806.022374
816.775204,0.000000,222.061783,-9806.022374
816.775524,74.020594,-740.205942,-9576.193725
816.775844,1998.556043,-888.247130,-8580.269578
816.776164,2368.659014,148.041188,-9806.022374
816.776485,0.000000,592.164754,-9806.022374
816.776805,444.123565,1184.329507,-9576.193725
816.777125,3627.009116,1850.514855,-10035.851024
816.777445,4071.132681,1628.453072,-10342.289223
816.777765,666.185348,0.000000,-9959.241474
816.778085,-518.144159,-888.247130,-9499.584175
816.778406,2590.720797,-1480.411884,-9806.022374
816.778726,4219.173869,-740.205942,-10418.898773
816.779046,2886.803174,-592.164754,-10189.070123
816.779366,296.082377,74.020594,-9882.631924
816.779686,1406.391290,444.123565,-10418.898773
816.780006,3256.906145,592.164754,-9499.584175
816.780326,1554.432478,222.061783,-10418.898773
816.780647,-1332.370696,74.020594,-10035.851024
816.780967,-1258.350101,-370.102971,-9959.241474
816.781287,1184.329507,-296.082377,-10725.336972
816.781607,2072.576638,0.000000,-10955.165621
816.781927,-592.164754,0.000000,-10342.289223
816.782247,-518.144159,518.144159,-10418.898773
816.782568,740.205942,1258.350101,-10801.946522
816.782888,1184.329507,2368.659014,-10572.117872
816.783208,-1332.370696,1406.391290,-10495.508323
816.783528,-2368.659014,370.102971,-10112.460574
816.783848,296.082377,-1332.370696,-10265.679673
816.784168,1998.556043,-2294.638420,-10112.460574
816.784489,370.102971,-2368.659014,-9882.631924
816.784809,-2590.720797,-1628.453072,-9576.193725
816.785129,-1332.370696,222.061783,-9652.803275
816.785449,888.247130,1332.370696,-10342.289223
816.785769,-222.061783,2442.679609,-10189.070123
816.786089,-3404.947333,1406.391290,-10035.851024
816.786409,-1776.494261,592.164754,-10112.460574
816.786730,1554.432478,222.061783,-10112.460574
816.787050,1406.391290,-148.041188,-10265.679673
816.787370,-1110.308913,-666.185348,-10189.070123
816.787690,-1036.288319,-1184.329507,-9576.193725
816.788010,1480.411884,-1110.308913,-10189.070123
816.788330,1702.473667,444.123565,-10342.289223
816.788651,-1036.288319,1110.308913,-9806.022374
816.788971,-666.185348,2294.638420,-9806.022374
816.789291,2220.617826,1776.494261,-10112.460574
816.789611,3701.029710,1184.329507,-10495.508323
816.789931,1110.308913,0.000000,-9959.241474
816.790251,-1776.494261,-1628.453072,-9346.365076
816.790572,-370.102971,-1406.391290,-9652.803275
816.790892,1110.308913,444.123565,-10189.070123
816.791212,74.020594,1406.391290,-10189.070123
816.791532,-666.185348,1850.514855,-9882.631924
816.791852,740.205942,1480.411884,-10112.460574
816.792172,3256.906145,1776.494261,-10572.117872
816.792492,2590.720797,1924.535449,-10801.946522
816.792813,0.000000,1628.453072,-10112.460574
816.793133,1702.473667,0.000000,-9806.022374
816.793453,4515.256246,-666.185348,-10495.508323
816.793773,4293.194464,0.000000,-10648.727422
816.794093,592.164754,1332.370696,-10418.898773
816.794413,-518.144159,2516.700203,-10112.460574
816.794734,1480.411884,2738.761985,-10418.898773
816.795054,3034.844362,3330.926739,-10955.165621
816.795374,518.144159,2220.617826,-10495.508323
816.795694,-1258.350101,888.247130,-10801.946522
816.796014,888.247130,148.041188,-10035.851024
816.796334,1998.556043,-222.061783,-10189.070123
816.796654,1480.411884,148.041188,-10189.070123
816.796975,-888.247130,370.102971,-9806.022374
816.797295,-518.144159,222.061783,-9346.365076
816.797615,1480.411884,962.267725,-9652.803275
816.797935,1850.514855,1554.432478,-10189.070123
816.798255,-814.226536,1406.391290,-9652.803275
816.798575,-1258.350101,740.205942,-9652.803275
816.798896,0.000000,-518.144159,-9576.193725
816.799216,0.000000,-1628.453072,-9576.193725
816.799536,-2664.741391,-2072.576638,-9499.584175
816.799856,-4515.256246,-1998.556043,-9116.536426
816.800176,-1628.453072,-148.041188,-10418.898773
816.800496,1036.288319,1110.308913,-10035.851024
816.800817,0.000000,1480.411884,-9882.631924
816.801137,-1776.494261,148.041188,-9959.241474
816.801457,-1332.370696,-1332.370696,-9499.584175
816.801777,0.000000,-1850.514855,-10189.070123
816.802097,-666.185348,-1406.391290,-9806.022374
816.802417,-1628.453072,-888.247130,-9959.241474
816.802737,-296.082377,-444.123565,-10342.289223
816.803058,2368.659014,-962.267725,-10878.556072
816.803378,444.123565,-814.226536,-10648.727422
816.803698,-1036.288319,-444.123565,-10418.898773
816.804018,-518.144159,592.164754,-10495.508323
816.804338,1998.556043,1850.514855,-10342.289223
816.804658,3034.844362,1110.308913,-10955.165621
816.804979,1184.329507,-666.185348,-10572.117872
816.805299,0.000000,-2294.638420,-10112.460574
816.805619,222.061783,-2516.700203,-9959.241474
816.805939,1554.432478,-1258.350101,-10265.679673
816.806259,1110.308913,370.102971,-10572.117872
816.806579,74.020594,1110.308913,-10112.460574
816.806900,1480.411884,814.226536,-10572.117872
816.807220,2220.617826,-148.041188,-10418.898773
816.807540,1258.350101,-1702.473667,-10342.289223
816.807860,-1184.329507,-2220.617826,-9652.803275
816.808180,-518.144159,-2738.761985,-9346.365076
816.808500,2516.700203,-1702.473667,-9806.022374
816.808820,2886.803174,-1110.308913,-10265.679673
816.809141,0.000000,-370.102971,-9806.022374
816.809461,-814.226536,-296.082377,-9729.412825
816.809781,1702.473667,666.185348,-10265.679673
816.810101,3404.947333,444.123565,-11644.651570
816.810421,1924.535449,0.000000,-10035.851024
816.810741,-518.144159,-1628.453072,-9422.974625
816.811062,814.226536,-1480.411884,-9499.584175
816.811382,2812.782580,-592.164754,-9499.584175
816.811702,1110.308913,148.041188,-9959.241474
816.812022,-518.144159,962.267725,-10035.851024
816.812342,1332.370696,1184.329507,-10112.460574
816.812662,1184.329507,2146.597232,-10648.727422
816.812983,592.164754,592.164754,-10495.508323
816.813303,-2590.720797,592.164754,-10189.070123
816.813623,-1628.453072,-444.123565,-9959.241474
816.813943,1036.288319,74.020594,-10418.898773
816.814263,2072.576638,1480.411884,-9959.241474
816.814583,666.185348,1628.453072,-10495.508323
816.814903,814.226536,2220.617826,-10801.946522
816.815224,2368.659014,3182.885551,-10955.165621
816.815544,1258.350101,3923.091493,-10648.727422
816.815864,-888.247130,3701.029710,-10342.289223
816.816184,-2442.679609,1924.535449,-10035.851024
816.816504,-370.102971,296.082377,-10112.460574
816.816824,1258.350101,-296.082377,-10035.851024
816.817145,0.000000,518.144159,-9882.631924
816.817465,-592.164754,1258.350101,-9806.022374
816.817785,74.020594,1554.432478,-9499.584175
816.818105,1332.370696,1702.473667,-10035.851024
816.818425,888.247130,1110.308913,-9959.241474
816.818745,-962.267725,444.123565,-8963.317327
816.819065,296.082377,-222.061783,-9116.536426
816.819386,3108.864956,370.102971,-9806.022374
816.819706,3701.029710,1036.288319,-10035.851024
816.820026,666.185348,1406.391290,-9422.974625
816.820346,-1184.329507,962.267725,-9729.412825
816.820666,888.247130,1110.308913,-9959.241474
816.820986,1480.411884,1110.308913,-10112.460574
816.821307,74.020594,1332.370696,-10112.460574
816.821627,-814.226536,0.000000,-9576.193725
816.821947,-296.082377,-444.123565,-9729.412825
816.822267,740.205942,-148.041188,-10112.460574
816.822587,-740.205942,592.164754,-10342.289223
816.822907,-1776.494261,1850.514855,-9806.022374
816.823228,740.205942,1850.514855,-10189.070123
816.823548,3997.112087,1702.473667,-11184.994271
816.823868,3034.844362,518.144159,-10801.946522
816.824188,-962.267725,-296.082377,-10342.289223
816.824508,-1036.288319,-814.226536,-9422.974625
816.824828,1110.308913,0.000000,-10418.898773
816.825148,1998.556043,1480.411884,-10648.727422
816.825469,666.185348,1628.453072,-10801.946522
816.825789,-222.061783,1110.308913,-10189.070123
816.826109,962.267725,-296.082377,-10801.946522
816.826429,888.247130,-592.164754,-10418.898773
816.826749,-148.041188,-740.205942,-10112.460574
816.827069,-962.267725,-888.247130,-9576.193725
816.827390,296.082377,-444.123565,-10035.851024
816.827710,2516.700203,0.000000,-9959.241474
816.828030,1110.308913,-814.226536,-9806.022374
816.828350,0.000000,-1184.329507,-9882.631924
816.828670,1480.411884,-666.185348,-9806.022374
816.828990,2960.823768,0.000000,-9959.241474
816.829311,1480.411884,74.020594,-9806.022374
816.829631,-740.205942,444.123565,-9576.193725
816.829951,-666.185348,-518.144159,-9422.974625
816.830271,962.267725,-888.247130,-9806.022374
816.830591,1776.494261,-1110.308913,-9882.631924
816.830911,-592.164754,-444.123565,-9882.631924
816.831231,-370.102971,0.000000,-9499.584175
816.831551,2294.638420,148.041188,-9806.022374
816.831871,2738.761985,1554.432478,-10495.508323
816.832191,-370.102971,592.164754,-10265.679673
816.832511,-1776.494261,0.000000,-10342.289223
816.832831,296.082377,296.082377,-9882.631924
816.833152,1924.535449,666.185348,-10572.117872
816.833472,740.205942,888.247130,-10648.727422
816.833792,-1036.288319,74.020594,-10342.289223
816.834112,814.226536,-148.041188,-9576.193725
816.834432,1776.494261,-296.082377,-10572.117872
816.834752,0.000000,-444.123565,-10648.727422
816.835072,-2738.761985,518.144159,-10035.851024
816.835392,-2146.597232,740.205942,-10418.898773
816.835712,74.020594,962.267725,-10418.898773
816.836032,148.041188,222.061783,-10189.070123
816.836352,-1702.473667,-666.185348,-9882.631924
816.836672,-1110.308913,-1554.432478,-9806.022374
816.836992,1406.391290,-1332.370696,-9959.241474
816.837313,1628.453072,-814.226536,-9959.241474
816.837633,-1036.288319,-222.061783,-9806.022374
816.837953,-2294.638420,148.041188,-9576.193725
816.838273,296.082377,370.102971,-9729.412825
816.838593,1776.494261,740.205942,-8963.317327
816.838913,222.061783,296.082377,-9806.022374
816.839233,-1406.391290,-814.226536,-9422.974625
816.839553,666.185348,-1332.370696,-9576.193725
816.839873,2664.741391,-962.267725,-10035.851024
816.840193,1628.453072,0.000000,-9806.022374
816.840513,-962.267725,1258.350101,-9652.803275
816.840833,222.061783,1628.453072,-9729.412825
816.841153,2664.741391,1776.494261,-10342.289223
816.841474,2960.823768,1554.432478,-10572.117872
816.841794,296.082377,-740.205942,-10418.898773
816.842114,666.185348,-1036.288319,-10112.460574
816.842434,2072.576638,0.000000,-10342.289223
816.842754,2664.741391,1776.494261,-11414.822920
816.843074,0.000000,2738.761985,-10878.556072
816.843394,-1036.288319,2368.659014,-10878.556072
816.843714,1332.370696,1628.453072,-10495.508323
816.844034,3182.885551,296.082377,-10572.117872
816.844354,2146.597232,-148.041188,-10265.679673
816.844674,740.205942,0.000000,-10035.851024
816.844994,3182.885551,814.226536,-10265.679673
816.845314,3775.050304,1406.391290,-10725.336972
816.845635,666.185348,1628.453072,-10035.851024
816.845955,-2664.741391,962.267725,-9729.412825
816.846275,-1480.411884,1036.288319,-10265.679673
816.846595,666.185348,1924.535449,-10418.898773
816.846915,0.000000,2146.597232,-10418.898773
816.847235,-2146.597232,518.144159,-10035.851024
816.847555,-666.185348,-148.041188,-9806.022374
816.847875,1036.288319,0.000000,-9959.241474
816.848195,592.164754,814.226536,-9959.241474
816.848515,-962.267725,2368.659014,-9269.755526
816.848835,-1554.432478,2960.823768,-9806.022374
816.849155,1036.288319,1924.535449,-9806.022374
816.849475,2590.720797,1258.350101,-9882.631924
816.849796,444.123565,-370.102971,-10035.851024
816.850116,-888.247130,-2072.576638,-9422.974625
816.850436,0.000000,-1184.329507,-9499.584175
816.850756,1332.370696,814.226536,-10342.289223
816.851076,740.205942,1702.473667,-9959.241474
816.851396,-1776.494261,1406.391290,-11568.042020
816.851716,-1184.329507,148.041188,-9729.412825
816.852036,370.102971,-740.205942,-10035.851024
816.852356,666.185348,0.000000,-10342.289223
816.852676,-370.102971,-370.102971,-9959.241474
816.852996,296.082377,-814.226536,-10112.460574
816.853316,2294.638420,-1110.308913,-10572.117872
816.853636,1628.453072,-740.205942,-10418.898773
816.853957,-518.144159,222.061783,-10112.460574
816.854277,74.020594,370.102971,-10572.117872
816.854597,1554.432478,2072.576638,-10342.289223
816.854917,3182.885551,1036.288319,-10572.117872
816.855237,2294.638420,0.000000,-10418.898773
816.855557,74.020594,-1850.514855,-9576.193725
816.855877,1184.329507,-1924.535449,-10265.679673
816.856197,1258.350101,-888.247130,-9959.241474
816.856517,0.000000,370.102971,-10495.508323
816.856837,-888.247130,740.205942,-9729.412825
816.857157,-592.164754,592.164754,-9806.022374
816.857477,740.205942,0.000000,-10035.851024
816.857797,1036.288319,0.000000,-10342.289223
816.858118,74.020594,-148.041188,-10035.851024
816.858438,1332.370696,-296.082377,-10035.851024
816.858758,2220.617826,-370.102971,-9959.241474
816.859078,1554.432478,-444.123565,-10035.851024
816.859398,0.000000,-814.226536,-10035.851024
816.859718,-592.164754,-740.205942,-10189.070123
816.860038,1480.411884,-666.185348,-10725.336972
816.860358,2590.720797,814.226536,-10801.946522
816.860678,444.123565,814.226536,-10418.898773
816.860998,-814.226536,0.000000,-9806.022374
816.861318,296.082377,-666.185348,-10035.851024
816.861638,1184.329507,-444.123565,-10801.946522
816.861958,0.000000,0.000000,-10572.117872
816.862279,-2146.597232,666.185348,-9882.631924
816.862599,-370.102971,-222.061783,-10112.460574
816.862919,1184.329507,-740.205942,-9729.412825
816.863239,1332.370696,-1406.391290,-9882.631924
816.863559,-962.267725,-1036.288319,-9806.022374
816.863879,-1184.329507,-370.102971,-9806.022374
816.864199,1110.308913,1554.432478,-10112.460574
816.864519,1036.288319,2220.617826,-10572.117872
816.864839,74.020594,1998.556043,-10265.679673
816.865159,148.041188,222.061783,-10265.679673
816.865479,2590.720797,-1184.329507,-10189.070123
816.865799,3775.050304,-666.185348,-9729.412825
816.866119,666.185348,0.000000,-9806.022374
816.866440,-1110.308913,592.164754,-9346.365076
816.866760,222.061783,1036.288319,-9806.022374
816.867080,518.144159,1258.350101,-10342.289223
816.867400,0.000000,592.164754,-10418.898773
816.867720,-1184.329507,1480.411884,-9882.631924
816.868040,-444.123565,814.226536,-9806.022374
816.868360,1036.288319,296.082377,-9882.631924
816.868680,1480.411884,814.226536,-10112.460574
816.869000,-148.041188,-148.041188,-9882.631924
816.869320,222.061783,-296.082377,-10112.460574
816.869640,2146.597232,74.020594,-10572.117872
816.869960,1776.494261,2590.720797,-10648.727422
816.870280,-740.205942,3552.988522,-10342.289223
816.870601,-370.102971,3108.864956,-10189.070123
816.870921,1554.432478,2072.576638,-10648.727422
816.871241,2960.823768,-222.061783,-10265.679673
816.871561,1110.308913,-1850.514855,-9806.022374
816.871881,444.123565,-1406.391290,-9882.631924
816.872201,1628.453072,-370.102971,-9882.631924
816.872521,1776.494261,1332.370696,-10265.679673
816.872841,370.102971,2368.659014,-10342.289223
816.873161,-1332.370696,2072.576638,-9959.241474
816.873481,0.000000,666.185348,-9806.022374
816.873801,2368.659014,-370.102971,-9882.631924
816.874121,814.226536,0.000000,-9346.365076
816.874441,-2072.576638,-592.164754,-9652.803275
816.874762,-1702.473667,-518.144159,-9499.584175
816.875082,370.102971,-444.123565,-9959.241474
816.875402,962.267725,1110.308913,-10418.898773
816.875722,-148.041188,2960.823768,-10265.679673
816.876042,-962.267725,2886.803174,-9882.631924
816.876362,1258.350101,1850.514855,-10265.679673
816.876682,2368.659014,666.185348,-10035.851024
816.877002,148.041188,-1184.329507,-9499.584175
816.877322,296.082377,-2146.597232,-9499.584175
816.877642,444.123565,-1258.350101,-9806.022374
816.877962,296.082377,740.205942,-10189.070123
816.878282,-1036.288319,2072.576638,-9806.022374
816.878602,-2960.823768,2072.576638,-10112.460574
816.878923,-1480.411884,296.082377,-9882.631924
816.879243,0.000000,-888.247130,-10112.460574
816.879563,74.020594,-888.247130,-10418.898773
816.879883,-666.185348,-814.226536,-9806.022374
816.880203,444.123565,0.000000,-10265.679673
816.880523,1480.411884,888.247130,-10265.679673
816.880843,1702.473667,518.144159,-10112.460574
816.881163,148.041188,666.185348,-10265.679673
816.881483,666.185348,444.123565,-10265.679673
816.881803,2220.617826,666.185348,-10418.898773
816.882123,2294.638420,814.226536,-10572.117872
816.882443,148.041188,148.041188,-10342.289223
816.882763,-1554.432478,-592.164754,-9346.365076
816.883084,-1184.329507,-592.164754,-10189.070123
816.883404,666.185348,222.061783,-10342.289223
816.883724,888.247130,592.164754,-10112.460574
816.884044,518.144159,1702.473667,-10189.070123
816.884364,1702.473667,888.247130,-10035.851024
816.884684,2442.679609,0.000000,-9882.631924
816.885004,1628.453072,-370.102971,-10189.070123
816.885324,370.102971,-296.082377,-10189.070123
816.885644,592.164754,592.164754,-9806.022374
816.885964,1776.494261,1702.473667,-10342.289223
816.886284,1628.453072,2072.576638,-10418.898773
816.886604,-296.082377,888.247130,-9652.803275
816.886925,-740.205942,-444.123565,-9882.631924
816.887245,1924.535449,-518.144159,-10418.898773
816.887565,3182.885551,-592.164754,-9959.241474
816.887885,1110.308913,222.061783,-9959.241474
816.888205,-444.123565,148.041188,-9806.022374
816.888525,1036.288319,-814.226536,-9959.241474
816.888845,2072.576638,444.123565,-10572.117872
816.889165,1110.308913,740.205942,-10342.289223
816.889485,-1036.288319,1110.308913,-10035.851024
816.889805,222.061783,814.226536,-9959.241474
816.890125,2146.597232,74.020594,-10189.070123
816.890445,1110.308913,-666.185348,-9806.022374
816.890765,-1332.370696,-1702.473667,-9882.631924
816.891086,-962.267725,-1850.514855,-9422.974625
816.891406,1110.308913,-518.144159,-10342.289223
816.891726,1110.308913,888.247130,-10189.070123
816.892046,-1184.329507,1850.514855,-10112.460574
816.892366,-1480.411884,1110.308913,-10035.851024
816.892686,888.247130,518.144159,-8656.879127
816.893006,1480.411884,148.041188,-10342.289223
816.893326,-370.102971,-962.267725,-10342.289223
816.893646,-370.102971,296.082377,-9806.022374
816.893966,1110.308913,1036.288319,-10418.898773
816.894286,1628.453072,2442.679609,-9959.241474
816.894606,592.164754,2368.659014,-10342.289223
816.894926,-1258.350101,1110.308913,-10035.851024
816.895247,296.082377,-888.247130,-9652.803275
816.895567,2516.700203,-1776.494261,-10801.946522
816.895887,1776.494261,-1480.411884,-9959.241474
816.896207,592.164754,-592.164754,-9652.803275
816.896527,740.205942,370.102971,-10189.070123
816.896847,1850.514855,1850.514855,-10572.117872
816.897167,444.123565,1406.391290,-10265.679673
816.897487,-1998.556043,1554.432478,-9959.241474
816.897807,-1110.308913,0.000000,-9652.803275
816.898127,2146.597232,-518.144159,-9959.241474
816.898447,3478.967927,-888.247130,-9882.631924
816.898767,1036.288319,-962.267725,-9882.631924
816.899087,-888.247130,0.000000,-9729.412825
816.899408,666.185348,518.144159,-10189.070123
816.899728,1480.411884,1554.432478,-10418.898773
816.900048,-1258.350101,1776.494261,-10418.898773
816.900368,-2590.720797,962.267725,-10265.679673
816.900688,-518.144159,-148.041188,-10342.289223
816.901008,2738.761985,-592.164754,-10342.289223
816.901328,2294.638420,-962.267725,-10265.679673
816.901648,0.000000,-518.144159,-9806.022374
816.901968,-518.144159,-370.102971,-10035.851024
816.902288,518.144159,-592.164754,-10189.070123
816.902608,-296.082377,74.020594,-9499.584175
816.902928,-3256.906145,444.123565,-9959.241474
816.903248,-3404.947333,222.061783,-9806.022374
816.903569,0.000000,0.000000,-10189.070123
816.903889,1406.391290,0.000000,-10955.165621
816.904209,0.000000,-222.061783,-9269.755526
816.904529,-370.102971,370.102971,-9959.241474
816.904849,1110.308913,962.267725,-10418.898773
816.905169,2220.617826,740.205942,-10342.289223
816.905489,296.082377,1110.308913,-10265.679673
816.905809,-1702.473667,-444.123565,-9116.536426
816.906129,0.000000,-1332.370696,-9806.022374
816.906449,2146.597232,-740.205942,-9959.241474
816.906769,1406.391290,-444.123565,-10189.070123
816.907089,-1184.329507,0.000000,-9652.803275
816.907409,0.000000,-444.123565,-9729.412825
816.907730,1998.556043,148.041188,-10572.117872
816.908050,1406.391290,444.123565,-10265.679673
816.908370,-370.102971,-222.061783,-10342.289223
816.908690,-592.164754,518.144159,-10189.070123
816.909010,3256.906145,740.205942,-10572.117872
816.909330,4367.215058,1110.308913,-11261.603821
816.909650,2220.617826,1184.329507,-10189.070123
816.909970,666.185348,444.123565,-9959.241474
816.910290,1850.514855,666.185348,-10035.851024
816.910610,2442.679609,1702.473667,-10648.727422
816.910930,-1110.308913,666.185348,-10112.460574
816.911250,-2664.741391,444.123565,-8733.488677
816.911570,222.061783,666.185348,-10189.070123
816.911891,2738.761985,1480.411884,-10342.289223
816.912211,2664.741391,1406.391290,-10189.070123
816.912531,0.000000,1406.391290,-9193.145976
816.912851,-370.102971,-444.123565,-9806.022374
816.913171,444.123565,-666.185348,-9806.022374
816.913491,74.020594,74.020594,-9729.412825
816.913811,-1554.432478,666.185348,-9882.631924
816.914131,-666.185348,1554.432478,-9269.755526
816.914451,1702.473667,1036.288319,-9959.241474
816.914771,2664.741391,444.123565,-10035.851024
816.915091,1110.308913,222.061783,-9729.412825
816.915411,-222.061783,296.082377,-9959.241474
816.915731,888.247130,370.102971,-9806.022374
816.916052,1036.288319,1258.350101,-10189.070123
816.916372,-1480.411884,592.164754,-9806.022374
816.916692,-3849.070898,-814.226536,-9116.536426
816.917012,-1850.514855,-1110.308913,-10418.898773
816.917332,1554.432478,-1406.391290,-10189.070123
816.917652,1406.391290,-222.061783,-10112.460574
816.917972,-814.226536,1258.350101,-10265.679673
816.918292,-222.061783,1628.453072,-9959.241474
816.918612,222.061783,2368.659014,-10955.165621
816.918932,0.000000,1332.370696,-10418.898773
816.919252,-2516.700203,74.020594,-9806.022374
816.919572,-1628.453072,-814.226536,-9959.241474
816.919892,2146.597232,-740.205942,-10418.898773
816.920213,4737.318029,0.000000,-10878.556072
816.920533,1776.494261,592.164754,-10495.508323
816.920853,222.061783,1776.494261,-10878.556072
816.921173,2072.576638,1628.453072,-10265.679673
816.921493,2442.679609,1850.514855,-10801.946522
816.921813,666.185348,1110.308913,-10572.117872
816.922133,-1406.391290,148.041188,-9652.803275
816.922453,296.082377,-1258.350101,-10189.070123
816.922773,2812.782580,-1406.391290,-9959.241474
816.923093,2368.659014,-592.164754,-9959.241474
816.923413,740.205942,518.144159,-9882.631924
816.923733,1628.453072,814.226536,-10418.898773
816.924053,1702.473667,1406.391290,-10265.679673
816.924374,740.205942,888.247130,-10418.898773
816.924694,-2220.617826,370.102971,-9729.412825
816.925014,-1110.308913,-296.082377,-9882.631924
816.925334,2664.741391,-740.205942,-10878.556072
816.925654,4589.276840,148.041188,-10112.460574
816.925974,3034.844362,-148.041188,-10112.460574
816.926294,1184.329507,148.041188,-9806.022374
816.926614,1702.473667,74.020594,-10495.508323
816.926934,1850.514855,666.185348,-11261.603821
816.927254,-370.102971,888.247130,-9729.412825
816.927574,-2368.659014,-148.041188,-9652.803275
816.927894,-666.185348,-1554.432478,-9806.022374
816.928214,1110.308913,-2294.638420,-9959.241474
816.928535,-370.102971,-1628.453072,-9959.241474
816.928855,-2146.597232,-518.144159,-9499.584175
816.929175,-962.267725,518.144159,-10035.851024
816.929495,1184.329507,1480.411884,-10495.508323
816.929815,296.082377,1924.535449,-10265.679673
816.930135,-2072.576638,740.205942,-10035.851024
816.930455,-1776.494261,-888.247130,-9806.022374
816.930775,296.082377,-2368.659014,-9882.631924
816.931095,1332.370696,-1480.411884,-10035.851024
816.931415,-444.123565,-370.102971,-10342.289223
816.931735,0.000000,1332.370696,-10418.898773
816.932055,518.144159,2220.617826,-10572.117872
816.932375,962.267725,1998.556043,-10648.727422
816.932695,-1332.370696,1110.308913,-10189.070123
816.933015,-3478.967927,-814.226536,-9729.412825
816.933335,-1702.473667,-2294.638420,-9499.584175
816.933655,592.164754,-2294.638420,-10035.851024
816.933975,740.205942,-888.247130,-9806.022374
816.934295,0.000000,518.144159,-10265.679673
816.934615,296.082377,1850.514855,-10112.460574
816.934935,1406.391290,2146.597232,-10725.336972
816.935255,962.267725,2294.638420,-10342.289223
816.935575,-2072.576638,1554.432478,-9959.241474
816.935895,-444.123565,-370.102971,-10035.851024
816.936215,2072.576638,-1184.329507,-10035.851024
816.936535,2368.659014,-1110.308913,-10112.460574
816.936855,1036.288319,-444.123565,-9959.241474
816.937175,1110.308913,370.102971,-10418.898773
816.937495,2220.617826,2220.617826,-10495.508323
816.937815,2220.617826,2960.823768,-10572.117872
816.938135,-296.082377,2442.679609,-10265.679673
816.938455,-1480.411884,1998.556043,-11108.384721
816.938775,592.164754,148.041188,-10035.851024
816.939095,3108.864956,-592.164754,-10112.460574
816.939415,2368.659014,-592.164754,-10112.460574
816.939735,1406.391290,-222.061783,-9729.412825
816.940055,1776.494261,1406.391290,-9882.631924
816.940375,2590.720797,2664.741391,-10265.679673
816.940695,962.267725,3478.967927,-10572.117872
816.941015,-1110.308913,2442.679609,-10035.851024
816.941335,-518.144159,0.000000,-9576.193725
816.941655,2442.679609,-1554.432478,-9729.412825
816.941975,2368.659014,-2516.700203,-9729.412825
816.942295,370.102971,-2294.638420,-9729.412825
816.942615,0.000000,-1110.308913,-9806.022374
816.942935,962.267725,1702.473667,-10035.851024
816.943255,1628.453072,4219.173869,-10572.117872
816.943575,-370.102971,4367.215058,-10878.556072
816.943895,-1776.494261,1850.514855,-10035.851024
816.944215,296.082377,-1110.308913,-9346.365076
816.944535,3108.864956,-2812.782580,-10035.851024
816.944855,814.226536,-3256.906145,-9882.631924
816.945175,-2072.576638,-1702.473667,-9806.022374
816.945495,-1628.453072,222.061783,-9346.365076
816.945815,1036.288319,2516.700203,-10189.070123
816.946135,1628.453072,3627.009116,-10572.117872
816.946455,-1258.350101,3108.864956,-10342.289223
816.946775,-740.205942,1258.350101,-10035.851024
816.947095,1850.514855,-666.185348,-9806.022374
816.947415,2664.741391,-2516.700203,-10189.070123
816.947735,1258.350101,-2516.700203,-9806.022374
816.948055,-148.041188,-1554.432478,-9959.241474
816.948375,962.267725,1184.329507,-10189.070123
816.948695,1036.288319,2812.782580,-10572.117872
816.949015,-1110.308913,3330.926739,-10418.898773
816.949335,-2812.782580,1924.535449,-9959.241474
816.949655,-1110.308913,-1036.288319,-9882.631924
816.949975,1998.556043,-4219.173869,-9576.193725
816.950295,2072.576638,-3923.091493,-9806.022374
816.950615,1110.308913,-2442.679609,-9422.974625
816.950935,2072.576638,74.020594,-10418.898773
816.951255,3849.070898,1628.453072,-10265.679673
816.951575,1184.329507,3330.926739,-10801.946522
816.951895,-1998.556043,3034.844362,-10035.851024
816.952215,-1480.411884,1776.494261,-10189.070123
816.952535,1332.370696,-666.185348,-9499.584175
816.952855,1480.411884,-2812.782580,-10112.460574
816.953175,74.020594,-2886.803174,-9882.631924
816.953495,0.000000,-2442.679609,-9729.412825
816.953815,1406.391290,-296.082377,-10265.679673
816.954135,1628.453072,2368.659014,-9729.412825
816.954455,-740.205942,3627.009116,-10342.289223
816.954774,-1998.556043,3034.844362,-10342.289223
816.955094,296.082377,-222.061783,-10572.117872
816.955414,3478.967927,-2368.659014,-10418.898773
816.955734,1998.556043,-2886.803174,-10189.070123
816.956054,-814.226536,-2664.741391,-9959.241474
816.956374,0.000000,-444.123565,-10418.898773
816.956694,1776.494261,2590.720797,-10801.946522
816.957014,0.000000,4145.153275,-10801.946522
816.957334,-2960.823768,2664.741391,-10112.460574
816.957654,-2886.803174,666.185348,-9882.631924
816.957974,1036.288319,-1850.514855,-10265.679673
816.958294,1924.535449,-3034.844362,-10495.508323
816.958614,0.000000,-1554.432478,-10418.898773
816.958934,-1406.391290,0.000000,-9729.412825
816.959254,666.185348,1850.514855,-10035.851024
816.959574,666.185348,4515.256246,-10648.727422
816.959894,-2442.679609,4219.173869,-10189.070123
816.960214,-2368.659014,1924.535449,-9422.974625
816.960534,-148.041188,-814.226536,-9806.022374
816.960854,2146.597232,-2812.782580,-9499.584175
816.961174,888.247130,-4071.132681,-9499.584175
816.961494,-1480.411884,-2590.720797,-9193.145976
816.961814,666.185348,-592.164754,-9729.412825
816.962134,2738.761985,1702.473667,-9806.022374
816.962454,888.247130,3701.029710,-10572.117872
816.962774,-1628.453072,2812.782580,-9729.412825
816.963094,-666.185348,1776.494261,-9806.022374
816.963414,2812.782580,148.041188,-10112.460574
816.963734,3701.029710,-1258.350101,-9806.022374
816.964054,814.226536,-1406.391290,-9882.631924
816.964374,962.267725,-1036.288319,-10189.070123
816.964694,3330.926739,740.205942,-10648.727422
816.965014,2738.761985,3182.885551,-10878.556072
816.965334,-2146.597232,3701.029710,-10418.898773
816.965654,-2886.803174,3182.885551,-9652.803275
816.965974,1628.453072,1998.556043,-10878.556072
816.966294,4367.215058,592.164754,-10495.508323
816.966614,2664.741391,518.144159,-10572.117872
816.966934,-666.185348,148.041188,-10495.508323
816.967254,888.247130,0.000000,-10035.851024
816.967574,3478.967927,1036.288319,-10418.898773
816.967894,1184.329507,2516.700203,-10112.460574
816.968214,-1850.514855,2516.700203,-11338.213370
816.968534,-1480.411884,1924.535449,-10342.289223
816.968854,2738.761985,740.205942,-10648.727422
816.969174,3108.864956,-518.144159,-10342.289223
816.969494,814.226536,-888.247130,-10035.851024
816.969814,-1850.514855,-740.205942,-9499.584175
816.970134,1258.350101,0.000000,-9959.241474
816.970454,2220.617826,1776.494261,-10189.070123
816.970774,-962.267725,1554.432478,-9806.022374
816.971094,-3330.926739,-370.102971,-9346.365076
816.971414,-1110.308913,-444.123565,-9652.803275
816.971734,1480.411884,-1406.391290,-9806.022374
816.972054,592.164754,-1332.370696,-9806.022374
816.972374,-814.226536,-814.226536,-9806.022374
816.972694,962.267725,-296.082377,-10265.679673
816.973014,2442.679609,370.102971,-10265.679673
816.973334,-518.144159,444.123565,-10112.460574
816.973654,-4071.132681,444.123565,-9882.631924
816.973974,-2516.700203,370.102971,-9422.974625
816.974294,2516.700203,0.000000,-10418.898773
816.974614,3404.947333,148.041188,-10495.508323
816.974934,740.205942,-666.185348,-9959.241474
816.975254,148.041188,-1258.350101,-10265.679673
816.975574,2368.659014,148.041188,-10495.508323
816.975894,3108.864956,1110.308913,-10955.165621
816.976214,-296.082377,1998.556043,-10648.727422
816.976534,-2664.741391,1924.535449,-10418.898773
816.976854,-1406.391290,740.205942,-10418.898773
816.977174,666.185348,-1110.308913,-10418.898773
816.977494,1110.308913,-2294.638420,-10112.460574
816.977814,296.082377,-2516.700203,-10112.460574
816.978134,1480.411884,-1036.288319,-9806.022374
816.978454,1850.514855,148.041188,-10725.336972
816.978774,74.020594,444.123565,-9882.631924
816.979094,-1998.556043,814.226536,-9729.412825
816.979414,-1258.350101,1258.350101,-9882.631924
816.979734,2220.617826,1776.494261,-10955.165621
816.980053,3108.864956,592.164754,-10265.679673
816.980373,1776.494261,-1406.391290,-9806.022374
816.980693,1480.411884,-2072.576638,-9882.631924
816.981013,3108.864956,-2072.576638,-9193.145976
816.981333,2368.659014,-888.247130,-9729.412825
816.981653,-740.205942,666.185348,-9806.022374
816.981973,-2368.659014,1110.308913,-9806.022374
816.982293,370.102971,740.205942,-10265.679673
816.982613,2368.659014,-1554.432478,-10418.898773
816.982933,0.000000,-962.267725,-9806.022374
816.983253,-1258.350101,-666.185348,-9882.631924
816.983573,888.247130,-74.020594,-10035.851024
816.983893,3108.864956,1480.411884,-10189.070123
816.984213,1110.308913,1110.308913,-10572.117872
816.984533,-3108.864956,296.082377,-9806.022374
816.984853,-2590.720797,0.000000,-10112.460574
816.985173,-148.041188,-222.061783,-10035.851024
816.985493,74.020594,-296.082377,-9959.241474
816.985813,-1036.288319,0.000000,-9959.241474
816.986133,148.041188,518.144159,-9806.022374
816.986453,2516.700203,1406.391290,-10725.336972
816.986773,1628.453072,1998.556043,-10878.556072
816.987093,-962.267725,1406.391290,-9959.241474
816.987413,-1998.556043,592.164754,-9652.803275
816.987733,0.000000,0.000000,-10035.851024
816.988053,1258.350101,-518.144159,-9882.631924
816.988373,444.123565,518.144159,-10342.289223
816.988693,-1406.391290,814.226536,-10189.070123
816.989013,814.226536,1036.288319,-10189.070123
816.989333,1850.514855,2442.679609,-10725.336972
816.989653,-370.102971,1702.473667,-10035.851024
816.989973,-2886.803174,888.247130,-9422.974625
816.990293,-1628.453072,296.082377,-9959.241474
816.990613,2368.659014,-666.185348,-9729.412825
816.990933,3330.926739,-592.164754,-9882.631924
816.991253,1332.370696,-1332.370696,-9652.803275
816.991573,1776.494261,-518.144159,-9729.412825
816.991893,3034.844362,1110.308913,-10265.679673
816.992213,1480.411884,3330.926739,-10342.289223
816.992533,-962.267725,4145.153275,-9882.631924
816.992853,-1480.411884,3108.864956,-10189.070123
816.993173,1036.288319,888.247130,-10648.727422
816.993493,1924.535449,-888.247130,-10189.070123
816.993813,740.205942,-1924.535449,-10035.851024
816.994133,74.020594,-1406.391290,-9346.365076
816.994453,1776.494261,444.123565,-10265.679673
816.994773,2590.720797,2590.720797,-10648.727422
816.995093,1184.329507,3775.050304,-10035.851024
816.995413,-592.164754,3775.050304,-10265.679673
816.995733,1036.288319,2590.720797,-10418.898773
816.996053,3701.029710,222.061783,-10418.898773
816.996373,2960.823768,-1554.432478,-10112.460574
816.996693,148.041188,-1332.370696,-9652.803275
816.997013,-222.061783,-370.102971,-9729.412825
816.997333,2294.638420,444.123565,-10035.851024
816.997653,1406.391290,1110.308913,-10648.727422
816.997973,-1480.411884,1406.391290,-10112.460574
816.998293,-2072.576638,1184.329507,-9729.412825
816.998613,666.185348,666.185348,-10189.070123
816.998933,1998.556043,-740.205942,-9959.241474
816.999253,0.000000,-1628.453072,-10035.851024
816.999573,-370.102971,-1850.514855,-9499.584175
816.999893,1406.391290,-1184.329507,-9729.412825
817.000213,2072.576638,0.000000,-10112.460574
817.000533,0.000000,1406.391290,-9882.631924
817.000853,-2368.659014,1480.411884,-9806.022374
817.001173,0.000000,592.164754,-9576.193725
817.001493,1628.453072,-1110.308913,-10725.336972
817.001813,592.164754,-1850.514855,-9806.022374
817.002133,-1554.432478,-1184.329507,-10189.070123
817.002453,-222.061783,-814.226536,-8963.317327
817.002773,1406.391290,666.185348,-10572.117872
817.003093,814.226536,1554.432478,-10418.898773
817.003413,-962.267725,1480.411884,-10418.898773
817.003733,-1332.370696,1258.350101,-10035.851024
817.004053,888.247130,0.000000,-10418.898773
817.004373,2368.659014,-1110.308913,-10342.289223
817.004693,1258.350101,-2368.659014,-10035.851024
817.005013,0.000000,-3034.844362,-9729.412825
817.005332,0.000000,-888.247130,-10418.898773
817.005652,74.020594,444.123565,-10801.946522
817.005972,-814.226536,1924.535449,-10495.508323
817.006292,-1628.453072,2516.700203,-10418.898773
817.006612,-962.267725,1776.494261,-10112.460574
817.006932,1406.391290,0.000000,-10342.289223
817.007252,1628.453072,-1850.514855,-9959.241474
817.007572,444.123565,-2590.720797,-9806.022374
817.007892,518.144159,-1554.432478,-9499.584175
817.008212,2442.679609,-222.061783,-10418.898773
817.008532,2516.700203,666.185348,-9806.022374
817.008852,740.205942,1776.494261,-9959.241474
817.009172,-518.144159,2442.679609,-10112.460574
817.009492,1110.308913,1850.514855,-10495.508323
817.009812,2294.638420,370.102971,-10418.898773
817.010132,518.144159,-1554.432478,-9882.631924
817.010452,-888.247130,-2220.617826,-9346.365076
817.010772,518.144159,-1406.391290,-9806.022374
817.011092,1554.432478,-222.061783,-10418.898773
817.011412,222.061783,1628.453072,-9806.022374
817.011732,-962.267725,2368.659014,-10418.898773
817.012052,0.000000,2220.617826,-9806.022374
817.012372,1184.329507,592.164754,-9116.536426
817.012692,666.185348,-666.185348,-9652.803275
817.013012,-1110.308913,-1850.514855,-9652.803275
817.013332,-518.144159,-1480.411884,-9576.193725
817.013652,888.247130,148.041188,-9882.631924
817.013972,296.082377,2516.700203,-11031.775171
817.014292,-814.226536,2664.741391,-9959.241474
817.014612,-888.247130,2294.638420,-9652.803275
817.014932,740.205942,1480.411884,-9959.241474
817.015252,1702.473667,-222.061783,-11338.213370
817.015572,0.000000,-1258.350101,-9422.974625
817.015892,-1036.288319,-1776.494261,-9806.022374
817.016212,148.041188,-222.061783,-9806.022374
817.016532,1480.411884,1332.370696,-9806.022374
817.016852,370.102971,2590.720797,-10495.508323
817.017172,-740.205942,2442.679609,-10265.679673
817.017492,0.000000,2516.700203,-10418.898773
817.017812,2072.576638,1184.329507,-10648.727422
817.018132,1776.494261,296.082377,-9806.022374
817.018452,-148.041188,-1258.350101,-9806.022374
817.018772,0.000000,-2368.659014,-9499.584175
817.019092,1776.494261,-1554.432478,-9806.022374
817.019412,2072.576638,592.164754,-10572.117872
817.019732,444.123565,2442.679609,-9806.022374
817.020052,592.164754,3552.988522,-10342.289223
817.020372,2072.576638,3775.050304,-10955.165621
817.020692,2812.782580,1702.473667,-10189.070123
817.021012,1554.432478,-370.102971,-8810.098227
817.021332,-666.185348,-1776.494261,-9652.803275
817.021652,370.102971,-2146.597232,-9652.803275
817.021972,2590.720797,0.000000,-9882.631924
817.022292,1850.514855,1036.288319,-9959.241474
817.022612,-888.247130,2294.638420,-9499.584175
817.022932,-1702.473667,1628.453072,-9806.022374
817.023252,1480.411884,888.247130,-10265.679673
817.023572,2146.597232,0.000000,-10112.460574
817.023892,518.144159,222.061783,-9959.241474
817.024212,0.000000,-1258.350101,-9422.974625
817.024532,1184.329507,-1258.350101,-9959.241474
817.024852,2294.638420,-222.061783,-10035.851024
817.025172,148.041188,370.102971,-10801.946522
817.025492,-740.205942,1110.308913,-9729.412825
817.025812,666.185348,1332.370696,-10418.898773
817.026132,1998.556043,0.000000,-9882.631924
817.026452,740.205942,-518.144159,-10495.508323
817.026772,-1258.350101,-2664.741391,-9729.412825
817.027092,-740.205942,-1998.556043,-10112.460574
817.027412,1036.288319,-962.267725,-10572.117872
817.027732,962.267725,148.041188,-10418.898773
817.028052,-888.247130,1554.432478,-10342.289223
817.028372,-1998.556043,1110.308913,-9959.241474
817.028692,518.144159,-148.041188,-10189.070123
817.029012,1554.432478,-592.164754,-10265.679673
817.029332,-370.102971,-888.247130,-10495.508323
817.029652,-1036.288319,-1924.535449,-9729.412825
817.029972,444.123565,-1850.514855,-10112.460574
817.030292,0.000000,-444.123565,-10112.460574
817.030611,-592.164754,296.082377,-9806.022374
817.030931,-1554.432478,962.267725,-9116.536426
817.031251,962.267725,370.102971,-10112.460574
817.031572,3552.988522,148.041188,-10112.460574
817.031892,2368.659014,-888.247130,-9959.241474
817.032212,-296.082377,-1480.411884,-9576.193725
817.032532,-592.164754,-1776.494261,-9422.974625
817.032852,1036.288319,-888.247130,-10189.070123
817.033172,1554.432478,0.000000,-10035.851024
817.033492,-740.205942,444.123565,-9806.022374
817.033812,-1258.350101,1850.514855,-10189.070123
817.034132,1036.288319,666.185348,-10265.679673
817.034452,2220.617826,-148.041188,-10189.070123
817.034772,1406.391290,-370.102971,-9882.631924
817.035092,0.000000,370.102971,-9959.241474
817.035412,1036.288319,592.164754,-10189.070123
817.035732,1850.514855,1258.350101,-10495.508323
817.036052,0.000000,1332.370696,-10572.117872
817.036372,-1406.391290,518.144159,-9806.022374
817.036692,444.123565,-148.041188,-10801.946522
817.037012,2146.597232,-740.205942,-10342.289223
817.037332,962.267725,74.020594,-10342.289223
817.037652,-1332.370696,1332.370696,-10265.679673
817.037972,-1258.350101,2294.638420,-9806.022374
817.038292,1258.350101,2442.679609,-11261.603821
817.038612,1406.391290,1850.514855,-10648.727422
817.038932,-962.267725,370.102971,-10035.851024
817.039252,-1110.308913,-666.185348,-9806.022374
817.039572,1776.494261,-296.082377,-10265.679673
817.039892,2294.638420,-888.247130,-9882.631924
817.040212,0.000000,444.123565,-9882.631924
817.040533,-1036.288319,1332.370696,-9422.974625
817.040853,1480.411884,2886.803174,-11568.042020
817.041173,962.267725,2738.761985,-10112.460574
817.041493,-814.226536,1924.535449,-10342.289223
817.041813,-2664.741391,-222.061783,-8963.317327
817.042133,222.061783,-1924.535449,-9652.803275
817.042453,2812.782580,-1850.514855,-10112.460574
817.042773,962.267725,-962.267725,-9959.241474
817.043093,-1554.432478,1480.411884,-9652.803275
817.043413,-1184.329507,2886.803174,-10035.851024
817.043733,2220.617826,3478.967927,-10265.679673
817.044053,1480.411884,2368.659014,-10418.898773
817.044373,-1110.308913,-148.041188,-9652.803275
817.044693,-1036.288319,-1628.453072,-9652.803275
817.045013,1702.473667,-1850.514855,-9959.241474
817.045333,4367.215058,0.000000,-10189.070123
817.045653,2368.659014,1184.329507,-10648.727422
817.045973,0.000000,1332.370696,-9806.022374
817.046293,370.102971,1406.391290,-10878.556072
817.046613,962.267725,1480.411884,-9422.974625
817.046933,148.041188,740.205942,-10648.727422
817.047253,-1184.329507,-296.082377,-9729.412825
817.047573,666.185348,-518.144159,-10189.070123
817.047893,2960.823768,0.000000,-10572.117872
817.048213,1554.432478,148.041188,-9882.631924
817.048533,-888.247130,1258.350101,-10189.070123
817.048853,518.144159,2220.617826,-10112.460574
817.049173,3478.967927,1998.556043,-10801.946522
817.049494,2738.761985,1776.494261,-9806.022374
817.049814,444.123565,666.185348,-10342.289223
817.050134,-1036.288319,-296.082377,-9576.193725
817.050454,1924.535449,-1554.432478,-9959.241474
817.050774,2664.741391,-814.226536,-9959.241474
817.051094,814.226536,-518.144159,-9959.241474
817.051414,-222.061783,740.205942,-9652.803275
817.051734,148.041188,1480.411884,-9959.241474
817.052054,888.247130,2146.597232,-10495.508323
817.052374,-518.144159,148.041188,-9882.631924
817.052694,-1554.432478,-1406.391290,-9806.022374
817.053014,740.205942,-2886.803174,-10035.851024
817.053334,1776.494261,-2960.823768,-9576.193725
817.053654,1480.411884,-1406.391290,-9499.584175
817.053974,-888.247130,2368.659014,-10112.460574
817.054294,0.000000,3182.885551,-9959.241474
817.054614,1776.494261,3256.906145,-11184.994271
817.054934,2072.576638,222.061783,-9576.193725
817.055254,740.205942,-1628.453072,-10035.851024
817.055574,-1702.473667,-4367.215058,-9116.536426
817.055894,740.205942,-3701.029710,-10035.851024
817.056214,1110.308913,-1554.432478,-9729.412825
817.056534,-444.123565,444.123565,-8886.707777
817.056854,-1110.308913,1924.535449,-10112.460574
817.057174,-222.061783,2072.576638,-10418.898773
817.057494,-370.102971,1554.432478,-10572.117872
817.057814,-1702.473667,592.164754,-10342.289223
817.058134,-1924.535449,74.020594,-9652.803275
817.058455,444.123565,-1702.473667,-10418.898773
817.058775,2368.659014,-2146.597232,-10495.508323
817.059095,1480.411884,-2368.659014,-10265.679673
817.059415,222.061783,148.041188,-9806.022374
817.059735,370.102971,2368.659014,-10418.898773
817.060055,1702.473667,2960.823768,-10878.556072
817.060375,2220.617826,3034.844362,-11031.775171
817.060695,444.123565,666.185348,-10495.508323
817.061015,666.185348,-444.123565,-9806.022374
817.061335,1628.453072,-1850.514855,-10418.898773
817.061655,1406.391290,-592.164754,-10495.508323
817.061975,-592.164754,444.123565,-9959.241474
817.062295,-740.205942,1406.391290,-9959.241474
817.062615,1184.329507,1184.329507,-10112.460574
817.062935,1850.514855,666.185348,-10418.898773
817.063255,0.000000,962.267725,-10342.289223
817.063575,-1332.370696,1036.288319,-9882.631924
817.063895,1036.288319,296.082377,-10189.070123
817.064215,3182.885551,-740.205942,-10035.851024
817.064535,1036.288319,-1258.350101,-9806.022374
817.064855,-666.185348,-1110.308913,-9806.022374
817.065175,74.020594,222.061783,-9959.241474
817.065495,1406.391290,888.247130,-10342.289223
817.065815,1628.453072,2146.597232,-10418.898773
817.066135,-1036.288319,1776.494261,-9652.803275
817.066455,-1184.329507,1110.308913,-9959.241474
817.066775,444.123565,-222.061783,-9882.631924
817.067095,-444.123565,-1110.308913,-10035.851024
817.067416,-1850.514855,-1258.350101,-9729.412825
817.067736,-888.247130,-1480.411884,-9729.412825
817.068056,888.247130,1924.535449,-9806.022374
817.068376,592.164754,1480.411884,-10495.508323
817.068696,-592.164754,2590.720797,-10189.070123
817.069016,-2590.720797,1184.329507,-9882.631924
817.069336,222.061783,2220.617826,-11414.822920
817.069656,1776.494261,1406.391290,-10035.851024
817.069976,-296.082377,518.144159,-10418.898773
817.070296,-2294.638420,-296.082377,-9729.412825
817.070616,-148.041188,-740.205942,-10112.460574
817.070936,1924.535449,444.123565,-10801.946522
817.071256,1776.494261,888.247130,-10342.289223
817.071576,-888.247130,518.144159,-9729.412825
817.071896,0.000000,2146.597232,-10265.679673
817.072216,2072.576638,2294.638420,-10342.289223
817.072536,1998.556043,1184.329507,-10418.898773
817.072856,518.144159,0.000000,-9576.193725
817.073176,-148.041188,-518.144159,-9806.022374
817.073496,2220.617826,-148.041188,-10189.070123
817.073816,2516.700203,-518.144159,-9499.584175
817.074136,592.164754,74.020594,-9959.241474
817.074456,-1258.350101,1184.329507,-9576.193725
817.074776,148.041188,740.205942,-9882.631924
817.075096,3256.906145,1924.535449,-10189.070123
817.075416,2220.617826,592.164754,-9729.412825
817.075736,370.102971,-888.247130,-9806.022374
817.076056,148.041188,-666.185348,-9346.365076
817.076377,2368.659014,0.000000,-9959.241474
817.076697,2590.720797,814.226536,-9882.631924
817.077017,1924.535449,814.226536,-10035.851024
817.077337,666.185348,148.041188,-9959.241474
817.077657,1554.432478,0.000000,-10035.851024
817.077977,1850.514855,-222.061783,-10189.070123
817.078297,-222.061783,0.000000,-10035.851024
817.078617,-1924.535449,222.061783,-10189.070123
817.078937,0.000000,296.082377,-10342.289223
817.079257,1036.288319,-592.164754,-10189.070123
817.079577,962.267725,-1184.329507,-10342.289223
817.079897,-962.267725,-1036.288319,-9806.022374
817.080217,-518.144159,-518.144159,-10418.898773
817.080537,1332.370696,0.000000,-10495.508323
817.080857,1554.432478,814.226536,-10725.336972
817.081177,0.000000,444.123565,-10572.117872
817.081497,0.000000,518.144159,-10342.289223
817.081817,962.267725,-222.061783,-10648.727422
817.082137,962.267725,-666.185348,-10265.679673
817.082457,-1480.411884,0.000000,-10189.070123
817.082777,-1480.411884,222.061783,-10189.070123
817.083097,148.041188,-814.226536,-10342.289223
817.083417,888.247130,-814.226536,-10112.460574
817.083737,-1110.308913,-1036.288319,-9806.022374
817.084057,-1628.453072,-296.082377,-10035.851024
817.084377,814.226536,-518.144159,-9652.803275
817.084697,2146.597232,1036.288319,-10342.289223
817.085018,666.185348,962.267725,-9729.412825
817.085338,-370.102971,0.000000,-10035.851024
817.085658,-370.102971,-666.185348,-9652.803275
817.085978,1480.411884,-666.185348,-10189.070123
817.086298,814.226536,74.020594,-9959.241474
817.086618,148.041188,592.164754,-9806.022374
817.086938,370.102971,1110.308913,-9882.631924
817.087258,2072.576638,888.247130,-10418.898773
817.087578,1924.535449,74.020594,-10112.460574
817.087898,-222.061783,-962.267725,-9806.022374
817.088218,-592.164754,-814.226536,-9882.631924
817.088538,1110.308913,-296.082377,-10189.070123
817.088858,1702.473667,740.205942,-10342.289223
817.089178,592.164754,1258.350101,-9882.631924
817.089498,222.061783,1332.370696,-9959.241474
817.089818,1184.329507,1628.453072,-10572.117872
817.090138,2072.576638,2664.741391,-11338.213370
817.090458,0.000000,1480.411884,-10418.898773
817.090778,-1702.473667,0.000000,-10725.336972
817.091098,-518.144159,-1110.308913,-10035.851024
817.091418,1332.370696,-1184.329507,-10112.460574
817.091738,1628.453072,444.123565,-10189.070123
817.092058,0.000000,888.247130,-9346.365076
817.092378,740.205942,2072.576638,-10342.289223
817.092698,2368.659014,2590.720797,-10265.679673
817.093018,2368.659014,2220.617826,-10265.679673
817.093338,296.082377,888.247130,-10112.460574
817.093658,0.000000,0.000000,-9269.755526
817.093979,888.247130,-888.247130,-9959.241474
817.094299,1184.329507,-740.205942,-9806.022374
817.094619,-444.123565,-148.041188,-9729.412825
817.094939,-1702.473667,0.000000,-9269.755526
817.095259,222.061783,888.247130,-9806.022374
817.095579,888.247130,1184.329507,-10189.070123
817.095899,-1036.288319,962.267725,-9806.022374
817.096219,-1998.556043,370.102971,-9422.974625
817.096539,-370.102971,0.000000,-9576.193725
817.096859,1554.432478,-518.144159,-9576.193725
817.097179,962.267725,74.020594,-9882.631924
817.097499,-592.164754,888.247130,-9652.803275
817.097819,444.123565,1258.350101,-10418.898773
817.098139,2812.782580,1110.308913,-10265.679673
817.098459,1258.350101,740.205942,-10878.556072
817.098779,-1850.514855,0.000000,-9806.022374
817.099099,-2146.597232,0.000000,-9959.241474
817.099419,296.082377,-666.185348,-10418.898773
817.099739,1184.329507,592.164754,-10495.508323
817.100059,-370.102971,0.000000,-10265.679673
817.100379,-2072.576638,0.000000,-9882.631924
817.100699,-592.164754,518.144159,-11031.775171
817.101019,148.041188,666.185348,-10801.946522
817.101339,-888.247130,592.164754,-10189.070123
817.101659,-1258.350101,222.061783,-10189.070123
817.101979,2072.576638,-444.123565,-10265.679673
817.102299,4737.318029,-666.185348,-11108.384721
817.102619,2442.679609,-148.041188,-10035.851024
817.102940,-148.041188,74.020594,-10112.460574
817.103260,1480.411884,1258.350101,-10189.070123
817.103580,3701.029710,2146.597232,-10035.851024
817.103900,3330.926739,1776.494261,-10878.556072
817.104220,-666.185348,-148.041188,-9882.631924
817.104540,-2220.617826,-962.267725,-9729.412825
817.104860,518.144159,-1628.453072,-10189.070123
817.105180,2590.720797,-666.185348,-9729.412825
817.105500,888.247130,-222.061783,-9806.022374
817.105820,74.020594,-518.144159,-9806.022374
817.106140,2146.597232,1110.308913,-10035.851024
817.106460,3034.844362,1850.514855,-11644.651570
817.106780,222.061783,666.185348,-10265.679673
817.107100,-2738.761985,-592.164754,-9576.193725
817.107420,-740.205942,-962.267725,-10112.460574
817.107740,2738.761985,-888.247130,-9882.631924
817.108060,2220.617826,-148.041188,-10189.070123
817.108380,0.000000,444.123565,-10189.070123
817.108700,444.123565,-222.061783,-9806.022374
817.109020,2664.741391,888.247130,-10495.508323
817.109340,1554.432478,666.185348,-10265.679673
817.109660,-962.267725,962.267725,-10112.460574
817.109980,-1850.514855,740.205942,-9806.022374
817.110300,592.164754,370.102971,-10725.336972
817.110620,444.123565,0.000000,-9729.412825
817.110940,-1702.473667,-1110.308913,-10495.508323
817.111260,-1702.473667,-1184.329507,-9729.412825
817.111580,148.041188,0.000000,-10265.679673
817.111901,1036.288319,2146.597232,-10725.336972
817.112221,-1406.391290,2812.782580,-10112.460574
817.112541,-2960.823768,2812.782580,-9959.241474
817.112861,-888.247130,296.082377,-9806.022374
817.113181,3108.864956,-1036.288319,-9806.022374
817.113501,2738.761985,-2368.659014,-9729.412825
817.113821,-296.082377,-3034.844362,-9499.584175
817.114141,74.020594,-1184.329507,-9652.803275
817.114461,1776.494261,1406.391290,-10418.898773
817.114781,1258.350101,2368.659014,-10342.289223
817.115101,-592.164754,1702.473667,-10189.070123
817.115421,-1924.535449,1110.308913,-10189.070123
817.115741,370.102971,-518.144159,-10112.460574
817.116061,1480.411884,-962.267725,-10265.679673
817.116381,-592.164754,-592.164754,-10495.508323
817.116701,0.000000,0.000000,-9729.412825
817.117021,1554.432478,370.102971,-10265.679673
817.117341,1702.473667,2146.597232,-10725.336972
817.117661,1110.308913,3182.885551,-10648.727422
817.117981,-962.267725,2368.659014,-10265.679673
817.118301,1258.350101,666.185348,-10495.508323
817.118621,3478.967927,0.000000,-10418.898773
817.118941,2146.597232,-74.020594,-10342.289223
817.119261,740.205942,296.082377,-10418.898773
817.119581,814.226536,1184.329507,-10189.070123
817.119901,3256.906145,2368.659014,-10955.165621
817.120221,1184.329507,2516.700203,-10342.289223
817.120541,-740.205942,1702.473667,-10112.460574
817.120862,-1258.350101,518.144159,-10342.289223
817.121182,444.123565,0.000000,-10342.289223
817.121502,666.185348,-666.185348,-9806.022374
817.121822,-814.226536,-740.205942,-9576.193725
817.122142,-1776.494261,370.102971,-8963.317327
817.122462,1406.391290,1480.411884,-9576.193725
817.122782,3330.926739,1998.556043,-10189.070123
817.123102,962.267725,1628.453072,-9576.193725
817.123422,-1554.432478,518.144159,-9499.584175
817.123742,-1036.288319,-1850.514855,-9346.365076
817.124062,222.061783,-1998.556043,-9116.536426
817.124382,-592.164754,-1776.494261,-9422.974625
817.124702,-1184.329507,-1332.370696,-9576.193725
817.125022,0.000000,-962.267725,-9039.926876
817.125342,1776.494261,1258.350101,-10418.898773
817.125662,888.247130,2368.659014,-10189.070123
817.125982,-1184.329507,1480.411884,-9806.022374
817.126302,-2960.823768,444.123565,-10035.851024
817.126622,370.102971,-296.082377,-10189.070123
817.126942,1924.535449,-962.267725,-9806.022374
817.127262,444.123565,-1036.288319,-10418.898773
817.127582,-444.123565,-666.185348,-9499.584175
817.127902,1332.370696,74.020594,-10265.679673
817.128222,1628.453072,1628.453072,-10648.727422
817.128542,814.226536,1554.432478,-10648.727422
817.128862,-962.267725,1036.288319,-10035.851024
817.129182,592.164754,222.061783,-10035.851024
817.129502,2664.741391,-740.205942,-10418.898773
817.129823,1924.535449,-1110.308913,-10418.898773
817.130143,444.123565,-666.185348,-10265.679673
817.130463,518.144159,370.102971,-10189.070123
817.130783,2516.700203,1998.556043,-10878.556072
817.131103,2294.638420,2442.679609,-10572.117872
817.131423,888.247130,962.267725,-10112.460574
817.131743,370.102971,-740.205942,-9959.241474
817.132063,1406.391290,-1332.370696,-9116.536426
817.132383,1554.432478,-1850.514855,-9652.803275
817.132703,444.123565,-1110.308913,-10112.460574
817.133023,296.082377,-296.082377,-9116.536426
817.133343,1998.556043,666.185348,-10189.070123
817.133663,1998.556043,962.267725,-9882.631924
817.133983,592.164754,962.267725,-10112.460574
817.134303,-518.144159,1036.288319,-9729.412825
817.134623,1036.288319,-592.164754,-9806.022374
817.134943,2368.659014,-1184.329507,-9806.022374
817.135263,814.226536,-2294.638420,-9806.022374
817.135583,-666.185348,-2664.741391,-9806.022374
817.135903,-888.247130,-1628.453072,-9422.974625
817.136223,370.102971,1110.308913,-10495.508323
817.136543,-444.123565,2590.720797,-10189.070123
817.136863,-1184.329507,2146.597232,-10265.679673
817.137183,-740.205942,518.144159,-10189.070123
817.137503,740.205942,-1554.432478,-10342.289223
817.137823,962.267725,-2516.700203,-10035.851024
817.138143,-888.247130,-2738.761985,-9729.412825
817.138463,-1258.350101,-1628.453072,-10035.851024
817.138783,518.144159,222.061783,-10342.289223
817.139103,1480.411884,1258.350101,-10648.727422
817.139423,296.082377,1628.453072,-10418.898773
817.139743,-148.041188,1776.494261,-10495.508323
817.140064,444.123565,2146.597232,-10648.727422
817.140384,1702.473667,1554.432478,-10342.289223
817.140704,1332.370696,296.082377,-10342.289223
817.141024,-2220.617826,-1406.391290,-9882.631924
817.141344,-740.205942,-2368.659014,-9576.193725
817.141664,1480.411884,-1406.391290,-10418.898773
817.141984,1850.514855,1480.411884,-10342.289223
817.142304,370.102971,3552.988522,-10112.460574
817.142624,74.020594,3627.009116,-10189.070123
817.142944,2146.597232,2664.741391,-10189.070123
817.143264,1406.391290,1258.350101,-9882.631924
817.143584,296.082377,-1110.308913,-9576.193725
817.143904,74.020594,-1332.370696,-9193.145976
817.144224,2590.720797,-1036.288319,-9576.193725
817.144544,3182.885551,222.061783,-9959.241474
817.144864,1110.308913,1628.453072,-9806.022374
817.145184,-1036.288319,2220.617826,-9729.412825
817.145504,-1628.453072,888.247130,-9576.193725
817.145824,1554.432478,814.226536,-10112.460574
817.146144,-296.082377,0.000000,-9806.022374
817.146464,-1036.288319,-1258.350101,-9576.193725
817.146784,-148.041188,-1110.308913,-9652.803275
817.147104,2442.679609,888.247130,-10801.946522
817.147424,2442.679609,1480.411884,-10495.508323
817.147744,518.144159,2072.576638,-10035.851024
817.148064,-444.123565,2368.659014,-10112.460574
817.148384,592.164754,1110.308913,-10648.727422
817.148704,148.041188,740.205942,-10342.289223
817.149024,-2294.638420,-888.247130,-10572.117872
817.149344,-2886.803174,-1628.453072,-9652.803275
817.149664,148.041188,-1480.411884,-10572.117872
817.149984,1924.535449,222.061783,-10495.508323
817.150304,518.144159,2368.659014,-10648.727422
817.150624,-1406.391290,2960.823768,-10418.898773
817.150944,222.061783,1998.556043,-10189.070123
817.151265,1110.308913,1110.308913,-10342.289223
817.151585,148.041188,-592.164754,-10418.898773
817.151905,-1776.494261,-1332.370696,-9729.412825
817.152225,-518.144159,-1406.391290,-9193.145976
817.152545,1998.556043,-370.102971,-10342.289223
817.152865,1036.288319,0.000000,-10342.289223
817.153185,-592.164754,666.185348,-9959.241474
817.153505,-296.082377,740.205942,-9652.803275
817.153825,1702.473667,1554.432478,-9882.631924
817.154145,2516.700203,1184.329507,-10112.460574
817.154465,370.102971,-222.061783,-10035.851024
817.154785,-1702.473667,-962.267725,-8044.002729
817.155105,1258.350101,-888.247130,-10112.460574
817.155425,2516.700203,-962.267725,-9806.022374
817.155745,1554.432478,0.000000,-10112.460574
817.156065,148.041188,518.144159,-9882.631924
817.156385,1628.453072,1036.288319,-10189.070123
817.156705,2960.823768,592.164754,-10189.070123
817.157025,2220.617826,0.000000,-10572.117872
817.157345,-1184.329507,-1036.288319,-9959.241474
817.157665,-740.205942,-1332.370696,-9959.241474
817.157985,2738.761985,-370.102971,-10035.851024
817.158305,3330.926739,1258.350101,-10342.289223
817.158625,666.185348,962.267725,-9882.631924
817.158945,0.000000,370.102971,-10418.898773
817.159265,1924.535449,444.123565,-10265.679673
817.159585,2442.679609,1554.432478,-10572.117872
817.159905,74.020594,1184.329507,-10265.679673
817.160225,-1110.308913,222.061783,-9806.022374
817.160545,-296.082377,-518.144159,-10342.289223
817.160865,1776.494261,-1036.288319,-10265.679673
817.161185,1036.288319,-814.226536,-9959.241474
817.161505,-1110.308913,222.061783,-9806.022374
817.161825,-740.205942,74.020594,-9959.241474
817.162145,1036.288319,1110.308913,-10112.460574
817.162465,-222.061783,370.102971,-10112.460574
817.162786,-1628.453072,74.020594,-9729.412825
817.163106,-962.267725,0.000000,-9652.803275
817.163426,1480.411884,962.267725,-11797.870669
817.163746,1776.494261,0.000000,-10112.460574
817.164066,0.000000,-814.226536,-10035.851024
817.164386,-1702.473667,-296.082377,-9652.803275
817.164706,666.185348,370.102971,-9959.241474
817.165026,1110.308913,814.226536,-10495.508323
817.165346,-1332.370696,-592.164754,-10265.679673
817.165666,-2664.741391,-444.123565,-9806.022374
817.165986,-962.267725,0.000000,-9959.241474
817.166306,1998.556043,296.082377,-10265.679673
817.166626,962.267725,1480.411884,-10572.117872
817.166946,-1184.329507,1406.391290,-10112.460574
817.167266,-222.061783,666.185348,-9959.241474
817.167586,2294.638420,-148.041188,-10495.508323
817.167906,1850.514855,-666.185348,-10342.289223
817.168226,-222.061783,-518.144159,-10342.289223
817.168546,-666.185348,0.000000,-9806.022374
817.168866,1332.370696,1258.350101,-10189.070123
817.169186,1702.473667,1480.411884,-10189.070123
817.169506,-296.082377,2516.700203,-10495.508323
