#time,accel_x,accel_y,accel_z
825.045631,296.082377,148.041188,-10035.851024
825.045952,666.185348,0.000000,-10112.460574
825.046272,518.144159,0.000000,-10112.460574
825.046593,518.144159,222.061783,-9882.631924
825.046913,740.205942,148.041188,-10112.460574
825.047233,740.205942,518.144159,-10035.851024
825.047554,518.144159,592.164754,-10035.851024
825.047874,296.082377,444.123565,-10189.070123
825.048195,148.041188,296.082377,-9882.631924
825.048515,444.123565,0.000000,-9806.022374
825.048836,666.185348,74.020594,-9806.022374
825.049156,592.164754,0.000000,-9882.631924
825.049477,962.267725,0.000000,-9882.631924
825.049797,740.205942,444.123565,-10035.851024
825.050117,148.041188,296.082377,-10112.460574
825.050438,370.102971,74.020594,-10035.851024
825.050758,666.185348,0.000000,-9882.631924
825.051079,888.247130,-222.061783,-10112.460574
825.051399,74.020594,74.020594,-10035.851024
825.051720,518.144159,296.082377,-9269.755526
825.052040,592.164754,740.205942,-10342.289223
825.052361,592.164754,518.144159,-10035.851024
825.052681,0.000000,0.000000,-10112.460574
825.053001,0.000000,0.000000,-9729.412825
825.053322,370.102971,0.000000,-10189.070123
825.053642,518.144159,296.082377,-10035.851024
825.053963,0.000000,74.020594,-10189.070123
825.054283,-592.164754,-296.082377,-10035.851024
825.054604,-666.185348,-370.102971,-9959.241474
825.054924,0.000000,-814.226536,-10035.851024
825.055245,-296.082377,-370.102971,-9806.022374
825.055565,-888.247130,-370.102971,-9882.631924
825.055885,-518.144159,-370.102971,-10035.851024
825.056206,-444.123565,0.000000,-9959.241474
825.056526,-814.226536,-296.082377,-10342.289223
825.056847,-962.267725,-1110.308913,-10035.851024
825.057167,-814.226536,-1036.288319,-10035.851024
825.057488,-370.102971,-888.247130,-10878.556072
825.057808,-1110.308913,-1332.370696,-9959.241474
825.058129,-2072.576638,-1554.432478,-10112.460574
825.058449,-1998.556043,-1480.411884,-9806.022374
825.058769,-666.185348,-1628.453072,-9729.412825
825.059090,-814.226536,-814.226536,-10112.460574
825.059410,-1406.391290,-1332.370696,-9959.241474
825.059731,-1554.432478,-1850.514855,-9959.241474
825.060051,-740.205942,-2146.597232,-9806.022374
825.060372,-1036.288319,-1332.370696,-9959.241474
825.060692,-1184.329507,-2072.576638,-9652.803275
825.061013,-2590.720797,-2664.741391,-10342.289223
825.061333,-2886.803174,-3034.844362,-9729.412825
825.061653,-2220.617826,-3478.967927,-10035.851024
825.061974,-1998.556043,-3256.906145,-9806.022374
825.062294,-1924.535449,-3627.009116,-9882.631924
825.062615,-2220.617826,-3404.947333,-9806.022374
825.062935,-1332.370696,-3256.906145,-9806.022374
825.063256,222.061783,-2590.720797,-10342.289223
825.063576,962.267725,-1702.473667,-10265.679673
825.063897,-296.082377,-74.020594,-10572.117872
825.064217,-2146.597232,-444.123565,-10955.165621
825.064537,-2738.761985,-1554.432478,-10418.898773
825.064858,-3923.091493,-2738.761985,-10112.460574
825.065178,-5699.585753,-3775.050304,-9959.241474
825.065499,-5329.482782,-5551.544565,-9806.022374
825.065819,-3330.926739,-5847.626942,-9576.193725
825.066140,-1110.308913,-5181.441594,-9959.241474
825.066460,370.102971,-3478.967927,-10112.460574
825.066781,518.144159,-814.226536,-10342.289223
825.067101,1850.514855,1184.329507,-10648.727422
825.067421,1850.514855,1258.350101,-10878.556072
825.067742,2072.576638,740.205942,-10418.898773
825.068062,518.144159,-1110.308913,-10648.727422
825.068383,-592.164754,-2812.782580,-10265.679673
825.068703,-1628.453072,-3775.050304,-9882.631924
825.069024,-4293.194464,-3478.967927,-9882.631924
825.069344,-5403.503377,-3923.091493,-9576.193725
825.069665,-5107.421000,-4589.276840,-9269.755526
825.069985,-2738.761985,-5625.565159,-9116.536426
825.070305,0.000000,-5107.421000,-9576.193725
825.070626,1480.411884,-3552.988522,-9806.022374
825.070946,2146.597232,-1184.329507,-9806.022374
825.071267,3404.947333,1776.494261,-10265.679673
825.071587,4663.297435,3404.947333,-10648.727422
825.071908,1776.494261,3775.050304,-11108.384721
825.072228,-2146.597232,1776.494261,-10572.117872
825.072549,-5551.544565,-1628.453072,-10035.851024
825.072869,-5921.647536,-5403.503377,-9499.584175
825.073189,-4293.194464,-6587.832884,-9039.926876
825.073510,-3330.926739,-7550.100608,-9652.803275
825.073830,-2664.741391,-6143.709319,-9499.584175
825.074151,-1184.329507,-2738.761985,-9806.022374
825.074471,740.205942,740.205942,-11184.994271
825.074792,1480.411884,3775.050304,-11184.994271
825.075112,2516.700203,5107.421000,-10955.165621
825.075433,2590.720797,3552.988522,-10801.946522
825.075753,2368.659014,1110.308913,-10725.336972
825.076073,-222.061783,-1110.308913,-10572.117872
825.076394,-3108.864956,-2664.741391,-10035.851024
825.076714,-4145.153275,-2960.823768,-9806.022374
825.077035,-5107.421000,-2738.761985,-10265.679673
825.077355,-6735.874072,-3923.091493,-9806.022374
825.077676,-7772.162391,-4515.256246,-8886.707777
825.077996,-5403.503377,-5181.441594,-9193.145976
825.078317,-296.082377,-4219.173869,-9422.974625
825.078637,3330.926739,-2368.659014,-9806.022374
825.078957,3256.906145,1628.453072,-10342.289223
825.079278,2146.597232,4145.153275,-10418.898773
825.079598,1702.473667,4441.235652,-10801.946522
825.079919,1998.556043,2294.638420,-10342.289223
825.080239,666.185348,222.061783,-11184.994271
825.080560,-2590.720797,-3849.070898,-10189.070123
825.080880,-5921.647536,-5625.565159,-10112.460574
825.081201,-7698.141797,-5477.523971,-9422.974625
825.081521,-8512.368333,-4293.194464,-9806.022374
825.081841,-7105.977043,-4145.153275,-9039.926876
825.082162,-2368.659014,-4737.318029,-9039.926876
825.082482,1998.556043,-3701.029710,-10035.851024
825.082803,3478.967927,-2220.617826,-11184.994271
825.083123,3034.844362,296.082377,-10112.460574
825.083444,3404.947333,2368.659014,-11031.775171
825.083764,3552.988522,3627.009116,-10878.556072
825.084085,2664.741391,3256.906145,-11261.603821
825.084405,-962.267725,1850.514855,-11108.384721
825.084725,-4589.276840,-1850.514855,-10572.117872
825.085046,-6883.915261,-4737.318029,-10265.679673
825.085366,-6661.853478,-7254.018232,-9652.803275
825.085687,-5477.523971,-9252.574275,-8886.707777
825.086007,-4441.235652,-8586.388927,-8350.440928
825.086328,-2812.782580,-5477.523971,-9346.365076
825.086648,-1480.411884,-2294.638420,-9806.022374
825.086969,1554.432478,1110.308913,-10418.898773
825.087289,5699.585753,4145.153275,-10878.556072
825.087609,6069.688724,4515.256246,-11338.213370
825.087930,2516.700203,2516.700203,-11108.384721
825.088250,-1554.432478,0.000000,-10189.070123
825.088571,-3627.009116,-2960.823768,-9729.412825
825.088891,-2738.761985,-5181.441594,-9959.241474
825.089212,-5033.400406,-6735.874072,-9422.974625
825.089532,-7994.224174,-7846.182985,-8656.879127
825.089852,-7402.059420,-6291.750507,-9116.536426
825.090173,-2664.741391,-3849.070898,-10878.556072
825.090493,1554.432478,-1850.514855,-10342.289223
825.090814,2072.576638,1184.329507,-10342.289223
825.091134,888.247130,2072.576638,-10418.898773
825.091455,2072.576638,2368.659014,-10418.898773
825.091775,4589.276840,3108.864956,-10572.117872
825.092096,3627.009116,3627.009116,-11184.994271
825.092416,592.164754,1406.391290,-10801.946522
825.092736,-2886.803174,-2294.638420,-10035.851024
825.093057,-4071.132681,-3923.091493,-9959.241474
825.093377,-4441.235652,-4589.276840,-10189.070123
825.093698,-4441.235652,-4589.276840,-9882.631924
825.094018,-3330.926739,-3923.091493,-9422.974625
825.094339,-1110.308913,-2072.576638,-9576.193725
825.094659,2664.741391,666.185348,-9959.241474
825.094980,5107.421000,1702.473667,-10648.727422
825.095300,5995.668130,2812.782580,-10725.336972
825.095620,6217.729913,4589.276840,-11031.775171
825.095941,4071.132681,5625.565159,-11951.089769
825.096261,1628.453072,4145.153275,-11031.775171
825.096582,-222.061783,1480.411884,-9882.631924
825.096902,-740.205942,-1702.473667,-9729.412825
825.097223,-2294.638420,-4293.194464,-9959.241474
825.097543,-3775.050304,-5181.441594,-9652.803275
825.097864,-4441.235652,-4515.256246,-9576.193725
825.098184,0.000000,-962.267725,-8886.707777
825.098504,3034.844362,2072.576638,-10648.727422
825.098825,3256.906145,2960.823768,-9959.241474
825.099145,740.205942,3404.947333,-9882.631924
825.099466,2664.741391,2664.741391,-9806.022374
825.099786,6143.709319,3182.885551,-9959.241474
825.100107,5847.626942,3182.885551,-11108.384721
825.100427,666.185348,740.205942,-9652.803275
825.100748,-2812.782580,-1554.432478,-9806.022374
825.101068,-3552.988522,-1554.432478,-9959.241474
825.101388,-4293.194464,74.020594,-9882.631924
825.101709,-5847.626942,0.000000,-9422.974625
825.102029,-4071.132681,-296.082377,-9422.974625
825.102350,962.267725,-1702.473667,-9806.022374
825.102670,5033.400406,-1702.473667,-10572.117872
825.102991,5551.544565,444.123565,-9652.803275
825.103311,4071.132681,2812.782580,-10878.556072
825.103631,4367.215058,5329.482782,-11184.994271
825.103951,2886.803174,6661.853478,-10648.727422
825.104271,-296.082377,5255.462188,-11031.775171
825.104592,-2368.659014,1184.329507,-9729.412825
825.104912,-2442.679609,-3034.844362,-10265.679673
825.105232,-2368.659014,-5477.523971,-9959.241474
825.105552,-2738.761985,-4515.256246,-9346.365076
825.105872,-1998.556043,-1628.453072,-9269.755526
825.106192,0.000000,0.000000,-9882.631924
825.106513,1554.432478,1924.535449,-9959.241474
825.106833,1184.329507,1924.535449,-10725.336972
825.107153,888.247130,1924.535449,-10112.460574
825.107473,3034.844362,1258.350101,-10265.679673
825.107793,4293.194464,1184.329507,-10572.117872
825.108113,3923.091493,1332.370696,-10648.727422
825.108434,2146.597232,962.267725,-10418.898773
825.108754,1776.494261,-222.061783,-10265.679673
825.109074,-370.102971,-814.226536,-10342.289223
825.109394,-3923.091493,-1480.411884,-9422.974625
825.109714,-4811.338623,-1924.535449,-9422.974625
825.110034,-2960.823768,-2590.720797,-9422.974625
825.110355,-888.247130,-3330.926739,-9806.022374
825.110675,-222.061783,-3034.844362,-9729.412825
825.110995,1776.494261,-1406.391290,-9882.631924
825.111315,4293.194464,888.247130,-10418.898773
825.111635,3701.029710,3775.050304,-10801.946522
825.111955,1924.535449,3775.050304,-10418.898773
825.112276,518.144159,2812.782580,-10265.679673
825.112596,0.000000,-666.185348,-10495.508323
825.112916,-296.082377,-3256.906145,-10265.679673
825.113236,-1184.329507,-2590.720797,-9882.631924
825.113556,-2072.576638,-2294.638420,-9729.412825
825.113876,518.144159,-148.041188,-10418.898773
825.114197,592.164754,-370.102971,-10342.289223
825.114517,-518.144159,-1628.453072,-10342.289223
825.114837,-1628.453072,-1036.288319,-10112.460574
825.115157,-370.102971,-1110.308913,-10112.460574
825.115477,444.123565,74.020594,-10112.460574
825.115797,962.267725,1332.370696,-10265.679673
825.116118,2072.576638,1406.391290,-10112.460574
825.116438,2886.803174,1258.350101,-10801.946522
825.116758,1998.556043,-1036.288319,-10648.727422
825.117078,-148.041188,-1702.473667,-10189.070123
825.117398,-2368.659014,-2294.638420,-9806.022374
825.117718,-2442.679609,-1924.535449,-9806.022374
825.118039,-592.164754,-1850.514855,-9806.022374
825.118359,-296.082377,-296.082377,-9806.022374
825.118679,-222.061783,0.000000,-8656.879127
825.118999,2146.597232,740.205942,-10112.460574
825.119319,3701.029710,2146.597232,-10342.289223
825.119639,3849.070898,1776.494261,-10418.898773
825.119960,2442.679609,1406.391290,-9116.536426
825.120280,1184.329507,888.247130,-9116.536426
825.120600,888.247130,962.267725,-9882.631924
825.120920,-592.164754,1776.494261,-10112.460574
825.121240,-1184.329507,1110.308913,-9652.803275
825.121560,-666.185348,518.144159,-8963.317327
825.121880,1036.288319,-1998.556043,-9806.022374
825.122201,962.267725,-1258.350101,-10265.679673
825.122521,222.061783,-1110.308913,-9806.022374
825.122841,814.226536,-962.267725,-10342.289223
825.123161,1850.514855,444.123565,-9269.755526
825.123481,1480.411884,2294.638420,-10572.117872
825.123801,1554.432478,3552.988522,-10572.117872
825.124122,1554.432478,4293.194464,-10955.165621
825.124442,740.205942,3330.926739,-11338.213370
825.124762,296.082377,1184.329507,-10955.165621
825.125082,0.000000,-148.041188,-10189.070123
825.125402,0.000000,-1258.350101,-10572.117872
825.125722,-296.082377,-2368.659014,-10342.289223
825.126043,-2072.576638,-1258.350101,-9882.631924
825.126363,-2146.597232,-370.102971,-9729.412825
825.126683,-518.144159,666.185348,-9806.022374
825.127003,666.185348,1776.494261,-10035.851024
825.127323,1332.370696,1332.370696,-9959.241474
825.127643,1776.494261,962.267725,-9959.241474
825.127964,1924.535449,-518.144159,-9882.631924
825.128284,2368.659014,-592.164754,-10112.460574
825.128604,666.185348,2368.659014,-9882.631924
825.128924,-1480.411884,3478.967927,-9959.241474
825.129244,-1258.350101,1850.514855,-9806.022374
825.129564,148.041188,74.020594,-10112.460574
825.129885,-518.144159,-740.205942,-9959.241474
825.130205,-296.082377,-2146.597232,-9269.755526
825.130525,444.123565,-2960.823768,-9499.584175
825.130845,814.226536,-3256.906145,-9422.974625
825.131165,666.185348,-592.164754,-9576.193725
825.131485,1850.514855,2738.761985,-9729.412825
825.131806,3034.844362,2886.803174,-10189.070123
825.132126,4293.194464,2442.679609,-10878.556072
825.132446,1406.391290,1554.432478,-10725.336972
825.132766,-1406.391290,0.000000,-9576.193725
825.133086,-518.144159,-370.102971,-9652.803275
825.133406,592.164754,-814.226536,-9882.631924
825.133727,222.061783,-814.226536,-10572.117872
825.134047,-1110.308913,-1480.411884,-9806.022374
825.134367,-1110.308913,-1554.432478,-9959.241474
825.134687,74.020594,-222.061783,-10035.851024
825.135007,1258.350101,1184.329507,-10725.336972
825.135327,1406.391290,1110.308913,-10342.289223
825.135648,2072.576638,0.000000,-10648.727422
825.135968,1480.411884,-518.144159,-10112.460574
825.136288,1258.350101,148.041188,-10495.508323
825.136608,666.185348,1702.473667,-9652.803275
825.136928,888.247130,1924.535449,-10112.460574
825.137248,2368.659014,1998.556043,-10342.289223
825.137569,-222.061783,518.144159,-10189.070123
825.137889,-2516.700203,-1110.308913,-9729.412825
825.138209,-3182.885551,-2664.741391,-9269.755526
825.138529,-2072.576638,-3627.009116,-9882.631924
825.138849,-592.164754,-1850.514855,-9499.584175
825.139169,-1184.329507,-370.102971,-9193.145976
825.139490,1702.473667,2072.576638,-10112.460574
825.139810,3034.844362,2368.659014,-10495.508323
825.140130,2516.700203,2590.720797,-9729.412825
825.140450,-370.102971,1554.432478,-9806.022374
825.140770,-1258.350101,-666.185348,-9959.241474
825.141090,-148.041188,-1628.453072,-10112.460574
825.141411,-666.185348,-1628.453072,-9959.241474
825.141731,-2590.720797,-518.144159,-9729.412825
825.142051,-2146.597232,-370.102971,-10342.289223
825.142371,-370.102971,-740.205942,-10265.679673
825.142691,0.000000,74.020594,-10648.727422
825.143011,-444.123565,148.041188,-10342.289223
825.143332,0.000000,74.020594,-10801.946522
825.143652,1924.535449,1110.308913,-10342.289223
825.143972,2590.720797,1776.494261,-10725.336972
825.144292,2146.597232,2442.679609,-11414.822920
825.144612,2146.597232,2960.823768,-10572.117872
825.144932,2590.720797,2664.741391,-11338.213370
825.145253,1110.308913,1702.473667,-10725.336972
825.145573,-222.061783,740.205942,-10189.070123
825.145893,-370.102971,-444.123565,-10878.556072
825.146213,74.020594,-1332.370696,-10265.679673
825.146533,1406.391290,-444.123565,-10189.070123
825.146853,666.185348,592.164754,-9499.584175
825.147174,1184.329507,370.102971,-9652.803275
825.147494,2812.782580,1924.535449,-10112.460574
825.147814,3478.967927,3256.906145,-10495.508323
825.148134,3404.947333,3849.070898,-9882.631924
825.148454,3404.947333,1628.453072,-9729.412825
825.148774,3849.070898,-1332.370696,-9576.193725
825.149095,1628.453072,-1110.308913,-9652.803275
825.149415,370.102971,0.000000,-9499.584175
825.149735,0.000000,962.267725,-9729.412825
825.150055,148.041188,962.267725,-10342.289223
825.150375,370.102971,296.082377,-9806.022374
825.150695,-1554.432478,962.267725,-9959.241474
825.151016,-666.185348,370.102971,-9729.412825
825.151336,1850.514855,-814.226536,-10035.851024
825.151656,3182.885551,814.226536,-10035.851024
825.151976,1776.494261,1776.494261,-10112.460574
825.152296,2072.576638,2738.761985,-10189.070123
825.152616,1184.329507,2220.617826,-10955.165621
825.152937,-1110.308913,2812.782580,-10342.289223
825.153257,-2886.803174,1258.350101,-9652.803275
825.153577,-2220.617826,-370.102971,-10112.460574
825.153897,0.000000,-1554.432478,-10189.070123
825.154217,444.123565,-1998.556043,-10418.898773
825.154537,-518.144159,-1258.350101,-9806.022374
825.154858,-222.061783,-296.082377,-10265.679673
825.155178,1480.411884,814.226536,-10725.336972
825.155498,1406.391290,1628.453072,-10572.117872
825.155818,-592.164754,3775.050304,-10112.460574
825.156138,-1480.411884,2072.576638,-10572.117872
825.156458,-148.041188,-814.226536,-10189.070123
825.156779,-222.061783,-1924.535449,-10112.460574
825.157099,74.020594,-1406.391290,-9499.584175
825.157419,592.164754,-518.144159,-9576.193725
825.157739,1036.288319,1554.432478,-10342.289223
825.158059,0.000000,2294.638420,-10572.117872
825.158379,-2368.659014,888.247130,-9806.022374
825.158700,-2368.659014,-1776.494261,-9499.584175
825.159020,444.123565,-2738.761985,-9806.022374
825.159340,2442.679609,-2368.659014,-10035.851024
825.159660,2738.761985,-1406.391290,-9729.412825
825.159980,1924.535449,370.102971,-9729.412825
825.160300,2072.576638,2146.597232,-10418.898773
825.160621,1924.535449,2738.761985,-10648.727422
825.160941,444.123565,1702.473667,-10035.851024
825.161261,-148.041188,-1184.329507,-9806.022374
825.161581,740.205942,-2442.679609,-9652.803275
825.161901,0.000000,-2590.720797,-10112.460574
825.162221,-518.144159,-2442.679609,-9729.412825
825.162542,0.000000,-1258.350101,-9806.022374
825.162862,1776.494261,74.020594,-10342.289223
825.163182,2072.576638,2368.659014,-10801.946522
825.163502,-740.205942,2516.700203,-10418.898773
825.163822,-1258.350101,222.061783,-10035.851024
825.164142,444.123565,-1628.453072,-10342.289223
825.164463,888.247130,-1332.370696,-10265.679673
825.164783,1036.288319,-740.205942,-9959.241474
825.165103,0.000000,74.020594,-10265.679673
825.165423,888.247130,148.041188,-11031.775171
825.165743,888.247130,888.247130,-10495.508323
825.166063,-2146.597232,2442.679609,-10495.508323
825.166384,-1924.535449,1480.411884,-9959.241474
825.166704,-444.123565,-370.102971,-10572.117872
825.167024,592.164754,-1924.535449,-10112.460574
825.167344,444.123565,-2442.679609,-9882.631924
825.167664,-370.102971,-2220.617826,-8963.317327
825.167984,814.226536,-814.226536,-9806.022374
825.168305,1406.391290,2516.700203,-10189.070123
825.168625,518.144159,2664.741391,-9499.584175
825.168945,962.267725,1850.514855,-10112.460574
825.169265,666.185348,-296.082377,-9806.022374
825.169585,-222.061783,-1406.391290,-9806.022374
825.169905,-370.102971,-888.247130,-9346.365076
825.170226,-1258.350101,-222.061783,-9039.926876
825.170546,1332.370696,74.020594,-10189.070123
825.170866,3034.844362,740.205942,-10189.070123
825.171186,1554.432478,814.226536,-10035.851024
825.171506,888.247130,1702.473667,-9576.193725
825.171826,1850.514855,1480.411884,-10035.851024
825.172147,2368.659014,2368.659014,-10342.289223
825.172467,1480.411884,3108.864956,-9959.241474
825.172787,592.164754,3182.885551,-10265.679673
825.173107,1184.329507,1776.494261,-10801.946522
825.173427,1702.473667,666.185348,-10648.727422
825.173747,296.082377,1480.411884,-10572.117872
825.174068,-666.185348,2368.659014,-9882.631924
825.174388,370.102971,3478.967927,-10801.946522
825.174708,1184.329507,2886.803174,-10418.898773
825.175028,74.020594,1036.288319,-10112.460574
825.175348,-222.061783,0.000000,-9806.022374
825.175668,1406.391290,-444.123565,-10035.851024
825.175989,3552.988522,-148.041188,-10495.508323
825.176309,3182.885551,888.247130,-10112.460574
825.176629,2516.700203,1406.391290,-9959.241474
825.176949,2368.659014,1406.391290,-10189.070123
825.177269,1776.494261,1702.473667,-9959.241474
825.177589,-296.082377,1850.514855,-9882.631924
825.177910,-2368.659014,888.247130,-9652.803275
825.178230,-1776.494261,-1110.308913,-9806.022374
825.178550,-666.185348,-1998.556043,-9116.536426
825.178870,-2368.659014,-1998.556043,-9806.022374
825.179190,-1776.494261,-740.205942,-9806.022374
825.179510,740.205942,148.041188,-10265.679673
825.179831,1406.391290,1332.370696,-10801.946522
825.180151,370.102971,1702.473667,-9346.365076
825.180471,1184.329507,1702.473667,-9422.974625
825.180791,1628.453072,2442.679609,-10648.727422
825.181111,518.144159,1036.288319,-10342.289223
825.181431,-814.226536,-740.205942,-9806.022374
825.181752,-1258.350101,-1924.535449,-9346.365076
825.182072,0.000000,-2072.576638,-9576.193725
825.182392,74.020594,-1406.391290,-9959.241474
825.182712,-296.082377,370.102971,-10265.679673
825.183032,-962.267725,962.267725,-9346.365076
825.183352,-222.061783,-370.102971,-10342.289223
825.183673,962.267725,-666.185348,-10265.679673
825.183993,0.000000,0.000000,-10035.851024
825.184313,0.000000,740.205942,-10418.898773
825.184633,1850.514855,370.102971,-10418.898773
825.184953,2368.659014,-444.123565,-10495.508323
825.185273,2590.720797,-444.123565,-9882.631924
825.185594,1998.556043,-148.041188,-9882.631924
825.185914,1702.473667,222.061783,-10035.851024
825.186234,814.226536,444.123565,-10572.117872
825.186554,-740.205942,-370.102971,-10112.460574
825.186874,-1036.288319,-1776.494261,-9806.022374
825.187194,1184.329507,-2072.576638,-10648.727422
825.187515,1998.556043,-1258.350101,-10418.898773
825.187835,814.226536,-592.164754,-10035.851024
825.188155,148.041188,1776.494261,-10189.070123
825.188475,1850.514855,2368.659014,-10495.508323
825.188795,2812.782580,2072.576638,-10801.946522
825.189115,592.164754,1184.329507,-10495.508323
825.189436,-1110.308913,-222.061783,-9882.631924
825.189756,370.102971,-2220.617826,-10112.460574
825.190076,296.082377,-1702.473667,-9806.022374
825.190396,-592.164754,-1184.329507,-9806.022374
825.190716,-444.123565,-888.247130,-9806.022374
825.191036,-222.061783,1036.288319,-9806.022374
825.191356,296.082377,2590.720797,-10725.336972
825.191677,-666.185348,592.164754,-10112.460574
825.191997,-592.164754,222.061783,-9806.022374
825.192317,-222.061783,0.000000,-10112.460574
825.192637,1406.391290,-518.144159,-10342.289223
825.192957,1702.473667,-666.185348,-9882.631924
825.193277,222.061783,518.144159,-9882.631924
825.193598,-666.185348,444.123565,-10342.289223
825.193918,222.061783,2220.617826,-10955.165621
825.194238,-888.247130,1480.411884,-10112.460574
825.194558,-2368.659014,740.205942,-9576.193725
825.194878,-1776.494261,222.061783,-9729.412825
825.195198,-370.102971,592.164754,-10112.460574
825.195519,0.000000,1554.432478,-10265.679673
825.195839,1110.308913,1850.514855,-10035.851024
825.196159,2516.700203,1110.308913,-9959.241474
825.196479,2664.741391,1776.494261,-10572.117872
825.196799,1110.308913,2146.597232,-10265.679673
825.197119,888.247130,2368.659014,-10801.946522
825.197440,1258.350101,1332.370696,-10495.508323
825.197760,1776.494261,296.082377,-10418.898773
825.198080,962.267725,1110.308913,-10418.898773
825.198400,-222.061783,444.123565,-9729.412825
825.198720,1332.370696,1850.514855,-10342.289223
825.199040,1406.391290,3404.947333,-10495.508323
825.199361,1480.411884,3849.070898,-10648.727422
825.199681,962.267725,2960.823768,-10189.070123
825.200001,888.247130,1332.370696,-10418.898773
825.200321,2886.803174,-222.061783,-10035.851024
825.200641,1406.391290,-1184.329507,-9806.022374
825.200961,74.020594,74.020594,-9729.412825
825.201282,1702.473667,592.164754,-9729.412825
825.201602,2220.617826,1776.494261,-11874.480219
825.201922,592.164754,1554.432478,-10342.289223
825.202242,-740.205942,1036.288319,-9882.631924
825.202562,74.020594,296.082377,-10112.460574
825.202882,962.267725,0.000000,-8886.707777
825.203203,444.123565,-518.144159,-9806.022374
825.203523,0.000000,-592.164754,-9806.022374
825.203843,296.082377,-1258.350101,-9729.412825
825.204163,666.185348,-962.267725,-10035.851024
825.204483,370.102971,666.185348,-10495.508323
825.204803,-1036.288319,1258.350101,-9422.974625
825.205124,-962.267725,1258.350101,-10495.508323
825.205444,0.000000,0.000000,-9806.022374
825.205668,370.102971,74.020594,-9576.193725
825.205988,-518.144159,-296.082377,-9499.584175
825.206308,0.000000,0.000000,-9959.241474
825.206628,740.205942,-666.185348,-9882.631924
825.206948,-148.041188,-814.226536,-10342.289223
825.207268,-1184.329507,-1480.411884,-9729.412825
825.207588,-962.267725,-1628.453072,-9882.631924
825.207908,148.041188,-592.164754,-10189.070123
825.208228,-296.082377,1332.370696,-10112.460574
825.208548,0.000000,2072.576638,-10189.070123
825.208868,1702.473667,518.144159,-10495.508323
825.209188,1776.494261,-666.185348,-10572.117872
825.209509,74.020594,-2590.720797,-10035.851024
825.209829,-592.164754,-1776.494261,-10035.851024
825.210149,-518.144159,-1554.432478,-9806.022374
825.210469,2590.720797,-592.164754,-10801.946522
825.210789,2220.617826,370.102971,-10189.070123
825.211109,666.185348,1036.288319,-10648.727422
825.211429,1184.329507,1554.432478,-9806.022374
825.211749,962.267725,-666.185348,-10801.946522
825.212069,1406.391290,-1258.350101,-10112.460574
825.212389,-74.020594,-1924.535449,-9806.022374
825.212709,-296.082377,-2442.679609,-9499.584175
825.213029,1258.350101,-2812.782580,-9652.803275
825.213349,1332.370696,0.000000,-10265.679673
825.213669,888.247130,1258.350101,-9806.022374
825.213989,1406.391290,2368.659014,-10189.070123
825.214309,2368.659014,1702.473667,-10418.898773
825.214629,0.000000,0.000000,-10035.851024
825.214949,814.226536,-962.267725,-10035.851024
825.215269,-444.123565,-2442.679609,-9652.803275
825.215590,-1184.329507,-1850.514855,-9576.193725
825.215910,-1406.391290,-962.267725,-9959.241474
825.216230,-740.205942,666.185348,-10189.070123
825.216550,-1036.288319,1554.432478,-9959.241474
825.216870,0.000000,2146.597232,-11031.775171
825.217190,-666.185348,2664.741391,-11721.261119
825.217510,-1850.514855,1480.411884,-10265.679673
825.217830,-1554.432478,-814.226536,-9806.022374
825.218150,-370.102971,-2368.659014,-10035.851024
825.218470,740.205942,-2368.659014,-9806.022374
825.218790,148.041188,-1406.391290,-10035.851024
825.219110,-148.041188,-370.102971,-9652.803275
825.219430,148.041188,962.267725,-10725.336972
825.219750,740.205942,2368.659014,-10189.070123
825.220070,444.123565,2368.659014,-10265.679673
825.220390,740.205942,74.020594,-9729.412825
825.220710,1998.556043,518.144159,-10418.898773
825.221030,1184.329507,666.185348,-10035.851024
825.221351,0.000000,444.123565,-9959.241474
825.221671,-222.061783,-518.144159,-9193.145976
825.221991,740.205942,222.061783,-10035.851024
825.222311,222.061783,1850.514855,-10265.679673
825.222631,-592.164754,2294.638420,-10878.556072
825.222951,0.000000,1258.350101,-9882.631924
825.223271,1850.514855,888.247130,-10112.460574
825.223591,1480.411884,962.267725,-9959.241474
825.223911,814.226536,1628.453072,-9806.022374
825.224231,1776.494261,1628.453072,-9729.412825
825.224551,3775.050304,962.267725,-10572.117872
825.224871,3701.029710,1406.391290,-10495.508323
825.225191,1702.473667,2368.659014,-10112.460574
825.225511,1110.308913,2590.720797,-10342.289223
825.225831,1776.494261,2368.659014,-10801.946522
825.226151,1406.391290,2738.761985,-10418.898773
825.226471,74.020594,1776.494261,-10495.508323
825.226791,518.144159,-370.102971,-9576.193725
825.227111,2072.576638,-888.247130,-11184.994271
825.227432,1406.391290,-1036.288319,-10265.679673
825.227752,0.000000,-740.205942,-10265.679673
825.228072,222.061783,-666.185348,-10112.460574
825.228392,1998.556043,-148.041188,-9959.241474
825.228712,1184.329507,1036.288319,-10189.070123
825.229032,-222.061783,1628.453072,-9652.803275
825.229352,0.000000,296.082377,-9882.631924
825.229672,1184.329507,-370.102971,-10418.898773
825.229992,1258.350101,-1776.494261,-10265.679673
825.230312,-1406.391290,-1998.556043,-9806.022374
825.230632,-1628.453072,-2516.700203,-9422.974625
825.230952,-1036.288319,-2442.679609,-9806.022374
825.231272,74.020594,444.123565,-9959.241474
825.231592,-1406.391290,1332.370696,-10112.460574
825.231912,-1702.473667,2442.679609,-9882.631924
825.232232,1184.329507,2368.659014,-10725.336972
825.232552,2294.638420,1776.494261,-10725.336972
825.232872,-666.185348,148.041188,-10112.460574
825.233193,-1258.350101,-740.205942,-9806.022374
825.233513,-296.082377,-1480.411884,-9959.241474
825.233833,0.000000,0.000000,-9882.631924
825.234153,-666.185348,148.041188,-9729.412825
825.234473,0.000000,0.000000,-9269.755526
825.234793,2664.741391,-1110.308913,-10495.508323
825.235113,2072.576638,-1998.556043,-9882.631924
825.235433,74.020594,-2664.741391,-9806.022374
825.235753,-1480.411884,-3478.967927,-9576.193725
825.236073,444.123565,-2664.741391,-9959.241474
825.236393,296.082377,-1628.453072,-9806.022374
825.236713,0.000000,-444.123565,-10112.460574
825.237033,-666.185348,444.123565,-10265.679673
825.237353,1554.432478,518.144159,-10725.336972
825.237673,2442.679609,962.267725,-10418.898773
825.237993,296.082377,518.144159,-10572.117872
825.238313,0.000000,-1332.370696,-9499.584175
825.238633,666.185348,-2812.782580,-9652.803275
825.238953,962.267725,-2220.617826,-10035.851024
825.239274,444.123565,-666.185348,-10495.508323
825.239594,1554.432478,1332.370696,-10189.070123
825.239914,3256.906145,1628.453072,-10725.336972
825.240234,1036.288319,1702.473667,-10648.727422
825.240554,-1702.473667,740.205942,-10265.679673
825.240874,-1480.411884,-1702.473667,-9652.803275
825.241194,1332.370696,-1776.494261,-9422.974625
825.241514,444.123565,-1776.494261,-9882.631924
825.241834,370.102971,666.185348,-10265.679673
825.242154,0.000000,444.123565,-9576.193725
825.242474,1554.432478,1406.391290,-11108.384721
825.242794,1628.453072,1554.432478,-10725.336972
825.243114,-296.082377,962.267725,-10342.289223
825.243434,-444.123565,592.164754,-9959.241474
825.243754,296.082377,-1702.473667,-9882.631924
825.244074,148.041188,-962.267725,-10342.289223
825.244394,-1406.391290,-2294.638420,-9652.803275
825.244714,-1628.453072,-1776.494261,-9652.803275
825.245035,0.000000,0.000000,-10342.289223
825.245355,1184.329507,2294.638420,-10572.117872
825.245675,-74.020594,3627.009116,-10572.117872
825.245995,-1184.329507,3256.906145,-10418.898773
825.246315,-666.185348,1036.288319,-10418.898773
825.246635,1036.288319,-740.205942,-10112.460574
825.246955,1628.453072,-962.267725,-10418.898773
825.247275,1036.288319,-1480.411884,-9729.412825
825.247595,1480.411884,888.247130,-10189.070123
825.247915,592.164754,3108.864956,-10725.336972
825.248235,814.226536,4737.318029,-9959.241474
825.248555,592.164754,3478.967927,-10342.289223
825.248875,1628.453072,2368.659014,-10189.070123
825.249195,2368.659014,592.164754,-9882.631924
825.249515,1332.370696,-148.041188,-9576.193725
825.249835,1406.391290,74.020594,-9193.145976
825.250155,1702.473667,1998.556043,-10035.851024
825.250475,1332.370696,4071.132681,-10648.727422
825.250795,148.041188,2220.617826,-9729.412825
825.251116,-1184.329507,3330.926739,-9269.755526
825.251436,74.020594,1924.535449,-9652.803275
825.251756,2368.659014,1184.329507,-9959.241474
825.252076,2146.597232,-1332.370696,-9882.631924
825.252396,1258.350101,-1628.453072,-9729.412825
825.252716,2072.576638,-1628.453072,-9729.412825
825.253036,1924.535449,74.020594,-10878.556072
825.253356,296.082377,1776.494261,-10189.070123
825.253676,888.247130,4219.173869,-10572.117872
825.253996,2368.659014,3182.885551,-10725.336972
825.254316,444.123565,1776.494261,-10955.165621
825.254636,0.000000,-1184.329507,-10495.508323
825.254956,0.000000,-1850.514855,-9806.022374
825.255276,0.000000,-2368.659014,-10265.679673
825.255596,1184.329507,-148.041188,-10725.336972
825.255916,-1332.370696,148.041188,-10112.460574
825.256236,-2072.576638,518.144159,-10035.851024
825.256556,74.020594,592.164754,-10418.898773
825.256877,1480.411884,1184.329507,-10495.508323
825.257197,962.267725,814.226536,-10035.851024
825.257517,148.041188,222.061783,-9499.584175
825.257837,444.123565,-888.247130,-9729.412825
825.258157,370.102971,-740.205942,-9959.241474
825.258477,0.000000,-1184.329507,-9346.365076
825.258797,-1332.370696,-1850.514855,-9422.974625
825.259117,-518.144159,-1850.514855,-9576.193725
825.259437,-148.041188,-518.144159,-9652.803275
825.259757,0.000000,0.000000,-8503.660028
825.260077,74.020594,0.000000,-9499.584175
825.260397,1924.535449,0.000000,-10189.070123
825.260717,2590.720797,-518.144159,-10572.117872
825.261037,1036.288319,-1036.288319,-10418.898773
825.261357,0.000000,-888.247130,-9882.631924
825.261677,666.185348,-592.164754,-10265.679673
825.261997,518.144159,444.123565,-10342.289223
825.262317,444.123565,962.267725,-10495.508323
825.262637,740.205942,666.185348,-10035.851024
825.262958,1406.391290,-1332.370696,-10725.336972
825.263278,1776.494261,-1628.453072,-10572.117872
825.263598,888.247130,-1776.494261,-10189.070123
825.263918,-444.123565,-1480.411884,-10265.679673
825.264238,592.164754,444.123565,-10265.679673
825.264558,592.164754,814.226536,-10572.117872
825.264878,888.247130,518.144159,-10648.727422
825.265198,74.020594,1258.350101,-10189.070123
825.265518,888.247130,74.020594,-10189.070123
825.265838,1776.494261,592.164754,-10801.946522
825.266158,666.185348,370.102971,-10112.460574
825.266478,-1184.329507,74.020594,-10035.851024
825.266798,0.000000,-814.226536,-9806.022374
825.267118,-444.123565,-518.144159,-9882.631924
825.267438,-1850.514855,-740.205942,-9499.584175
825.267758,-3034.844362,0.000000,-8963.317327
825.268078,-222.061783,666.185348,-9652.803275
825.268398,2220.617826,1776.494261,-11491.432470
825.268719,0.000000,1406.391290,-10342.289223
825.269039,-888.247130,-148.041188,-9499.584175
825.269359,-888.247130,-1184.329507,-9652.803275
825.269679,-740.205942,-962.267725,-8886.707777
825.269999,444.123565,-296.082377,-9959.241474
825.270319,-814.226536,2072.576638,-9499.584175
825.270639,0.000000,1480.411884,-10495.508323
825.270959,1258.350101,1924.535449,-10495.508323
825.271279,0.000000,2146.597232,-10648.727422
825.271599,-962.267725,1406.391290,-9806.022374
825.271919,296.082377,888.247130,-10189.070123
825.272239,1924.535449,0.000000,-10035.851024
825.272559,2146.597232,-666.185348,-11491.432470
825.272879,1702.473667,0.000000,-9806.022374
825.273199,518.144159,444.123565,-10265.679673
825.273519,888.247130,1998.556043,-10955.165621
825.273839,888.247130,3256.906145,-10495.508323
825.274159,592.164754,3404.947333,-10495.508323
825.274480,962.267725,2220.617826,-10342.289223
825.274800,1850.514855,1406.391290,-10495.508323
825.275120,1998.556043,370.102971,-10342.289223
825.275440,1850.514855,666.185348,-9269.755526
825.275760,2442.679609,1406.391290,-10342.289223
825.276080,2294.638420,1850.514855,-10342.289223
825.276400,2146.597232,1924.535449,-10418.898773
825.276720,518.144159,1258.350101,-9959.241474
825.277040,814.226536,0.000000,-9806.022374
825.277360,1480.411884,444.123565,-10035.851024
825.277680,518.144159,2072.576638,-10342.289223
825.278000,370.102971,2442.679609,-9806.022374
825.278320,2072.576638,2368.659014,-9652.803275
825.278640,2516.700203,814.226536,-10265.679673
825.278960,370.102971,-666.185348,-9806.022374
825.279280,-1332.370696,-1702.473667,-9269.755526
825.279600,-370.102971,-2294.638420,-8810.098227
825.279920,1332.370696,-1554.432478,-9116.536426
825.280240,148.041188,-1184.329507,-9806.022374
825.280561,-962.267725,-740.205942,-9729.412825
825.280881,-222.061783,-296.082377,-10112.460574
825.281201,1406.391290,1776.494261,-10112.460574
825.281521,814.226536,1480.411884,-10342.289223
825.281841,-370.102971,296.082377,-9806.022374
825.282161,-592.164754,-1184.329507,-9882.631924
825.282481,0.000000,-1702.473667,-10878.556072
825.282801,222.061783,-2664.741391,-9882.631924
825.283121,-1998.556043,-2368.659014,-9652.803275
825.283441,-1036.288319,-814.226536,-10648.727422
825.283761,666.185348,1332.370696,-10648.727422
825.284081,-1258.350101,2072.576638,-10801.946522
825.284401,-1850.514855,3182.885551,-10878.556072
825.284721,-1406.391290,2368.659014,-10572.117872
825.285041,1332.370696,0.000000,-10955.165621
825.285361,2368.659014,-1924.535449,-10648.727422
825.285681,518.144159,-2220.617826,-9729.412825
825.286001,814.226536,-1702.473667,-10342.289223
825.286322,2368.659014,0.000000,-10572.117872
825.286642,666.185348,2146.597232,-10418.898773
825.286962,-518.144159,1924.535449,-10189.070123
825.287282,888.247130,222.061783,-10112.460574
825.287602,1776.494261,-1924.535449,-9959.241474
825.287922,1184.329507,-3775.050304,-9729.412825
825.288242,74.020594,-3775.050304,-7967.393179
825.288562,222.061783,-2960.823768,-8963.317327
825.288882,2368.659014,-1110.308913,-9959.241474
825.289202,1998.556043,962.267725,-9959.241474
825.289522,0.000000,2516.700203,-10035.851024
825.289842,0.000000,814.226536,-9116.536426
825.290162,1258.350101,296.082377,-9729.412825
825.290482,592.164754,-222.061783,-9806.022374
825.290802,1258.350101,-1036.288319,-9576.193725
825.291122,1480.411884,-1480.411884,-9346.365076
825.291442,1924.535449,-1702.473667,-9882.631924
825.291762,740.205942,0.000000,-9806.022374
825.292082,-962.267725,1702.473667,-10035.851024
825.292403,-592.164754,2146.597232,-10112.460574
825.292723,1406.391290,1480.411884,-10189.070123
825.293043,888.247130,518.144159,-10265.679673
825.293363,-592.164754,0.000000,-9959.241474
825.293683,-1184.329507,-222.061783,-9806.022374
825.294003,-222.061783,444.123565,-10648.727422
825.294323,-444.123565,0.000000,-10418.898773
825.294643,-1924.535449,962.267725,-10035.851024
825.294963,-1332.370696,1702.473667,-10189.070123
825.295283,222.061783,2072.576638,-10572.117872
825.295603,222.061783,2146.597232,-11108.384721
825.295923,0.000000,740.205942,-10265.679673
825.296243,0.000000,-444.123565,-9882.631924
825.296563,1110.308913,-740.205942,-10495.508323
825.296883,1924.535449,0.000000,-10572.117872
825.297203,-222.061783,1332.370696,-10265.679673
825.297523,-1554.432478,1998.556043,-10495.508323
825.297843,296.082377,888.247130,-10648.727422
825.298164,962.267725,1554.432478,-10189.070123
825.298484,-148.041188,1850.514855,-9882.631924
825.298804,1258.350101,1480.411884,-9882.631924
825.299124,2960.823768,1258.350101,-10189.070123
825.299444,1998.556043,296.082377,-10189.070123
825.299764,222.061783,0.000000,-9499.584175
825.300084,-444.123565,0.000000,-9116.536426
825.300404,888.247130,814.226536,-9499.584175
825.300724,2146.597232,1406.391290,-9576.193725
825.301044,666.185348,2664.741391,-9806.022374
825.301364,1850.514855,2294.638420,-9959.241474
825.301684,3775.050304,1184.329507,-10265.679673
825.302004,2590.720797,1258.350101,-10801.946522
825.302324,0.000000,1480.411884,-9729.412825
825.302644,0.000000,2368.659014,-10189.070123
825.302964,444.123565,1110.308913,-9806.022374
825.303284,2294.638420,1036.288319,-10189.070123
825.303604,1258.350101,814.226536,-9806.022374
825.303924,-222.061783,666.185348,-9806.022374
825.304245,1110.308913,222.061783,-10342.289223
825.304565,2368.659014,666.185348,-10495.508323
825.304884,1406.391290,1480.411884,-10495.508323
825.305204,222.061783,1036.288319,-10265.679673
825.305524,148.041188,518.144159,-10495.508323
825.305844,296.082377,-1184.329507,-10495.508323
825.306164,0.000000,-1258.350101,-10189.070123
825.306484,-666.185348,-444.123565,-10112.460574
825.306804,592.164754,444.123565,-11031.775171
825.307124,0.000000,2072.576638,-10955.165621
825.307444,-1850.514855,1850.514855,-10572.117872
825.307764,-2664.741391,740.205942,-10112.460574
825.308084,-1554.432478,0.000000,-10265.679673
825.308403,-740.205942,-296.082377,-10265.679673
825.308723,-814.226536,-1332.370696,-9499.584175
825.309043,592.164754,-1850.514855,-9652.803275
825.309363,3256.906145,-1184.329507,-10265.679673
825.309683,2368.659014,222.061783,-9806.022374
825.310003,814.226536,1036.288319,-9882.631924
825.310323,0.000000,370.102971,-9269.755526
825.310643,666.185348,-592.164754,-9806.022374
825.310963,74.020594,-1702.473667,-9346.365076
825.311283,-740.205942,-1776.494261,-9116.536426
825.311602,-370.102971,-2590.720797,-9269.755526
825.311922,962.267725,-1776.494261,-10189.070123
825.312242,370.102971,148.041188,-10265.679673
825.312562,-1406.391290,592.164754,-9806.022374
825.312882,-2146.597232,-592.164754,-9652.803275
825.313202,666.185348,-370.102971,-10265.679673
825.313522,1184.329507,-1480.411884,-10112.460574
825.313842,1776.494261,-1036.288319,-9959.241474
825.314162,1332.370696,-592.164754,-10265.679673
825.314482,2738.761985,74.020594,-11108.384721
825.314802,1998.556043,444.123565,-10801.946522
825.315121,740.205942,518.144159,-10648.727422
825.315441,1036.288319,-296.082377,-10265.679673
825.315761,1554.432478,148.041188,-11031.775171
825.316081,814.226536,74.020594,-10955.165621
825.316401,-518.144159,-148.041188,-10265.679673
825.316721,-518.144159,74.020594,-10035.851024
825.317041,592.164754,-962.267725,-10801.946522
825.317361,222.061783,-1258.350101,-10955.165621
825.317681,-888.247130,-1036.288319,-10035.851024
825.318001,-2664.741391,74.020594,-10112.460574
825.318320,148.041188,1924.535449,-9882.631924
825.318640,444.123565,1332.370696,-10572.117872
825.318960,666.185348,444.123565,-10035.851024
825.319280,1332.370696,0.000000,-9729.412825
825.319600,1998.556043,-740.205942,-9882.631924
825.319920,1406.391290,370.102971,-9959.241474
825.320240,-592.164754,0.000000,-9959.241474
825.320560,-518.144159,0.000000,-8810.098227
825.320880,370.102971,-296.082377,-9882.631924
825.321200,1480.411884,-444.123565,-9576.193725
825.321519,-814.226536,518.144159,-9882.631924
825.321839,-1776.494261,1480.411884,-9882.631924
825.322159,518.144159,1332.370696,-10035.851024
825.322479,1036.288319,1628.453072,-9652.803275
825.322799,-222.061783,518.144159,-9806.022374
825.323119,-1480.411884,-888.247130,-9652.803275
825.323439,148.041188,-1332.370696,-9806.022374
825.323759,1258.350101,296.082377,-8886.707777
825.324079,1110.308913,1332.370696,-10112.460574
825.324399,444.123565,2886.803174,-10112.460574
825.324719,1036.288319,1998.556043,-10418.898773
825.325038,2146.597232,1998.556043,-11031.775171
825.325358,222.061783,1036.288319,-9882.631924
825.325678,-1776.494261,74.020594,-9959.241474
825.325998,-444.123565,-740.205942,-9882.631924
825.326318,1628.453072,666.185348,-10418.898773
825.326638,2738.761985,2368.659014,-10112.460574
825.326958,1406.391290,3627.009116,-9882.631924
825.327278,962.267725,4071.132681,-10955.165621
825.327598,1184.329507,3330.926739,-10495.508323
825.327918,370.102971,2664.741391,-10725.336972
825.328237,-666.185348,74.020594,-9652.803275
825.328557,-740.205942,-2368.659014,-9806.022374
825.328877,1110.308913,-1628.453072,-9729.412825
825.329197,1850.514855,592.164754,-10572.117872
825.329517,1776.494261,1850.514855,-9806.022374
825.329837,1924.535449,4145.153275,-10801.946522
825.330157,888.247130,4071.132681,-10418.898773
825.330477,1332.370696,3108.864956,-10342.289223
825.330797,370.102971,592.164754,-9652.803275
825.331117,2220.617826,-1184.329507,-9806.022374
825.331437,2590.720797,-2590.720797,-9499.584175
825.331756,2146.597232,-1332.370696,-9652.803275
825.332076,1110.308913,-592.164754,-9576.193725
825.332396,1554.432478,814.226536,-10265.679673
825.332716,962.267725,814.226536,-10572.117872
825.333036,0.000000,814.226536,-9882.631924
825.333356,-148.041188,0.000000,-9346.365076
825.333676,1406.391290,-1036.288319,-9806.022374
825.333996,2146.597232,-740.205942,-10801.946522
825.334316,1406.391290,-1184.329507,-9729.412825
825.334636,1332.370696,-222.061783,-9806.022374
825.334955,1924.535449,592.164754,-10265.679673
825.335275,2442.679609,1480.411884,-10112.460574
825.335595,1036.288319,296.082377,-10725.336972
825.335915,0.000000,-444.123565,-10112.460574
825.336235,222.061783,-592.164754,-9959.241474
825.336555,1480.411884,0.000000,-11184.994271
825.336875,666.185348,740.205942,-10801.946522
825.337195,0.000000,814.226536,-10265.679673
825.337515,148.041188,1406.391290,-10572.117872
825.337835,370.102971,1776.494261,-10572.117872
825.338154,-444.123565,814.226536,-11644.651570
825.338474,-1702.473667,-666.185348,-9882.631924
825.338794,-962.267725,-2368.659014,-10035.851024
825.339114,-592.164754,-2960.823768,-9806.022374
825.339434,-2442.679609,-1184.329507,-9959.241474
825.339754,-2812.782580,74.020594,-9576.193725
825.340074,-1406.391290,666.185348,-10265.679673
825.340394,-444.123565,962.267725,-10495.508323
825.340714,-1036.288319,0.000000,-10572.117872
825.341034,-2072.576638,-1258.350101,-9499.584175
825.341354,-1480.411884,-3108.864956,-9422.974625
825.341673,0.000000,-2368.659014,-9806.022374
825.341993,-962.267725,-666.185348,-9576.193725
825.342313,-1702.473667,370.102971,-9116.536426
825.342633,74.020594,1332.370696,-10265.679673
825.342953,0.000000,962.267725,-10572.117872
825.343273,-1554.432478,148.041188,-10572.117872
825.343593,-3034.844362,-962.267725,-9576.193725
825.343913,-1554.432478,-1406.391290,-9193.145976
825.344233,962.267725,-1110.308913,-10189.070123
825.344553,1850.514855,-444.123565,-10418.898773
825.344872,814.226536,666.185348,-9729.412825
825.345192,1406.391290,1850.514855,-10265.679673
825.345512,2516.700203,1776.494261,-11031.775171
825.345832,2072.576638,1406.391290,-10725.336972
825.346152,592.164754,-296.082377,-9806.022374
825.346472,2516.700203,-888.247130,-9806.022374
825.346792,3034.844362,-962.267725,-10035.851024
825.347112,666.185348,518.144159,-10801.946522
825.347432,0.000000,1776.494261,-10035.851024
825.347752,666.185348,1850.514855,-10495.508323
825.348071,1554.432478,1480.411884,-10648.727422
825.348391,1036.288319,1184.329507,-10342.289223
825.348711,-370.102971,0.000000,-9959.241474
825.349031,0.000000,-1480.411884,-9652.803275
825.349351,2368.659014,-1110.308913,-9422.974625
825.349671,2072.576638,-592.164754,-10035.851024
825.349991,1258.350101,1554.432478,-9806.022374
825.350311,1702.473667,3182.885551,-10342.289223
825.350631,1776.494261,3404.947333,-10572.117872
825.350951,1258.350101,2664.741391,-10265.679673
825.351271,0.000000,666.185348,-9729.412825
825.351590,1184.329507,-1554.432478,-9269.755526
825.351910,2220.617826,-1924.535449,-9806.022374
825.352230,2072.576638,-1110.308913,-9652.803275
825.352550,222.061783,1480.411884,-9576.193725
825.352870,-444.123565,2220.617826,-9499.584175
825.353190,0.000000,2664.741391,-10495.508323
825.353510,-962.267725,2294.638420,-10572.117872
825.353830,-1406.391290,1850.514855,-9806.022374
825.354150,-1036.288319,444.123565,-10342.289223
825.354470,518.144159,148.041188,-10112.460574
825.354789,1332.370696,-148.041188,-10035.851024
825.355109,592.164754,1036.288319,-9499.584175
825.355429,1406.391290,1924.535449,-10265.679673
825.355749,1406.391290,2146.597232,-10725.336972
825.356069,0.000000,888.247130,-10418.898773
825.356389,-1628.453072,0.000000,-9806.022374
825.356709,-1480.411884,-962.267725,-9806.022374
825.357029,0.000000,-666.185348,-9882.631924
825.357349,-518.144159,-444.123565,-10265.679673
825.357669,740.205942,814.226536,-9806.022374
825.357989,1776.494261,1332.370696,-10801.946522
825.358308,1924.535449,1998.556043,-10648.727422
825.358628,148.041188,444.123565,-10265.679673
825.358948,-1036.288319,-888.247130,-9652.803275
825.359268,0.000000,-1998.556043,-9652.803275
825.359588,2590.720797,-888.247130,-10189.070123
825.359908,1480.411884,-222.061783,-10035.851024
825.360228,0.000000,296.082377,-9806.022374
825.360548,1776.494261,814.226536,-9882.631924
825.360868,3330.926739,444.123565,-10495.508323
825.361188,1406.391290,74.020594,-10495.508323
825.361507,-814.226536,0.000000,-9729.412825
825.361827,-740.205942,-444.123565,-10189.070123
825.362147,3182.885551,0.000000,-10189.070123
825.362467,3849.070898,0.000000,-10801.946522
825.362787,1998.556043,592.164754,-9882.631924
825.363107,1850.514855,444.123565,-10189.070123
825.363427,1998.556043,1258.350101,-10648.727422
825.363747,1850.514855,1554.432478,-10648.727422
825.364067,-888.247130,222.061783,-10418.898773
825.364387,-1258.350101,-1406.391290,-9959.241474
825.364706,74.020594,-2220.617826,-10342.289223
825.365026,814.226536,-1480.411884,-10495.508323
825.365346,518.144159,-1184.329507,-9882.631924
825.365666,1628.453072,-1332.370696,-9959.241474
825.365986,2072.576638,-740.205942,-10112.460574
825.366306,962.267725,-518.144159,-10801.946522
825.366626,-222.061783,74.020594,-9806.022374
825.366946,-666.185348,-444.123565,-10418.898773
825.367266,444.123565,-888.247130,-10648.727422
825.367586,592.164754,222.061783,-10418.898773
825.367906,-888.247130,0.000000,-9882.631924
825.368225,-592.164754,814.226536,-10035.851024
825.368545,888.247130,1110.308913,-10725.336972
825.368865,0.000000,1406.391290,-10572.117872
825.369185,-2294.638420,-518.144159,-10035.851024
825.369505,-3552.988522,-2220.617826,-9652.803275
825.369825,-2294.638420,-2516.700203,-9499.584175
825.370145,-814.226536,-1628.453072,-9882.631924
825.370465,-1184.329507,666.185348,-9882.631924
825.370785,296.082377,2146.597232,-9806.022374
825.371105,1924.535449,2590.720797,-10265.679673
825.371424,888.247130,1702.473667,-10495.508323
825.371744,-444.123565,-222.061783,-9729.412825
825.372064,-222.061783,-1332.370696,-9806.022374
825.372384,740.205942,-2294.638420,-9422.974625
825.372704,148.041188,-888.247130,-10035.851024
825.373024,-592.164754,666.185348,-9346.365076
825.373344,-592.164754,962.267725,-9576.193725
825.373664,1110.308913,1480.411884,-10342.289223
825.373984,1258.350101,1258.350101,-10495.508323
825.374304,0.000000,888.247130,-9959.241474
825.374624,-814.226536,-370.102971,-9959.241474
825.374943,370.102971,-740.205942,-9959.241474
825.375263,1332.370696,444.123565,-10265.679673
825.375583,814.226536,962.267725,-9882.631924
825.375903,1628.453072,2072.576638,-10035.851024
825.376223,2072.576638,2812.782580,-10725.336972
825.376543,1850.514855,2812.782580,-10801.946522
825.376863,1110.308913,2220.617826,-10112.460574
825.377183,370.102971,370.102971,-10035.851024
825.377503,1850.514855,-2294.638420,-10112.460574
825.377823,888.247130,-1702.473667,-10112.460574
825.378142,-1036.288319,148.041188,-10189.070123
825.378462,-1036.288319,1850.514855,-9499.584175
825.378782,222.061783,3997.112087,-10418.898773
825.379102,814.226536,4071.132681,-10572.117872
825.379422,1702.473667,2738.761985,-10265.679673
825.379742,1406.391290,74.020594,-10342.289223
825.380062,1998.556043,-1480.411884,-10035.851024
825.380382,1258.350101,-1702.473667,-9499.584175
825.380702,296.082377,0.000000,-9806.022374
825.381022,1258.350101,2220.617826,-9806.022374
825.381341,2294.638420,2960.823768,-10495.508323
825.381661,2368.659014,2220.617826,-10495.508323
825.381981,1702.473667,518.144159,-9882.631924
825.382301,2294.638420,-740.205942,-9729.412825
825.382621,2146.597232,-1332.370696,-10189.070123
825.382941,1406.391290,-296.082377,-9882.631924
825.383261,0.000000,962.267725,-9959.241474
825.383581,0.000000,1554.432478,-9576.193725
825.383901,1332.370696,1924.535449,-9806.022374
825.384221,296.082377,740.205942,-10648.727422
825.384541,-518.144159,0.000000,-9806.022374
825.384860,-1480.411884,-1332.370696,-10035.851024
825.385180,222.061783,-1480.411884,-9422.974625
825.385500,-592.164754,-2072.576638,-9959.241474
825.385820,-1258.350101,-296.082377,-10189.070123
825.386140,-592.164754,1258.350101,-10189.070123
825.386460,666.185348,2368.659014,-11031.775171
825.386780,1258.350101,2368.659014,-11797.870669
825.387100,148.041188,888.247130,-10801.946522
825.387420,0.000000,-1036.288319,-10725.336972
825.387740,1110.308913,-2664.741391,-10418.898773
825.388059,1924.535449,-1702.473667,-10801.946522
825.388379,-148.041188,-148.041188,-10342.289223
825.388699,-444.123565,1850.514855,-10035.851024
825.389019,1480.411884,1924.535449,-10801.946522
825.389339,1776.494261,1480.411884,-10112.460574
825.389659,-222.061783,814.226536,-10572.117872
825.389979,-888.247130,-518.144159,-10112.460574
825.390299,0.000000,-1184.329507,-9882.631924
825.390619,962.267725,-740.205942,-9959.241474
825.390939,444.123565,-962.267725,-9576.193725
825.391258,814.226536,-740.205942,-9193.145976
825.391578,1776.494261,-962.267725,-10035.851024
825.391898,1036.288319,74.020594,-9882.631924
825.392218,0.000000,740.205942,-9959.241474
825.392538,-1480.411884,0.000000,-9576.193725
825.392858,0.000000,-2072.576638,-9729.412825
825.393178,592.164754,-2738.761985,-9422.974625
825.393498,444.123565,-2960.823768,-9576.193725
825.393818,1628.453072,-2146.597232,-8963.317327
825.394138,2442.679609,-296.082377,-10189.070123
825.394458,2886.803174,1406.391290,-10112.460574
825.394777,1184.329507,1258.350101,-9959.241474
825.395097,-296.082377,962.267725,-9806.022374
825.395417,148.041188,-1480.411884,-10112.460574
825.395737,148.041188,-1850.514855,-10035.851024
825.396057,-888.247130,-1406.391290,-10265.679673
825.396377,-814.226536,-148.041188,-9959.241474
825.396697,74.020594,1036.288319,-10572.117872
825.397017,444.123565,1776.494261,-11491.432470
825.397337,-888.247130,1850.514855,-10801.946522
825.397657,-1406.391290,666.185348,-10495.508323
825.397976,-666.185348,1480.411884,-10495.508323
825.398296,444.123565,1406.391290,-10878.556072
825.398616,0.000000,1258.350101,-10725.336972
825.398936,-444.123565,740.205942,-10342.289223
825.399256,962.267725,0.000000,-10495.508323
825.399576,740.205942,296.082377,-10725.336972
825.399896,962.267725,888.247130,-10418.898773
825.400216,0.000000,814.226536,-10189.070123
825.400536,370.102971,740.205942,-10112.460574
825.400856,518.144159,814.226536,-9882.631924
825.401176,-444.123565,222.061783,-10112.460574
825.401495,-1184.329507,888.247130,-9269.755526
825.401815,592.164754,1184.329507,-9806.022374
825.402135,2368.659014,1184.329507,-10265.679673
825.402455,3256.906145,370.102971,-9729.412825
825.402775,2590.720797,-592.164754,-9346.365076
825.403095,2442.679609,-1332.370696,-9729.412825
825.403415,2146.597232,-222.061783,-9499.584175
825.403735,1332.370696,1702.473667,-9422.974625
825.404055,814.226536,2220.617826,-9422.974625
825.404375,1110.308913,1924.535449,-9729.412825
825.404695,1554.432478,1406.391290,-10189.070123
825.405015,0.000000,1258.350101,-10342.289223
825.405335,-1776.494261,888.247130,-9729.412825
825.405655,-1258.350101,518.144159,-9806.022374
825.405975,222.061783,888.247130,-10418.898773
825.406295,222.061783,740.205942,-9959.241474
825.406615,-222.061783,222.061783,-9806.022374
825.406936,296.082377,666.185348,-10189.070123
825.407256,1406.391290,2368.659014,-11031.775171
825.407576,1184.329507,3404.947333,-10955.165621
825.407896,1036.288319,2294.638420,-10189.070123
825.408216,814.226536,518.144159,-10648.727422
825.408536,1628.453072,-962.267725,-10112.460574
825.408856,0.000000,-2220.617826,-10189.070123
825.409176,-740.205942,-1110.308913,-9652.803275
825.409496,222.061783,666.185348,-10495.508323
825.409816,222.061783,2442.679609,-11031.775171
825.410136,-592.164754,3034.844362,-10648.727422
825.410456,-2368.659014,1998.556043,-9882.631924
825.410776,-370.102971,-148.041188,-10418.898773
825.411097,0.000000,-2368.659014,-10265.679673
825.411417,222.061783,-3478.967927,-9806.022374
825.411737,74.020594,-2738.761985,-9116.536426
825.412057,1184.329507,-592.164754,-9806.022374
825.412377,1406.391290,1332.370696,-10572.117872
825.412697,1332.370696,2368.659014,-10112.460574
825.413017,-592.164754,2220.617826,-9729.412825
825.413337,0.000000,592.164754,-9729.412825
825.413657,1332.370696,-1332.370696,-9806.022374
825.413977,296.082377,-2960.823768,-9422.974625
825.414297,0.000000,-2886.803174,-9039.926876
825.414617,740.205942,-1776.494261,-9346.365076
825.414937,1406.391290,296.082377,-10265.679673
825.415258,296.082377,2072.576638,-10112.460574
825.415578,-666.185348,2664.741391,-9959.241474
825.415898,-148.041188,1332.370696,-9882.631924
825.416218,2146.597232,148.041188,-9882.631924
825.416538,2220.617826,-1776.494261,-10265.679673
825.416858,2368.659014,-2220.617826,-9652.803275
825.417178,2442.679609,-1998.556043,-10189.070123
825.417498,2516.700203,-370.102971,-10648.727422
825.417818,1850.514855,0.000000,-10342.289223
825.418138,148.041188,1554.432478,-10035.851024
825.418458,814.226536,1110.308913,-11031.775171
825.418778,1480.411884,444.123565,-10725.336972
825.419098,740.205942,-222.061783,-10801.946522
825.419419,-370.102971,-888.247130,-10035.851024
825.419739,148.041188,-1628.453072,-10035.851024
825.420059,2368.659014,-444.123565,-10572.117872
825.420379,1776.494261,740.205942,-11108.384721
825.420699,222.061783,1036.288319,-9882.631924
825.421019,444.123565,814.226536,-10648.727422
825.421339,1110.308913,296.082377,-10572.117872
825.421659,814.226536,666.185348,-10342.289223
825.421979,-666.185348,740.205942,-9806.022374
825.422299,518.144159,518.144159,-9806.022374
825.422619,1332.370696,592.164754,-10418.898773
825.422939,0.000000,518.144159,-10418.898773
825.423259,-1850.514855,222.061783,-10035.851024
825.423580,-1406.391290,-444.123565,-9652.803275
825.423900,-222.061783,222.061783,-10035.851024
825.424220,148.041188,1406.391290,-10112.460574
825.424540,-1998.556043,1850.514855,-10035.851024
825.424860,-1258.350101,666.185348,-9652.803275
825.425180,74.020594,666.185348,-9806.022374
825.425500,-592.164754,-592.164754,-9729.412825
825.425820,-1850.514855,-222.061783,-9422.974625
825.426140,-518.144159,-666.185348,-9806.022374
825.426460,814.226536,-222.061783,-11338.213370
825.426780,888.247130,666.185348,-9959.241474
825.427100,296.082377,518.144159,-9346.365076
825.427420,0.000000,1184.329507,-9806.022374
825.427741,1480.411884,2072.576638,-10265.679673
825.428061,666.185348,1258.350101,-9882.631924
825.428381,0.000000,296.082377,-10112.460574
825.428701,888.247130,-740.205942,-9882.631924
825.429021,1258.350101,-296.082377,-9882.631924
825.429341,1184.329507,1184.329507,-9806.022374
825.429661,-148.041188,2664.741391,-10418.898773
825.429981,1036.288319,2516.700203,-10418.898773
825.430301,1702.473667,1850.514855,-10495.508323
825.430621,1258.350101,1480.411884,-10878.556072
825.430941,74.020594,592.164754,-9806.022374
825.431261,222.061783,296.082377,-9806.022374
825.431581,2368.659014,962.267725,-10418.898773
825.431902,2368.659014,1776.494261,-10572.117872
825.432222,1406.391290,1480.411884,-9806.022374
825.432542,1406.391290,1406.391290,-10112.460574
825.432862,1628.453072,1184.329507,-10342.289223
825.433182,888.247130,1702.473667,-10189.070123
825.433502,592.164754,1332.370696,-9959.241474
825.433822,1406.391290,370.102971,-10035.851024
825.434142,2590.720797,-74.020594,-10112.460574
825.434462,1480.411884,-222.061783,-9959.241474
825.434782,740.205942,518.144159,-9576.193725
825.435102,962.267725,1628.453072,-11108.384721
825.435422,1332.370696,1258.350101,-10495.508323
825.435742,148.041188,888.247130,-10112.460574
825.436063,-814.226536,-666.185348,-9269.755526
825.436383,74.020594,-1702.473667,-9806.022374
825.436703,370.102971,-2294.638420,-10189.070123
825.437023,444.123565,-962.267725,-9882.631924
825.437343,-296.082377,740.205942,-9806.022374
825.437663,1258.350101,1480.411884,-10035.851024
825.437983,2294.638420,1036.288319,-10801.946522
825.438303,296.082377,592.164754,-10265.679673
825.438623,-1776.494261,-296.082377,-10035.851024
825.438943,-2146.597232,-1702.473667,-10189.070123
825.439263,888.247130,-2664.741391,-9882.631924
825.439583,444.123565,-1036.288319,-10801.946522
825.439903,-222.061783,148.041188,-10418.898773
825.440224,592.164754,1406.391290,-10189.070123
825.440544,1776.494261,2590.720797,-11568.042020
825.440864,962.267725,2072.576638,-10955.165621
825.441184,-592.164754,592.164754,-10495.508323
825.441504,-814.226536,-1924.535449,-9806.022374
825.441824,444.123565,-2664.741391,-9806.022374
825.442144,0.000000,-1184.329507,-9652.803275
825.442464,-1258.350101,0.000000,-9729.412825
825.442784,-962.267725,962.267725,-9806.022374
825.443104,370.102971,1258.350101,-10265.679673
825.443424,962.267725,592.164754,-10035.851024
825.443744,-444.123565,-296.082377,-9806.022374
825.444065,-370.102971,-1924.535449,-9576.193725
825.444385,518.144159,-2516.700203,-9269.755526
825.444705,1702.473667,-2590.720797,-9806.022374
825.445025,740.205942,-1850.514855,-10648.727422
825.445345,518.144159,-1554.432478,-9499.584175
825.445665,1554.432478,-222.061783,-10112.460574
825.445985,1332.370696,370.102971,-10265.679673
825.446305,592.164754,1554.432478,-9499.584175
825.446625,-592.164754,740.205942,-9882.631924
825.446945,-962.267725,0.000000,-9959.241474
825.447265,-518.144159,-814.226536,-10035.851024
825.447585,-814.226536,-1554.432478,-9882.631924
825.447905,1184.329507,-2220.617826,-9729.412825
825.448226,1406.391290,-222.061783,-10572.117872
825.448546,1184.329507,814.226536,-10725.336972
825.448866,444.123565,962.267725,-10418.898773
825.449186,148.041188,1702.473667,-10035.851024
825.449506,370.102971,740.205942,-10418.898773
825.449826,-222.061783,1258.350101,-10648.727422
825.450146,-370.102971,444.123565,-10342.289223
825.450466,1036.288319,0.000000,-10572.117872
825.450786,2516.700203,222.061783,-10725.336972
825.451106,1258.350101,370.102971,-10572.117872
825.451426,592.164754,1110.308913,-10265.679673
825.451746,814.226536,1406.391290,-10265.679673
825.452066,1924.535449,1406.391290,-9959.241474
825.452387,2368.659014,1332.370696,-10648.727422
825.452707,2220.617826,0.000000,-9652.803275
825.453027,1406.391290,-370.102971,-9652.803275
825.453347,1776.494261,444.123565,-9959.241474
825.453667,888.247130,888.247130,-9576.193725
825.453987,296.082377,888.247130,-9576.193725
825.454307,1332.370696,1184.329507,-9729.412825
825.454627,1850.514855,592.164754,-10189.070123
825.454947,1628.453072,740.205942,-9346.365076
825.455267,74.020594,444.123565,-9576.193725
825.455587,0.000000,888.247130,-9499.584175
825.455907,1110.308913,1776.494261,-9959.241474
825.456227,1184.329507,1628.453072,-10189.070123
825.456548,1554.432478,1110.308913,-9959.241474
825.456868,148.041188,888.247130,-9882.631924
825.457188,-296.082377,1184.329507,-10265.679673
825.457508,-888.247130,740.205942,-10112.460574
825.457828,-592.164754,1258.350101,-9882.631924
825.458148,592.164754,1406.391290,-10112.460574
825.458468,888.247130,2146.597232,-10648.727422
825.458788,666.185348,2812.782580,-11031.775171
825.459108,-296.082377,2960.823768,-10189.070123
825.459428,-148.041188,2738.761985,-10342.289223
825.459748,1406.391290,1406.391290,-10572.117872
825.460068,1332.370696,222.061783,-10342.289223
825.460388,-148.041188,-1258.350101,-9806.022374
825.460709,-1184.329507,-666.185348,-9882.631924
825.461029,-1258.350101,-592.164754,-10265.679673
825.461349,-814.226536,1258.350101,-10495.508323
825.461669,-1110.308913,1554.432478,-9882.631924
825.461989,-148.041188,1258.350101,-9959.241474
825.462309,1332.370696,518.144159,-10112.460574
825.462629,1702.473667,0.000000,-10418.898773
825.462949,0.000000,-222.061783,-9882.631924
825.463269,814.226536,-1258.350101,-9499.584175
825.463589,1776.494261,-1184.329507,-9652.803275
825.463909,518.144159,-1258.350101,-9959.241474
825.464229,-1110.308913,-666.185348,-9806.022374
825.464549,-2886.803174,-296.082377,-9422.974625
825.464870,-814.226536,148.041188,-9499.584175
825.465190,740.205942,148.041188,-9806.022374
825.465510,1776.494261,296.082377,-9806.022374
825.465830,1628.453072,148.041188,-9652.803275
825.466150,1110.308913,-1480.411884,-9959.241474
825.466470,1776.494261,-592.164754,-9729.412825
825.466790,0.000000,-1258.350101,-10112.460574
825.467110,-814.226536,-740.205942,-9652.803275
825.467430,0.000000,-148.041188,-10342.289223
825.467750,888.247130,814.226536,-10035.851024
825.468070,814.226536,1258.350101,-10342.289223
825.468390,1036.288319,1036.288319,-10342.289223
825.468710,1036.288319,74.020594,-10572.117872
825.469031,1184.329507,-222.061783,-10572.117872
825.469351,296.082377,-1110.308913,-10342.289223
825.469671,-592.164754,-1628.453072,-9959.241474
825.469991,-222.061783,-1850.514855,-10035.851024
825.470311,148.041188,-740.205942,-10189.070123
825.470631,444.123565,962.267725,-10189.070123
825.470951,666.185348,740.205942,-10342.289223
825.471271,1776.494261,518.144159,-10495.508323
825.471591,296.082377,74.020594,-10418.898773
825.471911,-1184.329507,-296.082377,-10189.070123
825.472231,-1702.473667,-370.102971,-10035.851024
825.472551,-444.123565,-370.102971,-10418.898773
825.472871,-148.041188,148.041188,-10189.070123
825.473192,-1036.288319,0.000000,-9499.584175
825.473512,370.102971,0.000000,-9346.365076
825.473832,2442.679609,-222.061783,-10189.070123
825.474152,2294.638420,74.020594,-10265.679673
825.474472,518.144159,0.000000,-9882.631924
825.474792,-1258.350101,0.000000,-9652.803275
825.475112,444.123565,-592.164754,-10265.679673
825.475432,1554.432478,148.041188,-9652.803275
825.475752,222.061783,740.205942,-10112.460574
825.476072,222.061783,1406.391290,-9959.241474
825.476392,1998.556043,1258.350101,-9652.803275
825.476712,2368.659014,1332.370696,-10725.336972
825.477032,222.061783,592.164754,-10342.289223
825.477353,-444.123565,888.247130,-10189.070123
825.477673,370.102971,1036.288319,-9652.803275
825.477993,2146.597232,666.185348,-10265.679673
825.478313,518.144159,1702.473667,-9959.241474
825.478633,370.102971,1998.556043,-9806.022374
825.478953,2072.576638,1628.453072,-10572.117872
825.479273,3034.844362,1480.411884,-11491.432470
825.479593,740.205942,1258.350101,-10648.727422
825.479913,-1332.370696,0.000000,-9882.631924
825.480233,0.000000,-370.102971,-10418.898773
825.480553,1184.329507,0.000000,-10572.117872
825.480873,666.185348,888.247130,-9652.803275
825.481193,-444.123565,1036.288319,-9576.193725
825.481514,1332.370696,1554.432478,-10495.508323
825.481834,1184.329507,962.267725,-9806.022374
825.482154,0.000000,1258.350101,-9652.803275
825.482474,-1554.432478,740.205942,-9422.974625
825.482794,296.082377,814.226536,-10189.070123
825.483114,1480.411884,962.267725,-9882.631924
825.483434,1554.432478,2220.617826,-10112.460574
825.483754,444.123565,1924.535449,-10112.460574
825.484074,888.247130,1406.391290,-9882.631924
825.484394,370.102971,444.123565,-10035.851024
825.484714,-148.041188,148.041188,-9729.412825
825.485034,-666.185348,-444.123565,-9422.974625
825.485355,0.000000,-1332.370696,-9806.022374
825.485675,444.123565,-148.041188,-10265.679673
825.485995,-370.102971,444.123565,-9959.241474
825.486315,-962.267725,1184.329507,-8503.660028
825.486635,296.082377,1554.432478,-10035.851024
825.486955,1184.329507,1480.411884,-10801.946522
825.487275,592.164754,814.226536,-10725.336972
825.487595,148.041188,0.000000,-10035.851024
825.487915,1258.350101,-666.185348,-10112.460574
825.488235,1332.370696,-1406.391290,-10035.851024
825.488555,296.082377,-296.082377,-10342.289223
825.488875,444.123565,222.061783,-9882.631924
825.489195,1850.514855,1184.329507,-10342.289223
825.489516,2220.617826,1184.329507,-10725.336972
825.489836,370.102971,740.205942,-10342.289223
825.490156,-296.082377,-370.102971,-9959.241474
825.490476,962.267725,-1850.514855,-10725.336972
825.490796,1554.432478,-2146.597232,-9882.631924
825.491116,740.205942,-1554.432478,-9729.412825
825.491436,-296.082377,0.000000,-9806.022374
825.491756,592.164754,888.247130,-10112.460574
825.492076,1480.411884,1036.288319,-10495.508323
825.492396,-296.082377,1702.473667,-10112.460574
825.492716,-74.020594,592.164754,-9959.241474
825.493036,1702.473667,-1110.308913,-10495.508323
825.493356,2516.700203,-1702.473667,-9499.584175
825.493677,814.226536,-2442.679609,-9882.631924
825.493997,74.020594,-1110.308913,-9422.974625
825.494317,1036.288319,666.185348,-10189.070123
825.494637,1406.391290,2886.803174,-10725.336972
825.494957,0.000000,2886.803174,-10342.289223
825.495277,0.000000,1036.288319,-9882.631924
825.495597,1110.308913,-2146.597232,-10495.508323
825.495917,1480.411884,-3330.926739,-9806.022374
825.496237,0.000000,-3404.947333,-9729.412825
825.496557,0.000000,-2368.659014,-9729.412825
825.496877,666.185348,74.020594,-10112.460574
825.497197,666.185348,2368.659014,-11108.384721
825.497517,0.000000,3330.926739,-10801.946522
825.497838,-518.144159,2368.659014,-10418.898773
825.498158,592.164754,0.000000,-10342.289223
825.498478,1184.329507,-1628.453072,-10035.851024
825.498798,-444.123565,-2886.803174,-10112.460574
825.499118,-1332.370696,-1850.514855,-10648.727422
825.499438,296.082377,-888.247130,-9806.022374
825.499758,592.164754,1480.411884,-10801.946522
825.500078,-370.102971,2738.761985,-10801.946522
825.500398,-1924.535449,2960.823768,-10112.460574
825.500718,-1036.288319,666.185348,-10572.117872
825.501038,-370.102971,-1258.350101,-9806.022374
825.501358,-962.267725,-1850.514855,-9652.803275
825.501678,-1406.391290,-1776.494261,-9269.755526
825.501999,222.061783,-740.205942,-9806.022374
825.502319,592.164754,1184.329507,-10418.898773
825.502639,962.267725,1554.432478,-10035.851024
825.502959,0.000000,2072.576638,-9959.241474
825.503279,740.205942,1258.350101,-9882.631924
825.503599,2294.638420,148.041188,-10418.898773
825.503919,1850.514855,-296.082377,-10265.679673
825.504239,296.082377,-296.082377,-10035.851024
825.504559,444.123565,370.102971,-9882.631924
825.504879,1110.308913,1850.514855,-10955.165621
825.505199,1332.370696,2072.576638,-10725.336972
825.505519,-444.123565,2220.617826,-10112.460574
825.505839,444.123565,1702.473667,-10418.898773
825.506159,518.144159,1258.350101,-9959.241474
825.506479,1110.308913,0.000000,-10265.679673
825.506799,666.185348,74.020594,-10112.460574
825.507119,2220.617826,740.205942,-10342.289223
825.507439,2442.679609,1702.473667,-10801.946522
825.507759,1184.329507,2960.823768,-10035.851024
825.508079,888.247130,2590.720797,-9882.631924
825.508399,888.247130,1480.411884,-10342.289223
825.508719,1554.432478,444.123565,-9806.022374
825.509039,1776.494261,-592.164754,-10495.508323
825.509359,1258.350101,-222.061783,-9806.022374
825.509679,2368.659014,0.000000,-9652.803275
825.510000,2146.597232,1258.350101,-10265.679673
825.510320,592.164754,2812.782580,-10265.679673
825.510640,-1036.288319,2590.720797,-11261.603821
825.510960,-222.061783,1924.535449,-9882.631924
825.511280,1036.288319,-592.164754,-10112.460574
825.511600,888.247130,-1332.370696,-9652.803275
825.511920,1036.288319,-2368.659014,-9652.803275
825.512240,1110.308913,-1110.308913,-9652.803275
825.512560,444.123565,296.082377,-10418.898773
825.512880,-666.185348,1258.350101,-10342.289223
825.513200,-2442.679609,1406.391290,-9806.022374
825.513520,-370.102971,148.041188,-10495.508323
825.513840,888.247130,518.144159,-10265.679673
825.514160,222.061783,-148.041188,-10189.070123
825.514480,-1258.350101,-740.205942,-9882.631924
825.514800,-222.061783,-1332.370696,-9882.631924
825.515120,888.247130,-1406.391290,-10495.508323
825.515440,666.185348,-1036.288319,-10112.460574
825.515760,-1628.453072,444.123565,-10035.851024
825.516080,-1036.288319,888.247130,-10418.898773
825.516400,592.164754,962.267725,-10495.508323
825.516720,296.082377,1258.350101,-10495.508323
825.517040,-740.205942,962.267725,-10112.460574
825.517360,518.144159,-296.082377,-9959.241474
825.517680,1998.556043,-296.082377,-10572.117872
825.518000,1554.432478,-370.102971,-10495.508323
825.518320,148.041188,-1036.288319,-9806.022374
825.518640,-148.041188,-1628.453072,-9806.022374
825.518960,888.247130,-1036.288319,-9806.022374
825.519280,666.185348,74.020594,-10112.460574
825.519601,592.164754,1406.391290,-10035.851024
825.519921,1332.370696,2146.597232,-10265.679673
825.520241,3034.844362,1406.391290,-10648.727422
825.520561,2442.679609,0.000000,-10112.460574
825.520881,518.144159,-1480.411884,-9806.022374
825.521201,-592.164754,-2294.638420,-10035.851024
825.521521,-666.185348,-1924.535449,-9806.022374
825.521841,-592.164754,-1258.350101,-9806.022374
825.522161,-814.226536,-444.123565,-9729.412825
825.522481,518.144159,518.144159,-9882.631924
825.522801,1776.494261,1036.288319,-10572.117872
825.523121,1480.411884,296.082377,-10801.946522
825.523441,1406.391290,-1184.329507,-9806.022374
825.523761,444.123565,-1036.288319,-10418.898773
825.524081,666.185348,-962.267725,-10035.851024
825.524401,-444.123565,-370.102971,-9882.631924
825.524721,-592.164754,888.247130,-10112.460574
825.525041,-444.123565,888.247130,-10112.460574
825.525361,740.205942,814.226536,-10725.336972
825.525681,370.102971,370.102971,-10495.508323
825.526001,-1332.370696,370.102971,-10189.070123
825.526321,-1480.411884,0.000000,-10112.460574
825.526641,-1258.350101,-222.061783,-10035.851024
825.526961,-666.185348,74.020594,-9882.631924
825.527281,0.000000,592.164754,-9959.241474
825.527601,370.102971,1554.432478,-9959.241474
825.527921,1184.329507,1998.556043,-10495.508323
825.528241,814.226536,2072.576638,-10418.898773
825.528561,0.000000,1258.350101,-10035.851024
825.528881,-296.082377,296.082377,-10189.070123
825.529202,0.000000,-888.247130,-9806.022374
825.529522,-444.123565,-666.185348,-10112.460574
825.529842,-592.164754,148.041188,-9806.022374
825.530162,592.164754,1184.329507,-9806.022374
825.530482,2368.659014,2738.761985,-10035.851024
825.530802,2368.659014,3478.967927,-10801.946522
825.531122,1110.308913,2368.659014,-10342.289223
825.531442,888.247130,444.123565,-10112.460574
825.531762,2738.761985,-814.226536,-9039.926876
825.532082,2886.803174,-444.123565,-9576.193725
825.532402,2590.720797,0.000000,-9806.022374
825.532722,2516.700203,296.082377,-9959.241474
825.533042,2590.720797,518.144159,-10265.679673
825.533362,1036.288319,1184.329507,-9806.022374
825.533682,-888.247130,666.185348,-9576.193725
825.534002,-740.205942,444.123565,-9806.022374
825.534322,814.226536,740.205942,-10112.460574
825.534642,1924.535449,0.000000,-9882.631924
825.534962,2368.659014,-296.082377,-9806.022374
825.535282,1702.473667,-666.185348,-9959.241474
825.535602,1554.432478,0.000000,-10189.070123
825.535922,222.061783,1702.473667,-10418.898773
825.536242,-1036.288319,3478.967927,-9806.022374
825.536562,-666.185348,3552.988522,-10342.289223
825.536882,1702.473667,2294.638420,-10342.289223
825.537202,1036.288319,1110.308913,-10725.336972
825.537522,0.000000,-962.267725,-10112.460574
825.537842,-222.061783,-1184.329507,-9422.974625
825.538162,148.041188,-1036.288319,-9882.631924
825.538482,0.000000,148.041188,-10418.898773
825.538803,-1036.288319,666.185348,-10035.851024
825.539123,-1998.556043,222.061783,-10189.070123
825.539443,74.020594,370.102971,-10265.679673
825.539763,1036.288319,518.144159,-10572.117872
825.540083,148.041188,1332.370696,-10495.508323
825.540403,222.061783,814.226536,-11184.994271
825.540723,1036.288319,0.000000,-10572.117872
825.541043,370.102971,-740.205942,-10418.898773
825.541363,-962.267725,-1036.288319,-10112.460574
825.541683,-814.226536,-1332.370696,-9729.412825
825.542003,1184.329507,-148.041188,-10955.165621
825.542323,1036.288319,888.247130,-10265.679673
825.542643,148.041188,1110.308913,-9959.241474
825.542963,0.000000,444.123565,-9499.584175
825.543283,1998.556043,370.102971,-9499.584175
825.543603,2220.617826,-370.102971,-10189.070123
825.543923,1036.288319,-222.061783,-9806.022374
825.544243,148.041188,-148.041188,-9499.584175
825.544563,1554.432478,-370.102971,-9652.803275
825.544883,3034.844362,-666.185348,-9806.022374
825.545203,814.226536,-888.247130,-9806.022374
825.545523,-1184.329507,0.000000,-9806.022374
825.545843,-666.185348,592.164754,-10265.679673
825.546163,296.082377,1702.473667,-11414.822920
825.546483,0.000000,1184.329507,-10112.460574
825.546803,-814.226536,0.000000,-9806.022374
825.547123,444.123565,-1184.329507,-10265.679673
825.547443,1258.350101,-1480.411884,-10495.508323
825.547763,814.226536,-962.267725,-10418.898773
825.548083,0.000000,-296.082377,-9806.022374
825.548404,592.164754,148.041188,-10418.898773
825.548724,1184.329507,222.061783,-10878.556072
825.549044,-296.082377,296.082377,-10112.460574
825.549364,-1702.473667,-296.082377,-10342.289223
825.549684,-592.164754,-592.164754,-10495.508323
825.550004,370.102971,-296.082377,-10648.727422
825.550324,-370.102971,74.020594,-10801.946522
825.550644,-1702.473667,444.123565,-9882.631924
825.550964,-222.061783,518.144159,-10572.117872
825.551284,962.267725,444.123565,-10801.946522
825.551604,0.000000,148.041188,-10189.070123
825.551924,-1036.288319,74.020594,-9882.631924
825.552244,-370.102971,74.020594,-9882.631924
825.552564,666.185348,666.185348,-10189.070123
825.552884,666.185348,592.164754,-10265.679673
825.553204,296.082377,814.226536,-9882.631924
825.553524,888.247130,740.205942,-9959.241474
825.553844,814.226536,1406.391290,-9959.241474
825.554164,666.185348,814.226536,-9806.022374
825.554484,518.144159,444.123565,-9652.803275
825.554804,2294.638420,-518.144159,-10035.851024
825.555124,3478.967927,-888.247130,-9576.193725
825.555444,2368.659014,-666.185348,-9806.022374
825.555764,1184.329507,296.082377,-9193.145976
825.556084,962.267725,1406.391290,-9806.022374
825.556404,888.247130,1628.453072,-9806.022374
825.556724,-296.082377,1480.411884,-9959.241474
825.557044,-444.123565,148.041188,-9882.631924
825.557364,1480.411884,-888.247130,-9882.631924
825.557685,2368.659014,-592.164754,-10035.851024
825.558005,1776.494261,222.061783,-9959.241474
825.558325,444.123565,1628.453072,-10189.070123
825.558645,1184.329507,1998.556043,-10801.946522
825.558965,1258.350101,1924.535449,-10572.117872
825.559285,444.123565,1702.473667,-10495.508323
825.559605,-296.082377,1110.308913,-10418.898773
825.559925,1184.329507,444.123565,-10648.727422
825.560245,1406.391290,962.267725,-10495.508323
825.560565,222.061783,1184.329507,-10189.070123
825.560885,-222.061783,888.247130,-9959.241474
825.561205,740.205942,222.061783,-10112.460574
825.561525,592.164754,0.000000,-10265.679673
825.561845,74.020594,666.185348,-10342.289223
825.562165,-1036.288319,1332.370696,-10112.460574
825.562485,148.041188,740.205942,-10342.289223
825.562805,1036.288319,518.144159,-10035.851024
825.563125,-296.082377,222.061783,-9959.241474
825.563445,0.000000,444.123565,-9806.022374
825.563765,888.247130,666.185348,-10495.508323
825.564085,1480.411884,1480.411884,-10265.679673
825.564405,0.000000,74.020594,-10342.289223
825.564725,-962.267725,-1184.329507,-8963.317327
825.565045,814.226536,-2590.720797,-9959.241474
825.565365,1702.473667,-1628.453072,-9576.193725
825.565685,0.000000,222.061783,-9729.412825
825.566005,0.000000,2072.576638,-9806.022374
825.566325,1924.535449,1554.432478,-10342.289223
825.566645,3182.885551,1406.391290,-10342.289223
825.566965,1184.329507,-222.061783,-9959.241474
825.567286,-1184.329507,-1628.453072,-9422.974625
825.567606,-148.041188,-962.267725,-9269.755526
825.567926,1924.535449,-740.205942,-9959.241474
825.568246,1850.514855,0.000000,-10035.851024
825.568566,1554.432478,1480.411884,-9729.412825
825.568886,1110.308913,370.102971,-10035.851024
825.569206,1036.288319,1184.329507,-10342.289223
825.569526,222.061783,222.061783,-10572.117872
825.569846,-740.205942,-148.041188,-10342.289223
825.570166,0.000000,-518.144159,-9806.022374
825.570486,222.061783,-518.144159,-10495.508323
825.570806,-296.082377,296.082377,-10265.679673
825.571126,0.000000,1110.308913,-10189.070123
825.571446,1776.494261,1554.432478,-10725.336972
825.571766,2368.659014,1924.535449,-10418.898773
825.572086,-222.061783,592.164754,-10955.165621
825.572406,-1184.329507,-1258.350101,-9652.803275
825.572726,-444.123565,-2738.761985,-9959.241474
825.573046,740.205942,-2368.659014,-9806.022374
825.573366,296.082377,-888.247130,-9576.193725
825.573686,-740.205942,1332.370696,-9576.193725
825.574006,-148.041188,2368.659014,-10265.679673
825.574326,444.123565,2072.576638,-10725.336972
825.574646,-296.082377,1924.535449,-10035.851024
825.574966,-1702.473667,148.041188,-9499.584175
825.575286,-1110.308913,-1554.432478,-9729.412825
825.575606,0.000000,-2442.679609,-9422.974625
825.575926,-222.061783,-2368.659014,-9422.974625
825.576246,0.000000,-370.102971,-9193.145976
825.576566,444.123565,592.164754,-10112.460574
825.576887,1628.453072,2294.638420,-10495.508323
825.577207,1702.473667,1776.494261,-10189.070123
825.577527,370.102971,1406.391290,-9806.022374
825.577847,1036.288319,0.000000,-10112.460574
825.578167,1110.308913,-296.082377,-10112.460574
825.578487,0.000000,-740.205942,-10189.070123
825.578807,-666.185348,0.000000,-9806.022374
825.579127,370.102971,518.144159,-10035.851024
825.579447,1776.494261,1628.453072,-10572.117872
825.579767,0.000000,1850.514855,-10572.117872
825.580087,-888.247130,888.247130,-10035.851024
825.580407,-222.061783,740.205942,-10418.898773
825.580727,1776.494261,370.102971,-10572.117872
825.581047,2368.659014,-148.041188,-10265.679673
825.581367,1036.288319,0.000000,-9729.412825
825.581687,1036.288319,592.164754,-9959.241474
825.582007,1998.556043,1258.350101,-10342.289223
825.582327,1628.453072,1924.535449,-10572.117872
825.582647,740.205942,1554.432478,-10342.289223
825.582967,814.226536,370.102971,-10035.851024
825.583287,2072.576638,-222.061783,-9729.412825
825.583607,1406.391290,-148.041188,-10189.070123
825.583927,444.123565,814.226536,-9806.022374
825.584247,592.164754,888.247130,-10189.070123
825.584567,1110.308913,1184.329507,-10189.070123
825.584887,74.020594,0.000000,-10035.851024
825.585207,-1554.432478,-370.102971,-9499.584175
825.585527,-296.082377,-1258.350101,-9729.412825
825.585847,1850.514855,-592.164754,-10035.851024
825.586167,1850.514855,-148.041188,-10572.117872
825.586488,0.000000,-370.102971,-9576.193725
825.586808,-148.041188,-444.123565,-9729.412825
825.587128,1110.308913,296.082377,-10342.289223
825.587448,0.000000,1628.453072,-10572.117872
825.587768,-666.185348,1258.350101,-9882.631924
825.588088,-518.144159,444.123565,-10112.460574
825.588408,296.082377,74.020594,-10112.460574
825.588728,1258.350101,-666.185348,-10189.070123
825.589048,370.102971,-222.061783,-10035.851024
825.589368,296.082377,222.061783,-10112.460574
825.589688,592.164754,1258.350101,-10342.289223
825.590008,222.061783,1184.329507,-10035.851024
825.590328,-1036.288319,962.267725,-10955.165621
825.590648,-518.144159,-444.123565,-10495.508323
825.590968,888.247130,-1406.391290,-10572.117872
825.591288,888.247130,-1406.391290,-9806.022374
825.591608,-148.041188,148.041188,-9806.022374
825.591928,-518.144159,1628.453072,-9806.022374
825.592248,1850.514855,2072.576638,-10572.117872
825.592568,1332.370696,1480.411884,-10495.508323
825.592888,0.000000,-148.041188,-9959.241474
825.593208,0.000000,-2146.597232,-9729.412825
825.593528,1184.329507,-2294.638420,-10112.460574
825.593848,2516.700203,-888.247130,-10035.851024
825.594168,1480.411884,888.247130,-9959.241474
825.594488,1036.288319,1110.308913,-9882.631924
825.594808,1480.411884,2368.659014,-10801.946522
825.595128,370.102971,1554.432478,-10418.898773
825.595448,-1554.432478,370.102971,-9882.631924
825.595768,-962.267725,0.000000,-9499.584175
825.596089,518.144159,-1036.288319,-9652.803275
825.596409,1258.350101,-1480.411884,-9806.022374
825.596729,962.267725,-1628.453072,-9729.412825
825.597049,962.267725,-740.205942,-9652.803275
825.597369,814.226536,1480.411884,-10342.289223
825.597689,-518.144159,2516.700203,-10572.117872
825.598009,-1998.556043,2590.720797,-10035.851024
825.598329,-1628.453072,666.185348,-10572.117872
825.598649,518.144159,-592.164754,-10189.070123
825.598969,1924.535449,-1332.370696,-9806.022374
825.599289,1110.308913,-962.267725,-9959.241474
825.599609,1332.370696,1110.308913,-10495.508323
825.599929,1036.288319,1776.494261,-10801.946522
825.600249,296.082377,1406.391290,-10801.946522
825.600569,-1776.494261,370.102971,-9959.241474
825.600889,-1998.556043,-1036.288319,-9652.803275
825.601209,518.144159,-1406.391290,-10495.508323
825.601529,888.247130,-222.061783,-10342.289223
825.601849,296.082377,962.267725,-11414.822920
825.602169,-296.082377,1924.535449,-10342.289223
825.602489,222.061783,1184.329507,-10189.070123
825.602809,-518.144159,814.226536,-10801.946522
825.603129,-888.247130,444.123565,-9039.926876
825.603449,148.041188,-444.123565,-9806.022374
825.603769,1924.535449,-296.082377,-10189.070123
825.604089,1110.308913,-592.164754,-9806.022374
825.604409,296.082377,0.000000,-9576.193725
825.604729,1110.308913,740.205942,-9422.974625
825.605049,2220.617826,2368.659014,-10495.508323
825.605370,1628.453072,2072.576638,-10189.070123
825.605690,-1110.308913,814.226536,-9576.193725
825.606010,-1554.432478,0.000000,-9193.145976
825.606330,888.247130,-1998.556043,-9806.022374
825.606650,1332.370696,-1628.453072,-9499.584175
825.606970,-222.061783,0.000000,-9806.022374
825.607290,74.020594,1036.288319,-9576.193725
825.607610,2664.741391,2294.638420,-10342.289223
825.607930,1924.535449,2590.720797,-10878.556072
825.608250,-296.082377,962.267725,-9806.022374
825.608570,-1036.288319,-592.164754,-9806.022374
825.608891,888.247130,-962.267725,-11108.384721
825.609211,1406.391290,-1258.350101,-10035.851024
825.609531,592.164754,370.102971,-9729.412825
825.609851,370.102971,1480.411884,-9882.631924
825.610171,2516.700203,2072.576638,-10572.117872
825.610491,2960.823768,1998.556043,-10955.165621
825.610811,1406.391290,1406.391290,-10035.851024
825.611131,1480.411884,-148.041188,-10495.508323
825.611451,1924.535449,-518.144159,-10418.898773
825.611771,1628.453072,0.000000,-10265.679673
825.612091,-518.144159,888.247130,-10112.460574
825.612412,148.041188,1184.329507,-10035.851024
825.612732,2368.659014,1110.308913,-10418.898773
825.613052,2516.700203,2294.638420,-10572.117872
825.613372,592.164754,2146.597232,-9882.631924
825.613692,-444.123565,592.164754,-10035.851024
825.614012,592.164754,-444.123565,-10189.070123
825.614332,222.061783,-1480.411884,-9882.631924
825.614652,-148.041188,-1776.494261,-9346.365076
825.614972,74.020594,-296.082377,-9576.193725
825.615292,1628.453072,1850.514855,-10572.117872
825.615613,888.247130,2886.803174,-10725.336972
825.615933,-592.164754,2516.700203,-10265.679673
825.616253,-814.226536,-148.041188,-9806.022374
825.616573,1258.350101,-2812.782580,-9729.412825
825.616893,1480.411884,-3108.864956,-9576.193725
825.617213,-518.144159,-2220.617826,-9806.022374
825.617533,-1184.329507,814.226536,-10112.460574
825.617853,444.123565,1702.473667,-10342.289223
825.618173,1036.288319,2368.659014,-10265.679673
825.618493,0.000000,1406.391290,-10495.508323
825.618813,-1554.432478,0.000000,-10878.556072
825.619134,444.123565,-962.267725,-10801.946522
825.619454,592.164754,-1184.329507,-9959.241474
825.619774,-592.164754,-814.226536,-9729.412825
825.620094,-1184.329507,-370.102971,-9422.974625
825.620414,740.205942,0.000000,-9959.241474
825.620734,1554.432478,740.205942,-10801.946522
825.621054,592.164754,592.164754,-10418.898773
825.621374,-814.226536,1184.329507,-9882.631924
825.621694,1554.432478,0.000000,-10495.508323
825.622014,2072.576638,370.102971,-10112.460574
825.622334,148.041188,740.205942,-10342.289223
825.622655,-1184.329507,518.144159,-9959.241474
825.622975,222.061783,888.247130,-10189.070123
825.623295,370.102971,518.144159,-10342.289223
825.623615,-666.185348,518.144159,-9806.022374
825.623935,-1702.473667,-592.164754,-9729.412825
825.624255,1702.473667,-2368.659014,-10495.508323
825.624575,2664.741391,-1036.288319,-9806.022374
825.624895,2442.679609,-814.226536,-10112.460574
825.625215,1332.370696,222.061783,-9806.022374
825.625535,962.267725,1480.411884,-9806.022374
825.625856,1850.514855,1850.514855,-10189.070123
825.626176,-222.061783,666.185348,-10189.070123
825.626496,0.000000,-962.267725,-9193.145976
825.626816,296.082377,-2442.679609,-10265.679673
825.627136,1406.391290,-2072.576638,-9422.974625
825.627456,1110.308913,-592.164754,-9499.584175
825.627776,-296.082377,1628.453072,-9499.584175
825.628096,-148.041188,2368.659014,-9882.631924
825.628416,-740.205942,2442.679609,-10112.460574
825.628736,-1110.308913,1110.308913,-10035.851024
825.629056,-1036.288319,-592.164754,-9269.755526
825.629377,1998.556043,-2072.576638,-10265.679673
825.629697,2664.741391,-1702.473667,-9729.412825
825.630017,962.267725,0.000000,-10189.070123
825.630337,222.061783,1480.411884,-9269.755526
825.630657,0.000000,2738.761985,-10265.679673
825.630977,-296.082377,2960.823768,-10725.336972
825.631297,-1110.308913,2368.659014,-10342.289223
825.631617,-2368.659014,444.123565,-8656.879127
825.631937,-814.226536,-1776.494261,-10418.898773
825.632257,814.226536,-1332.370696,-10035.851024
825.632578,74.020594,-222.061783,-10112.460574
825.632898,0.000000,370.102971,-9882.631924
825.633218,2146.597232,1998.556043,-10418.898773
825.633538,1702.473667,2960.823768,-11031.775171
825.633858,444.123565,2812.782580,-10648.727422
825.634178,0.000000,1406.391290,-10265.679673
825.634498,1924.535449,-222.061783,-10725.336972
825.634818,2590.720797,-740.205942,-10265.679673
825.635138,1258.350101,222.061783,-10725.336972
825.635458,740.205942,1110.308913,-10112.460574
825.635778,1850.514855,1776.494261,-10495.508323
825.636099,1702.473667,1850.514855,-10725.336972
825.636419,-296.082377,888.247130,-10495.508323
825.636739,-1036.288319,222.061783,-9499.584175
825.637059,-370.102971,-296.082377,-10035.851024
825.637379,2072.576638,-1628.453072,-9959.241474
825.637699,1258.350101,-444.123565,-9959.241474
825.638019,148.041188,444.123565,-9882.631924
825.638339,1258.350101,1110.308913,-9729.412825
825.638659,1406.391290,2442.679609,-9806.022374
825.638979,1258.350101,2590.720797,-10112.460574
825.639299,222.061783,1628.453072,-9806.022374
825.639620,1184.329507,-518.144159,-10035.851024
825.639940,1702.473667,-1554.432478,-9576.193725
825.640260,666.185348,-2072.576638,-8580.269578
825.640580,296.082377,-1924.535449,-9346.365076
825.640900,592.164754,-1036.288319,-9806.022374
825.641220,148.041188,1480.411884,-10035.851024
825.641540,-888.247130,2664.741391,-9806.022374
825.641860,-1258.350101,1998.556043,-9576.193725
825.642180,222.061783,-740.205942,-10418.898773
825.642500,1332.370696,-1924.535449,-9959.241474
825.642821,1332.370696,-2442.679609,-9882.631924
825.643141,518.144159,-666.185348,-9422.974625
825.643461,740.205942,740.205942,-9959.241474
825.643781,148.041188,2072.576638,-10955.165621
825.644101,0.000000,2368.659014,-11108.384721
825.644421,-740.205942,962.267725,-11338.213370
825.644741,148.041188,-444.123565,-11108.384721
825.645061,444.123565,-1480.411884,-10189.070123
825.645381,148.041188,-1258.350101,-10418.898773
825.645701,370.102971,-148.041188,-9882.631924
825.646021,296.082377,1184.329507,-10189.070123
825.646342,1480.411884,2368.659014,-10955.165621
825.646662,1036.288319,1702.473667,-10495.508323
825.646982,444.123565,814.226536,-10035.851024
825.647302,592.164754,-370.102971,-10265.679673
825.647622,444.123565,-592.164754,-9806.022374
825.647942,444.123565,-962.267725,-9729.412825
825.648262,-1332.370696,-1036.288319,-9346.365076
825.648582,-592.164754,-814.226536,-9806.022374
825.648902,814.226536,1110.308913,-10035.851024
825.649222,0.000000,518.144159,-10342.289223
825.649543,-962.267725,592.164754,-9422.974625
825.649863,296.082377,0.000000,-10265.679673
825.650183,740.205942,-592.164754,-9806.022374
825.650503,888.247130,-518.144159,-10189.070123
825.650823,444.123565,-74.020594,-9652.803275
825.651143,1184.329507,888.247130,-10342.289223
825.651463,2442.679609,1406.391290,-10265.679673
825.651783,296.082377,1554.432478,-10418.898773
825.652103,-1924.535449,814.226536,-9652.803275
825.652423,-74.020594,0.000000,-10418.898773
825.652743,518.144159,-814.226536,-10035.851024
825.653064,592.164754,-888.247130,-11261.603821
825.653384,-740.205942,-666.185348,-9499.584175
825.653704,0.000000,-444.123565,-9882.631924
825.654024,1332.370696,1036.288319,-10495.508323
825.654344,962.267725,1850.514855,-11031.775171
825.654664,-666.185348,1110.308913,-10878.556072
825.654984,518.144159,1036.288319,-10495.508323
825.655304,1332.370696,814.226536,-10265.679673
825.655624,1554.432478,222.061783,-10725.336972
825.655944,666.185348,222.061783,-9652.803275
825.656264,518.144159,370.102971,-10112.460574
825.656585,1110.308913,1480.411884,-10418.898773
825.656905,740.205942,1924.535449,-10265.679673
825.657225,-1110.308913,518.144159,-9576.193725
825.657545,-814.226536,518.144159,-10035.851024
825.657865,222.061783,-518.144159,-9806.022374
825.658185,1036.288319,-592.164754,-10112.460574
825.658505,1776.494261,-1406.391290,-9193.145976
825.658825,1924.535449,0.000000,-9422.974625
825.659145,2294.638420,592.164754,-10035.851024
825.659465,2294.638420,2590.720797,-10495.508323
825.659786,296.082377,2220.617826,-9422.974625
825.660106,-444.123565,296.082377,-9959.241474
825.660426,740.205942,-1184.329507,-9806.022374
825.660746,518.144159,-1184.329507,-10035.851024
825.661066,222.061783,-666.185348,-9576.193725
825.661386,74.020594,592.164754,-9882.631924
825.661706,1776.494261,1776.494261,-10418.898773
825.662026,1258.350101,1924.535449,-10955.165621
825.662346,-148.041188,1850.514855,-10112.460574
825.662666,-592.164754,518.144159,-10342.289223
825.662986,444.123565,0.000000,-10035.851024
825.663307,592.164754,0.000000,-10342.289223
825.663627,1036.288319,222.061783,-10035.851024
825.663947,1258.350101,592.164754,-10189.070123
825.664267,2220.617826,222.061783,-11031.775171
825.664587,888.247130,666.185348,-10725.336972
825.664907,0.000000,1258.350101,-10265.679673
825.665227,444.123565,1184.329507,-10572.117872
825.665547,740.205942,1406.391290,-10342.289223
825.665867,-222.061783,-518.144159,-10189.070123
825.666187,-1036.288319,-888.247130,-9882.631924
825.666507,-740.205942,-2072.576638,-9806.022374
825.666828,962.267725,-1184.329507,-10572.117872
825.667148,1110.308913,518.144159,-9806.022374
825.667468,-740.205942,1110.308913,-9882.631924
825.667788,-592.164754,1628.453072,-10342.289223
825.668108,592.164754,-592.164754,-9882.631924
825.668428,444.123565,-1702.473667,-10035.851024
825.668748,74.020594,-1776.494261,-9576.193725
825.669068,888.247130,-1628.453072,-9652.803275
825.669388,3034.844362,74.020594,-10265.679673
825.669708,1110.308913,370.102971,-10112.460574
825.670029,-666.185348,888.247130,-9729.412825
825.670349,-814.226536,148.041188,-9806.022374
825.670669,1036.288319,518.144159,-10342.289223
825.670989,444.123565,370.102971,-10342.289223
825.671309,0.000000,222.061783,-10035.851024
825.671629,518.144159,-1332.370696,-9116.536426
825.671949,1998.556043,-962.267725,-10189.070123
825.672269,740.205942,-1036.288319,-10112.460574
825.672589,-444.123565,-222.061783,-10112.460574
825.672909,-296.082377,1258.350101,-10265.679673
825.673229,1554.432478,888.247130,-10418.898773
825.673550,1850.514855,962.267725,-10725.336972
825.673870,-296.082377,-222.061783,-10189.070123
825.674190,296.082377,-888.247130,-10189.070123
825.674510,1554.432478,296.082377,-10265.679673
825.674830,1258.350101,1480.411884,-10955.165621
825.675150,518.144159,1258.350101,-9882.631924
825.675470,592.164754,888.247130,-10418.898773
825.675790,1554.432478,-296.082377,-8886.707777
825.676110,444.123565,-1628.453072,-10112.460574
825.676430,-888.247130,-1850.514855,-9652.803275
825.676751,-296.082377,-740.205942,-9806.022374
825.677071,814.226536,1258.350101,-10189.070123
825.677391,148.041188,2516.700203,-10495.508323
825.677711,-1628.453072,1554.432478,-9806.022374
825.678031,-1110.308913,592.164754,-10189.070123
825.678351,814.226536,-518.144159,-9959.241474
825.678671,518.144159,-814.226536,-10112.460574
825.678991,592.164754,-148.041188,-9652.803275
825.679311,0.000000,518.144159,-9806.022374
825.679631,1258.350101,1110.308913,-10112.460574
825.679951,0.000000,1776.494261,-10035.851024
825.680272,-1924.535449,1924.535449,-9959.241474
825.680592,-1850.514855,518.144159,-9729.412825
825.680912,0.000000,-222.061783,-9806.022374
825.681232,148.041188,-296.082377,-10189.070123
825.681552,-222.061783,0.000000,-9346.365076
825.681872,592.164754,222.061783,-9729.412825
825.682192,1850.514855,1036.288319,-10189.070123
825.682512,1110.308913,2294.638420,-10418.898773
825.682832,-370.102971,1924.535449,-9806.022374
825.683152,-814.226536,444.123565,-9806.022374
825.683472,1110.308913,-222.061783,-10189.070123
825.683793,1702.473667,0.000000,-10035.851024
825.684113,1628.453072,74.020594,-10112.460574
825.684433,1036.288319,666.185348,-11338.213370
825.684753,1776.494261,888.247130,-10878.556072
825.685073,666.185348,1554.432478,-10342.289223
825.685393,-1850.514855,1110.308913,-9959.241474
825.685713,-1332.370696,666.185348,-9652.803275
825.686033,1850.514855,740.205942,-10801.946522
825.686353,3330.926739,666.185348,-10725.336972
825.686673,2220.617826,222.061783,-10112.460574
825.686994,2072.576638,888.247130,-10189.070123
825.687314,3034.844362,1850.514855,-10189.070123
825.687634,2516.700203,2960.823768,-11261.603821
825.687954,1258.350101,2368.659014,-10342.289223
825.688274,370.102971,1406.391290,-10418.898773
825.688594,518.144159,962.267725,-11797.870669
825.688914,-296.082377,-370.102971,-9806.022374
825.689234,-740.205942,-370.102971,-9806.022374
825.689554,0.000000,518.144159,-9346.365076
825.689874,2442.679609,1332.370696,-9882.631924
825.690194,3108.864956,1110.308913,-10572.117872
825.690515,1406.391290,740.205942,-9499.584175
825.690835,0.000000,740.205942,-9652.803275
825.691155,444.123565,74.020594,-9806.022374
825.691475,370.102971,0.000000,-9499.584175
825.691795,-592.164754,148.041188,-9346.365076
825.692115,-444.123565,-370.102971,-8963.317327
825.692435,1850.514855,-592.164754,-9806.022374
825.692755,962.267725,444.123565,-9806.022374
825.693075,-296.082377,-296.082377,-9882.631924
825.693395,0.000000,-740.205942,-9806.022374
825.693715,740.205942,-1258.350101,-9806.022374
825.694036,0.000000,-2072.576638,-9806.022374
825.694356,-814.226536,-1924.535449,-9193.145976
825.694676,-814.226536,-592.164754,-9959.241474
825.694996,1036.288319,444.123565,-10801.946522
825.695316,1702.473667,1998.556043,-10955.165621
825.695636,0.000000,2368.659014,-10801.946522
825.695956,-1628.453072,666.185348,-10189.070123
825.696276,-444.123565,-1702.473667,-10955.165621
825.696596,-1628.453072,-2516.700203,-10112.460574
825.696916,-296.082377,-1850.514855,-10572.117872
825.697237,0.000000,296.082377,-10035.851024
825.697557,74.020594,666.185348,-10955.165621
825.697877,444.123565,2368.659014,-11338.213370
825.698197,-814.226536,1998.556043,-10572.117872
825.698517,-888.247130,1628.453072,-10801.946522
825.698837,1998.556043,1110.308913,-10878.556072
825.699157,2368.659014,-148.041188,-10955.165621
825.699477,1480.411884,-1554.432478,-9959.241474
825.699797,0.000000,-1554.432478,-9652.803275
825.700117,814.226536,-1850.514855,-10035.851024
825.700437,1998.556043,518.144159,-10189.070123
825.700758,148.041188,1184.329507,-9652.803275
825.701078,444.123565,1110.308913,-10035.851024
825.701398,2146.597232,-888.247130,-9499.584175
825.701718,592.164754,-1554.432478,-9729.412825
825.702038,-1406.391290,-2072.576638,-8963.317327
825.702358,-814.226536,-1332.370696,-9193.145976
825.702678,1702.473667,-888.247130,-9729.412825
825.702998,1776.494261,-518.144159,-9882.631924
825.703318,-518.144159,0.000000,-9422.974625
825.703638,-444.123565,0.000000,-9729.412825
825.703959,1110.308913,370.102971,-10265.679673
825.704279,1924.535449,0.000000,-10112.460574
825.704599,444.123565,74.020594,-10035.851024
825.704919,-592.164754,-222.061783,-9806.022374
825.705239,1850.514855,0.000000,-10572.117872
825.705559,518.144159,296.082377,-10648.727422
825.705879,-296.082377,0.000000,-10265.679673
825.706199,-814.226536,1110.308913,-10112.460574
825.706519,962.267725,1924.535449,-10878.556072
825.706839,1332.370696,1998.556043,-10648.727422
825.707159,0.000000,1554.432478,-10572.117872
825.707480,-1554.432478,740.205942,-10035.851024
825.707800,0.000000,666.185348,-11031.775171
825.708120,518.144159,1406.391290,-10725.336972
825.708440,-1258.350101,1110.308913,-10572.117872
825.708760,-888.247130,1406.391290,-10112.460574
825.709080,740.205942,1258.350101,-10495.508323
825.709400,2368.659014,592.164754,-10112.460574
825.709720,1776.494261,296.082377,-9806.022374
825.710040,666.185348,740.205942,-11031.775171
825.710360,1850.514855,1480.411884,-10801.946522
825.710680,1480.411884,1850.514855,-10112.460574
825.711000,666.185348,1332.370696,-9959.241474
825.711320,-962.267725,740.205942,-9346.365076
825.711641,296.082377,-1480.411884,-10112.460574
825.711961,2368.659014,-1184.329507,-9729.412825
825.712281,1036.288319,0.000000,-9499.584175
825.712601,592.164754,1258.350101,-9882.631924
825.712921,1332.370696,2960.823768,-9576.193725
825.713241,1332.370696,2368.659014,-10112.460574
825.713561,814.226536,1406.391290,-10035.851024
825.713881,888.247130,-222.061783,-9729.412825
825.714201,1258.350101,-518.144159,-10955.165621
825.714521,444.123565,-666.185348,-9576.193725
825.714841,296.082377,-148.041188,-10035.851024
825.715161,1184.329507,1258.350101,-10035.851024
825.715481,2368.659014,2368.659014,-10955.165621
825.715801,1332.370696,2516.700203,-11414.822920
825.716122,-592.164754,1406.391290,-10648.727422
825.716442,-962.267725,-148.041188,-9729.412825
825.716762,666.185348,-1480.411884,-10265.679673
825.717082,1406.391290,-1702.473667,-10342.289223
825.717402,1258.350101,-962.267725,-10112.460574
825.717722,1036.288319,962.267725,-10189.070123
825.718042,1480.411884,1924.535449,-10725.336972
825.718362,-592.164754,1998.556043,-10342.289223
825.718682,-1628.453072,1258.350101,-10418.898773
825.719002,-962.267725,222.061783,-9959.241474
825.719322,518.144159,-1998.556043,-10265.679673
825.719642,1480.411884,-2368.659014,-10265.679673
825.719962,296.082377,-2220.617826,-9499.584175
825.720283,-444.123565,-1036.288319,-9882.631924
825.720603,-444.123565,370.102971,-10035.851024
825.720923,666.185348,1924.535449,-10725.336972
825.721243,444.123565,1776.494261,-10265.679673
825.721563,-740.205942,444.123565,-9193.145976
825.721883,296.082377,-1554.432478,-10342.289223
825.722203,296.082377,-2368.659014,-9652.803275
825.722523,-148.041188,-2516.700203,-9499.584175
825.722843,370.102971,-740.205942,-9116.536426
825.723163,1480.411884,222.061783,-9959.241474
825.723483,1850.514855,1628.453072,-10418.898773
825.723803,592.164754,1036.288319,-10035.851024
825.724123,-888.247130,370.102971,-9806.022374
825.724443,0.000000,-962.267725,-10189.070123
825.724764,1036.288319,-1406.391290,-9882.631924
825.725084,666.185348,-1258.350101,-9806.022374
825.725404,1036.288319,-296.082377,-9806.022374
825.725724,1702.473667,0.000000,-9959.241474
825.726044,1554.432478,1110.308913,-10495.508323
825.726364,814.226536,2220.617826,-10495.508323
825.726684,222.061783,1924.535449,-10418.898773
825.727004,1776.494261,-1480.411884,-10495.508323
825.727324,1628.453072,-1184.329507,-10495.508323
825.727644,-962.267725,-1332.370696,-10035.851024
825.727964,-370.102971,148.041188,-10342.289223
825.728284,222.061783,1110.308913,-10112.460574
825.728604,2220.617826,2072.576638,-11184.994271
825.728924,222.061783,2368.659014,-10725.336972
825.729245,-370.102971,962.267725,-10189.070123
825.729565,518.144159,-444.123565,-10418.898773
825.729885,1924.535449,74.020594,-10342.289223
825.730205,1258.350101,518.144159,-10265.679673
825.730525,0.000000,1554.432478,-10035.851024
825.730845,-148.041188,444.123565,-10035.851024
825.731165,0.000000,370.102971,-10112.460574
825.731485,-592.164754,296.082377,-9806.022374
825.731805,-1776.494261,444.123565,-9269.755526
825.732125,-814.226536,222.061783,-9882.631924
825.732445,962.267725,74.020594,-9806.022374
825.732765,592.164754,-148.041188,-9576.193725
825.733085,148.041188,0.000000,-9116.536426
825.733406,-370.102971,222.061783,-9729.412825
825.733726,-222.061783,2072.576638,-10112.460574
825.734046,370.102971,2368.659014,-10495.508323
825.734366,888.247130,1332.370696,-9346.365076
825.734686,1924.535449,-444.123565,-10112.460574
825.735006,2368.659014,-1184.329507,-9729.412825
825.735326,1110.308913,-1110.308913,-9959.241474
825.735646,-888.247130,666.185348,-10725.336972
825.735966,-1184.329507,2516.700203,-10265.679673
825.736286,296.082377,3404.947333,-11031.775171
825.736606,592.164754,2368.659014,-10801.946522
825.736926,814.226536,222.061783,-10035.851024
825.737246,814.226536,-740.205942,-10955.165621
825.737566,2368.659014,-962.267725,-10878.556072
825.737887,1184.329507,0.000000,-10418.898773
825.738207,666.185348,1332.370696,-10265.679673
825.738527,1406.391290,2442.679609,-10342.289223
825.738847,1406.391290,2442.679609,-10648.727422
825.739167,1110.308913,592.164754,-11184.994271
825.739487,222.061783,-740.205942,-9882.631924
825.739807,740.205942,-296.082377,-10265.679673
825.740127,2368.659014,0.000000,-10495.508323
825.740447,2294.638420,370.102971,-10189.070123
825.740767,1184.329507,962.267725,-10265.679673
825.741087,888.247130,1924.535449,-10189.070123
825.741407,1776.494261,2442.679609,-10725.336972
825.741727,-148.041188,888.247130,-9806.022374
825.742047,-1036.288319,74.020594,-9193.145976
825.742368,-740.205942,-2294.638420,-9346.365076
825.742688,1332.370696,-3108.864956,-9576.193725
825.743008,296.082377,-2368.659014,-8810.098227
825.743328,-222.061783,-962.267725,-8963.317327
825.743648,-444.123565,74.020594,-9499.584175
825.743968,222.061783,1036.288319,-9729.412825
825.744288,0.000000,1554.432478,-9959.241474
825.744608,-888.247130,0.000000,-8886.707777
825.744928,74.020594,-1924.535449,-10035.851024
825.745248,1480.411884,-1924.535449,-9806.022374
825.745568,1184.329507,-814.226536,-11031.775171
825.745888,1480.411884,518.144159,-10189.070123
825.746208,1036.288319,1480.411884,-10342.289223
825.746529,0.000000,1702.473667,-10725.336972
825.746849,-962.267725,1998.556043,-11338.213370
825.747169,-2590.720797,1406.391290,-10265.679673
825.747489,-2294.638420,-666.185348,-10342.289223
825.747809,-370.102971,-2072.576638,-10265.679673
825.748129,-296.082377,-2960.823768,-10342.289223
825.748449,-518.144159,-3108.864956,-10495.508323
825.748769,-222.061783,-1036.288319,-9806.022374
825.749089,888.247130,1628.453072,-11261.603821
825.749409,962.267725,3478.967927,-11261.603821
825.749729,962.267725,3478.967927,-10189.070123
825.750049,3034.844362,1184.329507,-11031.775171
825.750369,3478.967927,-1406.391290,-10418.898773
825.750689,2220.617826,-2442.679609,-10112.460574
825.751010,-370.102971,-2220.617826,-9806.022374
825.751330,-1628.453072,-814.226536,-9729.412825
825.751650,740.205942,1776.494261,-10495.508323
825.751970,0.000000,2886.803174,-10878.556072
825.752290,-370.102971,2442.679609,-9959.241474
825.752610,-666.185348,2368.659014,-10265.679673
825.752930,1702.473667,888.247130,-10955.165621
825.753250,2442.679609,592.164754,-9806.022374
825.753570,1036.288319,-1036.288319,-9806.022374
825.753890,1184.329507,-1258.350101,-9269.755526
825.754210,2516.700203,-888.247130,-10648.727422
825.754530,1036.288319,1924.535449,-10801.946522
825.754850,148.041188,2442.679609,-9652.803275
825.755170,148.041188,2368.659014,-9729.412825
825.755491,1628.453072,1850.514855,-9576.193725
825.755811,1332.370696,1110.308913,-10112.460574
825.756131,0.000000,-444.123565,-9806.022374
825.756451,-518.144159,-1258.350101,-9576.193725
825.756771,740.205942,-296.082377,-9729.412825
825.757091,148.041188,1702.473667,-9959.241474
825.757411,-814.226536,1924.535449,-9422.974625
825.757731,74.020594,2442.679609,-10495.508323
825.758051,1036.288319,1406.391290,-10342.289223
825.758371,1480.411884,888.247130,-9652.803275
825.758691,74.020594,0.000000,-9882.631924
825.759011,0.000000,148.041188,-9959.241474
825.759331,740.205942,0.000000,-10189.070123
825.759652,-296.082377,666.185348,-10342.289223
825.759972,-1406.391290,1702.473667,-9422.974625
825.760292,-666.185348,1628.453072,-10112.460574
825.760612,1184.329507,518.144159,-10572.117872
825.760932,2072.576638,1406.391290,-10418.898773
825.761252,-1184.329507,-148.041188,-9193.145976
825.761572,-370.102971,-222.061783,-9882.631924
825.761892,962.267725,370.102971,-9806.022374
825.762212,1702.473667,2220.617826,-10955.165621
825.762532,-74.020594,888.247130,-9729.412825
825.762852,-962.267725,148.041188,-9806.022374
825.763172,888.247130,-444.123565,-10572.117872
825.763492,1480.411884,-1554.432478,-9806.022374
825.763812,1480.411884,-1332.370696,-9959.241474
825.764133,1628.453072,0.000000,-9193.145976
825.764453,1480.411884,1480.411884,-10189.070123
825.764773,1480.411884,1480.411884,-11031.775171
825.765093,148.041188,296.082377,-9882.631924
825.765413,-1110.308913,-962.267725,-10112.460574
825.765733,518.144159,-1702.473667,-10035.851024
825.766053,1332.370696,-1998.556043,-10035.851024
825.766373,1998.556043,-1036.288319,-10189.070123
825.766693,1776.494261,-222.061783,-9346.365076
825.767013,3108.864956,1480.411884,-10801.946522
825.767333,2368.659014,1998.556043,-11031.775171
825.767653,296.082377,0.000000,-10342.289223
825.767973,-888.247130,-1036.288319,-9882.631924
825.768294,148.041188,-814.226536,-10725.336972
825.768614,666.185348,-1480.411884,-10035.851024
825.768934,148.041188,-1258.350101,-10648.727422
825.769254,296.082377,-1332.370696,-9422.974625
825.769574,1554.432478,370.102971,-10801.946522
825.769894,1406.391290,2146.597232,-11414.822920
825.770214,0.000000,666.185348,-10265.679673
825.770534,-1332.370696,-444.123565,-9959.241474
825.770854,0.000000,-1036.288319,-10495.508323
825.771174,1332.370696,-1406.391290,-10495.508323
825.771494,0.000000,-666.185348,-10265.679673
825.771814,-1036.288319,-592.164754,-9576.193725
825.772134,1554.432478,1406.391290,-10725.336972
825.772454,1258.350101,1480.411884,-10189.070123
825.772775,74.020594,444.123565,-10112.460574
825.773095,-2442.679609,-888.247130,-10112.460574
825.773415,-1776.494261,-2294.638420,-10112.460574
825.773735,370.102971,-1480.411884,-9652.803275
825.774055,740.205942,-740.205942,-9652.803275
825.774375,740.205942,1406.391290,-9729.412825
825.774695,1258.350101,1702.473667,-10189.070123
825.775015,1184.329507,2516.700203,-11108.384721
825.775335,296.082377,1406.391290,-10189.070123
825.775655,-1480.411884,148.041188,-9806.022374
825.775975,-1110.308913,-1554.432478,-9652.803275
825.776295,1036.288319,-962.267725,-9652.803275
825.776615,1406.391290,-444.123565,-9729.412825
825.776935,296.082377,-296.082377,-9499.584175
825.777256,148.041188,1776.494261,-10265.679673
825.777576,-444.123565,3256.906145,-10342.289223
825.777896,370.102971,2516.700203,-10342.289223
825.778216,-444.123565,1406.391290,-9422.974625
825.778536,-666.185348,0.000000,-10265.679673
825.778856,0.000000,0.000000,-9882.631924
825.779176,0.000000,-444.123565,-9882.631924
825.779496,1184.329507,444.123565,-9959.241474
825.779816,1702.473667,1258.350101,-10112.460574
825.780136,740.205942,1036.288319,-10648.727422
825.780456,0.000000,666.185348,-10265.679673
825.780776,296.082377,1628.453072,-10035.851024
825.781096,1184.329507,1702.473667,-10572.117872
825.781417,962.267725,1110.308913,-10572.117872
825.781737,148.041188,518.144159,-10572.117872
825.782057,-296.082377,0.000000,-9652.803275
825.782377,1258.350101,370.102971,-10572.117872
825.782697,888.247130,1554.432478,-10342.289223
825.783017,-296.082377,2516.700203,-10572.117872
825.783337,-1776.494261,888.247130,-9729.412825
825.783657,0.000000,-740.205942,-10342.289223
825.783977,0.000000,-740.205942,-9806.022374
825.784297,-814.226536,296.082377,-10035.851024
825.784617,-592.164754,1406.391290,-9193.145976
825.784937,1776.494261,1184.329507,-10418.898773
825.785257,2664.741391,370.102971,-10495.508323
825.785577,2960.823768,370.102971,-9882.631924
825.785898,814.226536,592.164754,-9959.241474
825.786218,888.247130,-1332.370696,-10265.679673
825.786538,666.185348,444.123565,-9806.022374
825.786858,-1406.391290,518.144159,-9959.241474
825.787178,-814.226536,370.102971,-9346.365076
825.787498,1184.329507,0.000000,-9729.412825
825.787818,1850.514855,1998.556043,-10495.508323
825.788138,962.267725,296.082377,-10265.679673
825.788458,1110.308913,-222.061783,-9959.241474
825.788778,296.082377,-2368.659014,-9729.412825
825.789098,1850.514855,-1776.494261,-9652.803275
825.789418,1184.329507,-444.123565,-9882.631924
825.789738,888.247130,0.000000,-9193.145976
825.790058,2220.617826,888.247130,-10342.289223
825.790379,2960.823768,1776.494261,-10572.117872
825.790699,2442.679609,2146.597232,-10572.117872
825.791019,1184.329507,1406.391290,-9806.022374
825.791339,888.247130,-370.102971,-10418.898773
825.791659,814.226536,-814.226536,-9959.241474
825.791979,148.041188,-1184.329507,-10189.070123
825.792299,-518.144159,-2220.617826,-9729.412825
825.792619,1110.308913,-1924.535449,-9959.241474
825.792939,1776.494261,222.061783,-10572.117872
825.793259,1184.329507,2294.638420,-10342.289223
825.793579,1110.308913,2886.803174,-10112.460574
825.793899,1776.494261,1702.473667,-10801.946522
825.794219,2072.576638,592.164754,-10418.898773
825.794540,666.185348,-1628.453072,-10265.679673
825.794860,-1702.473667,-2812.782580,-9499.584175
825.795180,-1924.535449,-1702.473667,-9959.241474
825.795500,-1184.329507,1036.288319,-9882.631924
825.795820,-592.164754,740.205942,-10035.851024
825.796140,-1110.308913,888.247130,-10189.070123
825.796460,0.000000,222.061783,-10112.460574
825.796780,222.061783,814.226536,-10342.289223
825.797100,-518.144159,-814.226536,-9959.241474
825.797420,-962.267725,-1628.453072,-9499.584175
825.797740,-814.226536,-1776.494261,-9882.631924
825.798060,444.123565,-592.164754,-10035.851024
825.798380,592.164754,296.082377,-10189.070123
825.798700,0.000000,222.061783,-9882.631924
825.799021,1406.391290,518.144159,-10265.679673
825.799341,1924.535449,518.144159,-10572.117872
825.799661,370.102971,0.000000,-10265.679673
825.799981,-222.061783,-370.102971,-9499.584175
825.800301,222.061783,296.082377,-10112.460574
825.800621,-296.082377,74.020594,-10189.070123
825.800941,-148.041188,-592.164754,-9959.241474
825.801261,-592.164754,0.000000,-10725.336972
825.801581,74.020594,-148.041188,-9882.631924
825.801901,2812.782580,592.164754,-9959.241474
825.802221,1628.453072,1110.308913,-10418.898773
825.802541,592.164754,2220.617826,-9346.365076
825.802861,-222.061783,1332.370696,-9806.022374
825.803182,0.000000,1332.370696,-10495.508323
825.803502,296.082377,962.267725,-10189.070123
825.803822,0.000000,962.267725,-9806.022374
825.804142,2220.617826,888.247130,-10189.070123
825.804462,2960.823768,740.205942,-10112.460574
825.804782,1850.514855,1036.288319,-10495.508323
825.805102,0.000000,1554.432478,-9806.022374
825.805422,0.000000,1924.535449,-10955.165621
825.805742,518.144159,2368.659014,-10495.508323
825.806062,-888.247130,1998.556043,-10342.289223
825.806382,-1110.308913,1258.350101,-10112.460574
825.806702,370.102971,222.061783,-10189.070123
825.807022,2738.761985,1258.350101,-10648.727422
825.807342,1406.391290,888.247130,-9882.631924
825.807662,370.102971,2294.638420,-9652.803275
825.807982,148.041188,1850.514855,-9959.241474
825.808302,2220.617826,1702.473667,-10342.289223
825.808622,888.247130,740.205942,-10035.851024
825.808942,-296.082377,-666.185348,-10035.851024
825.809262,-296.082377,-3108.864956,-9499.584175
825.809582,814.226536,-2960.823768,-9882.631924
825.809902,0.000000,-962.267725,-10189.070123
825.810222,-592.164754,1776.494261,-9576.193725
825.810542,740.205942,3108.864956,-10418.898773
825.810862,2664.741391,2590.720797,-10878.556072
825.811182,814.226536,1110.308913,-10112.460574
825.811502,-1998.556043,-888.247130,-9882.631924
825.811822,-2368.659014,-2516.700203,-9729.412825
825.812142,74.020594,-3404.947333,-9576.193725
825.812462,740.205942,-1628.453072,-10189.070123
825.812782,1036.288319,0.000000,-9882.631924
825.813102,1184.329507,1998.556043,-10418.898773
825.813422,2368.659014,3552.988522,-11338.213370
825.813742,1702.473667,3404.947333,-11338.213370
825.814062,296.082377,2072.576638,-10265.679673
825.814382,-296.082377,-1110.308913,-10265.679673
825.814703,1554.432478,-2146.597232,-9882.631924
825.815023,1850.514855,-2072.576638,-10648.727422
825.815343,1110.308913,-2146.597232,-9959.241474
825.815663,740.205942,-296.082377,-10189.070123
825.815983,666.185348,1776.494261,-10495.508323
825.816303,148.041188,2516.700203,-10418.898773
825.816623,-814.226536,1332.370696,-10189.070123
825.816943,-222.061783,-1628.453072,-9806.022374
825.817263,592.164754,-2738.761985,-9882.631924
825.817583,1036.288319,-2738.761985,-9959.241474
825.817903,518.144159,-2220.617826,-9422.974625
825.818223,1110.308913,-740.205942,-9652.803275
825.818543,1850.514855,740.205942,-10418.898773
825.818863,1036.288319,1924.535449,-10495.508323
825.819183,0.000000,1628.453072,-9806.022374
825.819503,888.247130,444.123565,-10265.679673
825.819823,1924.535449,-1184.329507,-9806.022374
825.820143,1036.288319,-1850.514855,-10112.460574
825.820463,-1110.308913,-1480.411884,-9422.974625
825.820783,-370.102971,-1110.308913,-9806.022374
825.821103,444.123565,-370.102971,-9806.022374
825.821423,0.000000,0.000000,-10265.679673
825.821743,-1184.329507,148.041188,-9806.022374
825.822063,-888.247130,0.000000,-10189.070123
825.822383,1480.411884,-222.061783,-10189.070123
825.822703,1184.329507,0.000000,-10189.070123
825.823023,-666.185348,-666.185348,-10342.289223
825.823343,-666.185348,-888.247130,-9652.803275
825.823663,-148.041188,-148.041188,-10035.851024
825.823983,-518.144159,592.164754,-10265.679673
825.824303,-444.123565,592.164754,-10265.679673
825.824623,148.041188,-296.082377,-10189.070123
825.824943,1776.494261,0.000000,-10725.336972
825.825263,444.123565,0.000000,-10342.289223
825.825583,-740.205942,592.164754,-9652.803275
825.825903,592.164754,0.000000,-10112.460574
825.826223,2220.617826,666.185348,-10342.289223
825.826543,1258.350101,1480.411884,-10572.117872
825.826863,-518.144159,1036.288319,-9806.022374
825.827183,-814.226536,74.020594,-9959.241474
825.827503,1776.494261,1110.308913,-10112.460574
825.827823,1850.514855,2886.803174,-10878.556072
825.828143,-1184.329507,3034.844362,-9193.145976
825.828463,-518.144159,1776.494261,-9652.803275
825.828783,1258.350101,444.123565,-10265.679673
825.829103,1702.473667,74.020594,-10035.851024
825.829423,1258.350101,962.267725,-9806.022374
825.829743,1110.308913,962.267725,-8886.707777
825.830063,1850.514855,2590.720797,-9806.022374
825.830383,1332.370696,2886.803174,-10342.289223
825.830703,1110.308913,2146.597232,-9806.022374
825.831023,1184.329507,1184.329507,-9806.022374
825.831343,1110.308913,148.041188,-9576.193725
825.831663,-740.205942,296.082377,-10189.070123
825.831983,-1406.391290,888.247130,-9806.022374
825.832303,222.061783,370.102971,-9959.241474
825.832623,1110.308913,1184.329507,-10112.460574
825.832943,666.185348,1332.370696,-10418.898773
825.833263,-814.226536,740.205942,-10112.460574
825.833583,-74.020594,1036.288319,-9806.022374
825.833903,444.123565,1258.350101,-10572.117872
825.834223,-592.164754,2368.659014,-10418.898773
825.834543,-2072.576638,518.144159,-10035.851024
825.834863,-1332.370696,-370.102971,-9882.631924
825.835183,1258.350101,-740.205942,-9959.241474
825.835503,1332.370696,0.000000,-10035.851024
825.835823,1036.288319,666.185348,-9806.022374
825.836143,518.144159,888.247130,-9959.241474
825.836463,1406.391290,1110.308913,-10342.289223
825.836783,518.144159,1036.288319,-9806.022374
825.837103,-1332.370696,148.041188,-9806.022374
825.837423,-2146.597232,-1332.370696,-9499.584175
825.837743,-444.123565,-1628.453072,-9652.803275
825.838063,1258.350101,-962.267725,-9806.022374
825.838383,1332.370696,-518.144159,-9652.803275
825.838703,1110.308913,296.082377,-9806.022374
825.839023,1036.288319,962.267725,-10112.460574
825.839343,444.123565,1406.391290,-10495.508323
825.839663,-148.041188,1406.391290,-8580.269578
825.839983,74.020594,148.041188,-10112.460574
825.840303,1554.432478,-814.226536,-9959.241474
825.840623,2220.617826,-1332.370696,-10189.070123
825.840943,2294.638420,-1406.391290,-10572.117872
825.841263,2072.576638,-592.164754,-10265.679673
825.841583,2664.741391,1036.288319,-10725.336972
825.841903,1998.556043,2368.659014,-11338.213370
825.842223,518.144159,1924.535449,-10495.508323
825.842543,740.205942,148.041188,-10878.556072
825.842863,1924.535449,-888.247130,-10572.117872
825.843183,1924.535449,-1702.473667,-10648.727422
825.843503,370.102971,-814.226536,-10265.679673
825.843823,-740.205942,148.041188,-10035.851024
825.844143,592.164754,1406.391290,-10572.117872
825.844463,888.247130,1628.453072,-10955.165621
825.844783,-296.082377,296.082377,-10189.070123
825.845103,-666.185348,-962.267725,-9652.803275
825.845423,1036.288319,-2072.576638,-10112.460574
825.845743,1776.494261,-1554.432478,-10189.070123
