#time,accel_x,accel_y,accel_z
923.600261,814.226536,0.000000,-10035.851024
923.600581,222.061783,148.041188,-10189.070123
923.600901,296.082377,518.144159,-9959.241474
923.601221,0.000000,370.102971,-9882.631924
923.601541,0.000000,740.205942,-10112.460574
923.601862,518.144159,740.205942,-10189.070123
923.602182,814.226536,148.041188,-10342.289223
923.602502,1332.370696,148.041188,-10112.460574
923.602822,740.205942,0.000000,-10189.070123
923.603142,296.082377,0.000000,-9576.193725
923.603462,74.020594,222.061783,-10189.070123
923.603783,888.247130,148.041188,-10112.460574
923.604103,592.164754,370.102971,-10035.851024
923.604423,-444.123565,296.082377,-10265.679673
923.604743,-74.020594,74.020594,-10189.070123
923.605063,592.164754,222.061783,-10342.289223
923.605383,1036.288319,666.185348,-10342.289223
923.605704,-296.082377,74.020594,-10112.460574
923.606024,0.000000,0.000000,-9882.631924
923.606344,518.144159,0.000000,-9959.241474
923.606664,888.247130,0.000000,-9882.631924
923.606984,296.082377,-148.041188,-9959.241474
923.607304,-592.164754,0.000000,-9882.631924
923.607625,-518.144159,-592.164754,-9806.022374
923.607945,-222.061783,-666.185348,-9806.022374
923.608265,-814.226536,74.020594,-9959.241474
923.608585,-1258.350101,-370.102971,-10112.460574
923.608905,-222.061783,-666.185348,-9806.022374
923.609225,-370.102971,-592.164754,-10035.851024
923.609546,-962.267725,-814.226536,-9806.022374
923.609866,-1184.329507,-1554.432478,-9729.412825
923.610186,-666.185348,-1332.370696,-9959.241474
923.610506,0.000000,-1406.391290,-9806.022374
923.610826,-814.226536,-1184.329507,-9959.241474
923.611146,-1628.453072,-1850.514855,-10418.898773
923.611467,-1554.432478,-2072.576638,-9882.631924
923.611787,-888.247130,-1924.535449,-9959.241474
923.612107,-1110.308913,-1406.391290,-9882.631924
923.612427,-1850.514855,-1406.391290,-10265.679673
923.612747,-1480.411884,-1924.535449,-9882.631924
923.613067,-444.123565,-1850.514855,-9193.145976
923.613388,-296.082377,-1406.391290,-9959.241474
923.613708,-1036.288319,-1998.556043,-10112.460574
923.614028,-2220.617826,-2516.700203,-9806.022374
923.614348,-2220.617826,-3330.926739,-9806.022374
923.614668,-1554.432478,-3256.906145,-10265.679673
923.614988,-1480.411884,-3330.926739,-9882.631924
923.615309,-2220.617826,-3552.988522,-10112.460574
923.615629,-2368.659014,-3182.885551,-9729.412825
923.615949,-518.144159,-3256.906145,-9959.241474
923.616269,592.164754,-1628.453072,-10418.898773
923.616589,370.102971,-1110.308913,-10572.117872
923.616909,-888.247130,-962.267725,-10648.727422
923.617230,-2368.659014,-1332.370696,-10265.679673
923.617550,-2590.720797,-2220.617826,-10265.679673
923.617870,-3997.112087,-2516.700203,-10189.070123
923.618190,-5477.523971,-3997.112087,-9806.022374
923.618510,-5403.503377,-5181.441594,-9729.412825
923.618830,-2812.782580,-5699.585753,-9576.193725
923.619151,-740.205942,-5033.400406,-9882.631924
923.619471,222.061783,-2886.803174,-10189.070123
923.619791,444.123565,-444.123565,-10342.289223
923.620111,740.205942,1480.411884,-10418.898773
923.620431,1628.453072,1998.556043,-10342.289223
923.620751,1850.514855,1480.411884,-10878.556072
923.621072,592.164754,-666.185348,-10572.117872
923.621392,-1480.411884,-2664.741391,-10342.289223
923.621712,-2886.803174,-3849.070898,-9959.241474
923.622032,-5107.421000,-3923.091493,-9806.022374
923.622352,-5699.585753,-4959.379811,-9193.145976
923.622672,-4145.153275,-5625.565159,-9116.536426
923.622993,-1554.432478,-5033.400406,-8810.098227
923.623313,1036.288319,-3849.070898,-10112.460574
923.623633,1998.556043,-1258.350101,-10265.679673
923.623953,2812.782580,1554.432478,-10495.508323
923.624273,3701.029710,3775.050304,-10648.727422
923.624593,3775.050304,3404.947333,-11031.775171
923.624914,962.267725,2664.741391,-11108.384721
923.625234,-3330.926739,-666.185348,-10265.679673
923.625554,-5847.626942,-3923.091493,-9576.193725
923.625874,-5625.565159,-5625.565159,-9422.974625
923.626194,-4441.235652,-6587.832884,-9576.193725
923.626514,-3849.070898,-5625.565159,-9806.022374
923.626835,-2886.803174,-3997.112087,-9499.584175
923.627155,-888.247130,-1036.288319,-10112.460574
923.627475,1406.391290,1554.432478,-10648.727422
923.627795,2294.638420,3182.885551,-10572.117872
923.628115,2146.597232,3108.864956,-10495.508323
923.628435,3034.844362,1036.288319,-10495.508323
923.628756,2368.659014,-444.123565,-10955.165621
923.629076,0.000000,-1184.329507,-10878.556072
923.629396,-3256.906145,-2368.659014,-9882.631924
923.629716,-4885.359217,-2220.617826,-9806.022374
923.630036,-5773.606348,-3034.844362,-9652.803275
923.630357,-6735.874072,-4441.235652,-9806.022374
923.630677,-6291.750507,-5921.647536,-9269.755526
923.630997,-3478.967927,-6439.791695,-8963.317327
923.631317,444.123565,-3701.029710,-9576.193725
923.631637,3775.050304,518.144159,-10342.289223
923.631957,2812.782580,4737.318029,-10801.946522
923.632278,1480.411884,5329.482782,-10572.117872
923.632598,1184.329507,3404.947333,-10418.898773
923.632918,1850.514855,518.144159,-9806.022374
923.633238,370.102971,-3404.947333,-10035.851024
923.633558,-2812.782580,-5847.626942,-9882.631924
923.633878,-5921.647536,-4885.359217,-9576.193725
923.634199,-7994.224174,-2590.720797,-9882.631924
923.634519,-7846.182985,-1924.535449,-9422.974625
923.634839,-5477.523971,-3552.988522,-9193.145976
923.635159,-1036.288319,-5477.523971,-9269.755526
923.635479,2220.617826,-5033.400406,-10265.679673
923.635799,2886.803174,-3108.864956,-9346.365076
923.636120,3034.844362,-74.020594,-10495.508323
923.636440,3478.967927,2960.823768,-11031.775171
923.636760,3552.988522,4367.215058,-11108.384721
923.637080,2442.679609,4441.235652,-11644.651570
923.637400,-1110.308913,1332.370696,-11644.651570
923.637720,-5403.503377,-2812.782580,-10801.946522
923.638041,-7179.997637,-5921.647536,-10035.851024
923.638361,-6883.915261,-8586.388927,-9346.365076
923.638681,-4663.297435,-9622.677246,-9193.145976
923.639001,-4367.215058,-7846.182985,-9499.584175
923.639321,-3478.967927,-5403.503377,-9499.584175
923.639641,-1184.329507,-1480.411884,-9959.241474
923.639962,2812.782580,1776.494261,-10495.508323
923.640282,4885.359217,3404.947333,-11184.994271
923.640602,4441.235652,3256.906145,-10878.556072
923.640922,814.226536,740.205942,-10572.117872
923.641242,-1554.432478,-1850.514855,-10265.679673
923.641562,-2146.597232,-3034.844362,-9729.412825
923.641883,-3182.885551,-5181.441594,-9959.241474
923.642203,-6587.832884,-6735.874072,-9729.412825
923.642523,-8734.430116,-7698.141797,-8733.488677
923.642843,-7550.100608,-7920.203579,-8810.098227
923.643163,-2590.720797,-6439.791695,-9346.365076
923.643483,74.020594,-3256.906145,-9729.412825
923.643804,-1332.370696,-148.041188,-9959.241474
923.644124,-1406.391290,888.247130,-10189.070123
923.644444,2664.741391,1184.329507,-9576.193725
923.644764,5107.421000,962.267725,-10725.336972
923.645084,4367.215058,222.061783,-10955.165621
923.645404,370.102971,-1998.556043,-10725.336972
923.645725,-1406.391290,-3182.885551,-9806.022374
923.646045,-2516.700203,-3849.070898,-10342.289223
923.646365,-3923.091493,-3923.091493,-9806.022374
923.646685,-5477.523971,-3478.967927,-10495.508323
923.647005,-5477.523971,-2590.720797,-10112.460574
923.647325,-4515.256246,-1776.494261,-9806.022374
923.647646,-2368.659014,-1776.494261,-10189.070123
923.647966,222.061783,-2146.597232,-9959.241474
923.648286,3182.885551,-888.247130,-10801.946522
923.648606,2368.659014,888.247130,-10878.556072
923.648926,444.123565,2664.741391,-10801.946522
923.649246,-666.185348,2516.700203,-10418.898773
923.649567,666.185348,296.082377,-10955.165621
923.649887,444.123565,-1332.370696,-10648.727422
923.650207,-1554.432478,-2960.823768,-10342.289223
923.650527,-3775.050304,-4811.338623,-9269.755526
923.650847,-3627.009116,-4959.379811,-9806.022374
923.651167,-3701.029710,-3256.906145,-9652.803275
923.651488,-2812.782580,-1776.494261,-8427.050478
923.651808,-2072.576638,-2664.741391,-9422.974625
923.652128,-444.123565,-2738.761985,-9652.803275
923.652448,1554.432478,-2590.720797,-9116.536426
923.652768,3182.885551,296.082377,-10418.898773
923.653088,2072.576638,3108.864956,-10342.289223
923.653409,-592.164754,3404.947333,-10495.508323
923.653729,-1628.453072,1184.329507,-9806.022374
923.654049,-2812.782580,-2368.659014,-10189.070123
923.654369,-3404.947333,-6365.771101,-9193.145976
923.654689,-4293.194464,-5773.606348,-9576.193725
923.655009,-4219.173869,-3627.009116,-9346.365076
923.655330,-5551.544565,-2072.576638,-9959.241474
923.655649,-4293.194464,-296.082377,-9806.022374
923.655969,-1184.329507,-888.247130,-9959.241474
923.656289,1406.391290,-2368.659014,-10572.117872
923.656609,3256.906145,-2368.659014,-10418.898773
923.656929,1924.535449,0.000000,-11031.775171
923.657249,962.267725,1628.453072,-11797.870669
923.657569,296.082377,3256.906145,-10725.336972
923.657889,148.041188,2368.659014,-11108.384721
923.658209,-1702.473667,-1480.411884,-10112.460574
923.658528,-3997.112087,-5625.565159,-10342.289223
923.658848,-4367.215058,-6587.832884,-10342.289223
923.659168,-4589.276840,-5477.523971,-9576.193725
923.659488,-3775.050304,-2960.823768,-10112.460574
923.659808,-2442.679609,-2368.659014,-9576.193725
923.660128,-222.061783,-2294.638420,-10189.070123
923.660448,2368.659014,-2294.638420,-10495.508323
923.660768,2146.597232,296.082377,-10112.460574
923.661087,1628.453072,1998.556043,-10955.165621
923.661407,1258.350101,2368.659014,-10878.556072
923.661727,2812.782580,1036.288319,-10418.898773
923.662047,-74.020594,-3182.885551,-9806.022374
923.662367,-1998.556043,-5477.523971,-9729.412825
923.662687,-4071.132681,-5847.626942,-9806.022374
923.663007,-6735.874072,-5329.482782,-9422.974625
923.663327,-6587.832884,-2960.823768,-9116.536426
923.663646,-3404.947333,-2220.617826,-8963.317327
923.663966,-592.164754,-1406.391290,-10112.460574
923.664286,-1406.391290,-1998.556043,-9729.412825
923.664606,-1850.514855,-2072.576638,-10112.460574
923.664926,1110.308913,-1776.494261,-9729.412825
923.665246,3034.844362,0.000000,-10342.289223
923.665566,2368.659014,222.061783,-10189.070123
923.665886,1480.411884,-296.082377,-11338.213370
923.666205,-296.082377,370.102971,-10725.336972
923.666525,-3849.070898,-296.082377,-10418.898773
923.666845,-6661.853478,-814.226536,-10265.679673
923.667165,-5551.544565,-1628.453072,-9882.631924
923.667485,-3849.070898,-3775.050304,-10342.289223
923.667805,148.041188,-5921.647536,-10265.679673
923.668125,740.205942,-3849.070898,-10342.289223
923.668445,-370.102971,-1184.329507,-10189.070123
923.668764,1480.411884,296.082377,-10495.508323
923.669084,3404.947333,3034.844362,-10265.679673
923.669404,1258.350101,3330.926739,-11108.384721
923.669724,444.123565,1332.370696,-10418.898773
923.670044,-222.061783,148.041188,-10112.460574
923.670364,0.000000,-3108.864956,-10189.070123
923.670684,2220.617826,-3108.864956,-9729.412825
923.671004,444.123565,-1480.411884,-9882.631924
923.671324,-2146.597232,-2812.782580,-9576.193725
923.671643,-2960.823768,-3775.050304,-9039.926876
923.671963,-3182.885551,-4219.173869,-9346.365076
923.672283,-444.123565,-2442.679609,-9193.145976
923.672603,2294.638420,888.247130,-9652.803275
923.672923,4737.318029,2664.741391,-10189.070123
923.673243,4811.338623,2516.700203,-8963.317327
923.673563,6661.853478,3108.864956,-11261.603821
923.673883,7328.038826,2590.720797,-10648.727422
923.674202,4737.318029,0.000000,-10648.727422
923.674522,1258.350101,-740.205942,-10495.508323
923.674842,-2220.617826,-444.123565,-10189.070123
923.675162,-3256.906145,1850.514855,-10648.727422
923.675482,-4367.215058,740.205942,-11031.775171
923.675802,-740.205942,74.020594,-10725.336972
923.676122,1184.329507,740.205942,-10495.508323
923.676442,1850.514855,0.000000,-11414.822920
923.676761,2072.576638,1702.473667,-10801.946522
923.677081,888.247130,3775.050304,-10725.336972
923.677401,1332.370696,3923.091493,-11184.994271
923.677721,1036.288319,3108.864956,-10418.898773
923.678041,2072.576638,962.267725,-10878.556072
923.678361,2146.597232,-1776.494261,-9806.022374
923.678681,2368.659014,0.000000,-10112.460574
923.679001,592.164754,814.226536,-11261.603821
923.679320,-4071.132681,1036.288319,-9882.631924
923.679640,-7179.997637,-370.102971,-9193.145976
923.679960,-6069.688724,-1258.350101,-9116.536426
923.680280,-1110.308913,-1776.494261,-8580.269578
923.680600,1184.329507,-1628.453072,-9882.631924
923.680920,814.226536,-888.247130,-9576.193725
923.681240,1406.391290,-148.041188,-9193.145976
923.681560,3108.864956,1998.556043,-8580.269578
923.681879,3256.906145,3034.844362,-8963.317327
923.682199,2886.803174,2738.761985,-10418.898773
923.682519,-296.082377,1776.494261,-10265.679673
923.682839,-1998.556043,-740.205942,-9729.412825
923.683159,-3182.885551,-1184.329507,-9959.241474
923.683479,-3478.967927,-740.205942,-8886.707777
923.683799,-1998.556043,-370.102971,-10265.679673
923.684119,296.082377,1554.432478,-9806.022374
923.684439,2590.720797,1110.308913,-10801.946522
923.684758,1776.494261,1850.514855,-10725.336972
923.685078,2368.659014,1998.556043,-9882.631924
923.685398,3330.926739,1332.370696,-10572.117872
923.685718,4737.318029,888.247130,-9882.631924
923.686038,2960.823768,1110.308913,-10725.336972
923.686358,1184.329507,1036.288319,-10572.117872
923.686678,370.102971,1628.453072,-10725.336972
923.686998,1628.453072,2664.741391,-10878.556072
923.687317,740.205942,2294.638420,-10801.946522
923.687637,148.041188,1628.453072,-10418.898773
923.687957,0.000000,-1850.514855,-9806.022374
923.688277,518.144159,-2960.823768,-9729.412825
923.688597,2812.782580,-1480.411884,-10648.727422
923.688917,2590.720797,-1332.370696,-10265.679673
923.689237,1184.329507,1480.411884,-9959.241474
923.689557,962.267725,2072.576638,-9959.241474
923.689876,1850.514855,2442.679609,-9959.241474
923.690196,5699.585753,1702.473667,-10189.070123
923.690516,3330.926739,1406.391290,-10265.679673
923.690836,1258.350101,-740.205942,-9959.241474
923.691156,-1036.288319,-1628.453072,-9422.974625
923.691476,-1036.288319,-2220.617826,-8963.317327
923.691796,222.061783,-2368.659014,-9116.536426
923.692116,-518.144159,-3034.844362,-9806.022374
923.692435,-148.041188,-1184.329507,-9193.145976
923.692755,-740.205942,0.000000,-10035.851024
923.693075,962.267725,444.123565,-10035.851024
923.693395,1628.453072,1702.473667,-10265.679673
923.693715,74.020594,74.020594,-10265.679673
923.694035,518.144159,-1184.329507,-10418.898773
923.694355,-1480.411884,-296.082377,-9729.412825
923.694675,-2368.659014,-666.185348,-9959.241474
923.694995,-2738.761985,-1702.473667,-10342.289223
923.695314,-2442.679609,-1406.391290,-10035.851024
923.695634,-2812.782580,-1702.473667,-10035.851024
923.695954,-2664.741391,-1776.494261,-10878.556072
923.696274,-1850.514855,-2146.597232,-10035.851024
923.696594,-1776.494261,-3404.947333,-10572.117872
923.696914,-666.185348,592.164754,-10189.070123
923.697234,1110.308913,2516.700203,-10725.336972
923.697554,2072.576638,1332.370696,-11414.822920
923.697873,2220.617826,2368.659014,-10572.117872
923.698193,1332.370696,2960.823768,-11721.261119
923.698513,0.000000,1924.535449,-10112.460574
923.698833,-962.267725,-222.061783,-9652.803275
923.699153,-1110.308913,-1628.453072,-10112.460574
923.699473,-1628.453072,-1998.556043,-9499.584175
923.699793,-1998.556043,-3552.988522,-9806.022374
923.700113,-814.226536,-3478.967927,-9422.974625
923.700432,-1776.494261,-2368.659014,-8886.707777
923.700752,-814.226536,1184.329507,-9729.412825
923.701072,814.226536,2886.803174,-9422.974625
923.701392,4145.153275,1258.350101,-10189.070123
923.701712,6217.729913,592.164754,-9806.022374
923.702032,3627.009116,-888.247130,-10112.460574
923.702352,962.267725,222.061783,-10035.851024
923.702672,1110.308913,1110.308913,-9499.584175
923.702991,1036.288319,740.205942,-10189.070123
923.703311,814.226536,296.082377,-9806.022374
923.703631,-1110.308913,-814.226536,-9806.022374
923.703951,-814.226536,-2072.576638,-9806.022374
923.704271,2516.700203,-1406.391290,-10035.851024
923.704591,5033.400406,-666.185348,-10495.508323
923.704911,1924.535449,814.226536,-10265.679673
923.705231,1110.308913,3108.864956,-10112.460574
923.705550,1332.370696,3701.029710,-10801.946522
923.705870,3256.906145,3627.009116,-10418.898773
923.706190,4071.132681,2960.823768,-11184.994271
923.706510,3182.885551,2516.700203,-10648.727422
923.706830,1036.288319,1036.288319,-10648.727422
923.707150,592.164754,0.000000,-10648.727422
923.707470,-370.102971,0.000000,-9959.241474
923.707790,-296.082377,-370.102971,-10189.070123
923.708110,-296.082377,-222.061783,-10189.070123
923.708429,-888.247130,-666.185348,-9959.241474
923.708749,0.000000,666.185348,-9882.631924
923.709069,1554.432478,-222.061783,-10112.460574
923.709389,2960.823768,444.123565,-10189.070123
923.709709,3034.844362,2368.659014,-10189.070123
923.710029,0.000000,5403.503377,-9269.755526
923.710349,-2368.659014,5255.462188,-10725.336972
923.710669,-1776.494261,4145.153275,-10265.679673
923.710988,-1480.411884,-444.123565,-9806.022374
923.711308,-518.144159,-2886.803174,-9039.926876
923.711628,-1776.494261,-3404.947333,-9729.412825
923.711948,-2146.597232,-3034.844362,-9806.022374
923.712268,-740.205942,-1628.453072,-9806.022374
923.712588,1110.308913,1702.473667,-10648.727422
923.712908,0.000000,3849.070898,-11338.213370
923.713228,148.041188,6069.688724,-10112.460574
923.713547,2590.720797,7846.182985,-10725.336972
923.713867,1850.514855,6735.874072,-10801.946522
923.714187,2146.597232,4737.318029,-9959.241474
923.714507,0.000000,-518.144159,-9882.631924
923.714827,-1184.329507,-4959.379811,-9346.365076
923.715147,-1480.411884,-5699.585753,-9193.145976
923.715467,-1184.329507,-3330.926739,-9269.755526
923.715787,-1406.391290,444.123565,-10342.289223
923.716106,-3182.885551,2516.700203,-9882.631924
923.716426,-2294.638420,3034.844362,-9882.631924
923.716746,-740.205942,74.020594,-10342.289223
923.717066,2442.679609,-2220.617826,-9576.193725
923.717386,4145.153275,-1110.308913,-10342.289223
923.717706,2590.720797,0.000000,-11108.384721
923.718026,2664.741391,444.123565,-9882.631924
923.718346,2442.679609,296.082377,-9882.631924
923.718665,1406.391290,1332.370696,-9499.584175
923.718985,962.267725,1554.432478,-10035.851024
923.719305,222.061783,1480.411884,-10495.508323
923.719625,-1702.473667,74.020594,-9576.193725
923.719945,-962.267725,-1554.432478,-9806.022374
923.720265,0.000000,-3849.070898,-8580.269578
923.720585,1776.494261,-3997.112087,-9576.193725
923.720905,2220.617826,-666.185348,-9422.974625
923.721225,1258.350101,1924.535449,-10648.727422
923.721544,2368.659014,3478.967927,-10572.117872
923.721864,4145.153275,3552.988522,-10112.460574
923.722184,4367.215058,1480.411884,-10112.460574
923.722504,2812.782580,148.041188,-10189.070123
923.722824,2220.617826,-1998.556043,-10878.556072
923.723144,1332.370696,-2738.761985,-10342.289223
923.723464,1184.329507,-2294.638420,-9499.584175
923.723784,2220.617826,-1258.350101,-10418.898773
923.724103,222.061783,1406.391290,-10572.117872
923.724423,-1924.535449,1406.391290,-9882.631924
923.724743,-1776.494261,1554.432478,-10801.946522
923.725063,444.123565,814.226536,-10572.117872
923.725383,2294.638420,-1702.473667,-10495.508323
923.725703,370.102971,-1924.535449,-10189.070123
923.726023,-2812.782580,-2590.720797,-9346.365076
923.726343,-2072.576638,-1998.556043,-10418.898773
923.726662,1702.473667,1406.391290,-10725.336972
923.726982,1998.556043,2590.720797,-11568.042020
923.727302,-1184.329507,3478.967927,-10955.165621
923.727622,-3997.112087,2072.576638,-9729.412825
923.727942,-1480.411884,222.061783,-10648.727422
923.728262,2368.659014,-1110.308913,-10189.070123
923.728582,2368.659014,-518.144159,-9959.241474
923.728902,0.000000,-888.247130,-10112.460574
923.729221,-814.226536,-148.041188,-9499.584175
923.729541,-1554.432478,1776.494261,-9729.412825
923.729861,-2368.659014,3775.050304,-10035.851024
923.730181,-2368.659014,3849.070898,-9652.803275
923.730501,-1850.514855,2590.720797,-9729.412825
923.730821,74.020594,-740.205942,-8810.098227
923.731141,444.123565,-3478.967927,-9346.365076
923.731461,1184.329507,-3775.050304,-10189.070123
923.731781,148.041188,-1480.411884,-9116.536426
923.732100,-666.185348,1110.308913,-9346.365076
923.732420,0.000000,5329.482782,-9576.193725
923.732740,2664.741391,4589.276840,-9576.193725
923.733060,4145.153275,3034.844362,-10648.727422
923.733380,4589.276840,444.123565,-10495.508323
923.733700,1702.473667,-444.123565,-10112.460574
923.734020,148.041188,-1406.391290,-10112.460574
923.734340,2294.638420,-1850.514855,-10189.070123
923.734659,1554.432478,296.082377,-10265.679673
923.734979,-444.123565,2516.700203,-10955.165621
923.735299,-1110.308913,3034.844362,-10572.117872
923.735619,518.144159,2886.803174,-9806.022374
923.735939,3404.947333,888.247130,-10878.556072
923.736259,2516.700203,-518.144159,-10342.289223
923.736579,2294.638420,-1184.329507,-10342.289223
923.736899,2220.617826,444.123565,-10265.679673
923.737218,2072.576638,1554.432478,-10265.679673
923.737538,4293.194464,3627.009116,-11261.603821
923.737858,2294.638420,5403.503377,-10648.727422
923.738178,2812.782580,4589.276840,-10035.851024
923.738498,2960.823768,2294.638420,-10189.070123
923.738818,2220.617826,222.061783,-9499.584175
923.739138,740.205942,-1258.350101,-9499.584175
923.739458,-814.226536,-3627.009116,-8810.098227
923.739777,444.123565,-3552.988522,-8810.098227
923.740097,-296.082377,-2146.597232,-10035.851024
923.740417,-1998.556043,-740.205942,-9039.926876
923.740737,-740.205942,666.185348,-9806.022374
923.741057,2442.679609,1406.391290,-9806.022374
923.741377,2516.700203,1406.391290,-8733.488677
923.741697,-962.267725,1258.350101,-10189.070123
923.742017,-3108.864956,-1332.370696,-9652.803275
923.742336,-1184.329507,-3108.864956,-10112.460574
923.742656,-148.041188,-2960.823768,-9959.241474
923.742976,-296.082377,-962.267725,-9806.022374
923.743296,-2664.741391,1480.411884,-11031.775171
923.743616,-3108.864956,2960.823768,-10725.336972
923.743936,-740.205942,3256.906145,-11108.384721
923.744256,296.082377,1554.432478,-9959.241474
923.744576,-1184.329507,-1258.350101,-9882.631924
923.744896,-1480.411884,-2368.659014,-10495.508323
923.745215,-1406.391290,-2664.741391,-9806.022374
923.745535,296.082377,-1036.288319,-11797.870669
923.745855,-888.247130,1332.370696,-10725.336972
923.746175,-592.164754,2664.741391,-9806.022374
923.746495,518.144159,3404.947333,-11491.432470
923.746815,-592.164754,2960.823768,-10801.946522
923.747135,-1628.453072,1184.329507,-10342.289223
923.747455,444.123565,0.000000,-11031.775171
923.747774,1998.556043,-1702.473667,-9193.145976
923.748094,3256.906145,666.185348,-11184.994271
923.748414,370.102971,-148.041188,-9422.974625
923.748734,370.102971,1406.391290,-9806.022374
923.749054,666.185348,1406.391290,-9193.145976
923.749374,2146.597232,0.000000,-9269.755526
923.749694,2812.782580,-1554.432478,-10035.851024
923.750014,2516.700203,-3330.926739,-8963.317327
923.750333,2812.782580,-3552.988522,-9116.536426
923.750653,1702.473667,-1850.514855,-9346.365076
923.750973,2146.597232,444.123565,-9882.631924
923.751293,1850.514855,1332.370696,-9882.631924
923.751613,1628.453072,962.267725,-9116.536426
923.751933,2220.617826,-296.082377,-9806.022374
923.752253,2886.803174,-962.267725,-9806.022374
923.752573,1924.535449,-592.164754,-9499.584175
923.752892,222.061783,-370.102971,-10648.727422
923.753212,-592.164754,370.102971,-9882.631924
923.753532,148.041188,814.226536,-10418.898773
923.753852,444.123565,814.226536,-10112.460574
923.754172,296.082377,3034.844362,-10572.117872
923.754492,444.123565,2220.617826,-11031.775171
923.754812,222.061783,1480.411884,-10495.508323
923.755131,2516.700203,1406.391290,-10648.727422
923.755451,2294.638420,1776.494261,-10725.336972
923.755771,370.102971,1332.370696,-9806.022374
923.756091,-1036.288319,1554.432478,-10648.727422
923.756411,-814.226536,666.185348,-9882.631924
923.756730,814.226536,1480.411884,-9959.241474
923.757050,296.082377,3552.988522,-10189.070123
923.757370,-444.123565,1998.556043,-9729.412825
923.757690,-222.061783,148.041188,-10495.508323
923.758009,74.020594,-740.205942,-9882.631924
923.758329,-370.102971,-2590.720797,-9193.145976
923.758649,-1554.432478,-148.041188,-9959.241474
923.758969,-1628.453072,0.000000,-9806.022374
923.759289,1110.308913,1036.288319,-9806.022374
923.759608,814.226536,1110.308913,-9959.241474
923.759928,-1110.308913,1480.411884,-9806.022374
923.760248,-962.267725,0.000000,-9959.241474
923.760568,-1702.473667,-518.144159,-9959.241474
923.760887,-740.205942,222.061783,-9959.241474
923.761207,-222.061783,74.020594,-9652.803275
923.761527,-962.267725,296.082377,-9882.631924
923.761847,0.000000,148.041188,-10189.070123
923.762167,370.102971,1184.329507,-9346.365076
923.762486,-666.185348,2442.679609,-10342.289223
923.762806,0.000000,2368.659014,-9806.022374
923.763126,222.061783,2220.617826,-10035.851024
923.763446,1776.494261,518.144159,-10189.070123
923.763765,2072.576638,-888.247130,-9806.022374
923.764085,0.000000,0.000000,-9806.022374
923.764405,-1406.391290,888.247130,-9499.584175
923.764725,-740.205942,222.061783,-9806.022374
923.765045,370.102971,518.144159,-10572.117872
923.765364,1036.288319,74.020594,-10035.851024
923.765684,2294.638420,296.082377,-10189.070123
923.766004,1850.514855,1998.556043,-10878.556072
923.766324,2886.803174,2368.659014,-10189.070123
923.766643,3108.864956,1850.514855,-11108.384721
923.766963,1998.556043,-888.247130,-10112.460574
923.767283,1332.370696,-2664.741391,-10189.070123
923.767603,370.102971,-4145.153275,-9806.022374
923.767923,518.144159,-2072.576638,-10189.070123
923.768242,444.123565,518.144159,-10418.898773
923.768562,1554.432478,3256.906145,-10189.070123
923.768882,3923.091493,2368.659014,-10495.508323
923.769202,2294.638420,370.102971,-9959.241474
923.769521,1036.288319,-1554.432478,-9882.631924
923.769841,1406.391290,-1702.473667,-9882.631924
923.770161,2220.617826,-222.061783,-10418.898773
923.770481,1628.453072,1702.473667,-10572.117872
923.770801,0.000000,2072.576638,-9959.241474
923.771120,-518.144159,592.164754,-9499.584175
923.771440,1184.329507,-888.247130,-9806.022374
923.771760,1258.350101,-1258.350101,-9882.631924
923.772080,740.205942,-518.144159,-9652.803275
923.772399,-222.061783,666.185348,-9499.584175
923.772719,-444.123565,1998.556043,-9959.241474
923.773039,0.000000,-296.082377,-10342.289223
923.773359,-148.041188,-518.144159,-9346.365076
923.773679,-592.164754,-296.082377,-10112.460574
923.773998,370.102971,-666.185348,-10112.460574
923.774318,2960.823768,-444.123565,-10878.556072
923.774638,888.247130,-222.061783,-10725.336972
923.774958,-2368.659014,-370.102971,-9882.631924
923.775277,-4071.132681,518.144159,-10801.946522
923.775597,-3627.009116,-814.226536,-10265.679673
923.775917,-1406.391290,-222.061783,-10189.070123
923.776237,-3256.906145,0.000000,-10725.336972
923.776557,0.000000,1036.288319,-10035.851024
923.776876,2368.659014,1554.432478,-11031.775171
923.777196,2886.803174,444.123565,-10878.556072
923.777516,3034.844362,592.164754,-10878.556072
923.777836,2072.576638,370.102971,-10878.556072
923.778155,-1184.329507,296.082377,-10189.070123
923.778475,-4071.132681,2516.700203,-9806.022374
923.778795,-5699.585753,1702.473667,-9729.412825
923.779115,-3108.864956,2072.576638,-10112.460574
923.779435,1258.350101,0.000000,-10572.117872
923.779754,3330.926739,-814.226536,-10648.727422
923.780074,2072.576638,-666.185348,-10648.727422
923.780394,1998.556043,518.144159,-9959.241474
923.780714,1850.514855,3552.988522,-9499.584175
923.781033,1998.556043,5699.585753,-10801.946522
923.781353,2294.638420,3552.988522,-11338.213370
923.781673,1850.514855,1110.308913,-9806.022374
923.781993,2886.803174,-962.267725,-9959.241474
923.782313,1924.535449,-1776.494261,-9193.145976
923.782632,2664.741391,-2368.659014,-9652.803275
923.782952,2368.659014,-1332.370696,-9116.536426
923.783272,2442.679609,-1554.432478,-9806.022374
923.783592,1036.288319,-1406.391290,-9806.022374
923.783911,-740.205942,-518.144159,-9346.365076
923.784231,592.164754,-666.185348,-9576.193725
923.784551,1184.329507,1924.535449,-9806.022374
923.784871,3256.906145,1406.391290,-10342.289223
923.785191,2442.679609,370.102971,-9806.022374
923.785510,1850.514855,-592.164754,-9499.584175
923.785830,1406.391290,-962.267725,-9652.803275
923.786150,1628.453072,-444.123565,-10112.460574
923.786470,1332.370696,740.205942,-10265.679673
923.786789,-592.164754,1554.432478,-10035.851024
923.787109,0.000000,2442.679609,-9959.241474
923.787429,-592.164754,2442.679609,-10878.556072
923.787749,-814.226536,1036.288319,-10495.508323
923.788069,0.000000,370.102971,-10955.165621
923.788388,-1184.329507,-370.102971,-10418.898773
923.788708,-1628.453072,-888.247130,-9959.241474
923.789028,1406.391290,-518.144159,-11108.384721
923.789348,1332.370696,1184.329507,-9652.803275
923.789667,-296.082377,1258.350101,-10801.946522
923.789987,-2294.638420,1110.308913,-10112.460574
923.790307,-2664.741391,1702.473667,-10725.336972
923.790627,-1554.432478,0.000000,-11031.775171
923.790947,0.000000,-296.082377,-10112.460574
923.791266,666.185348,-1184.329507,-10495.508323
923.791586,-2146.597232,-1924.535449,-10342.289223
923.791906,-3627.009116,-2294.638420,-9193.145976
923.792226,-1998.556043,-1776.494261,-9882.631924
923.792545,-1406.391290,-962.267725,-9959.241474
923.792865,-370.102971,-1036.288319,-9806.022374
923.793185,-296.082377,-1776.494261,-10265.679673
923.793505,-518.144159,-296.082377,-9499.584175
923.793825,666.185348,222.061783,-10112.460574
923.794144,1406.391290,1332.370696,-9193.145976
923.794464,1924.535449,-962.267725,-9576.193725
923.794784,1258.350101,-1258.350101,-10189.070123
923.795104,-1036.288319,-1924.535449,-9269.755526
923.795423,-222.061783,-518.144159,-10342.289223
923.795743,1702.473667,-518.144159,-9576.193725
923.796063,3478.967927,1332.370696,-9882.631924
923.796383,2738.761985,2368.659014,-10725.336972
923.796703,2812.782580,2072.576638,-9499.584175
923.797022,962.267725,1036.288319,-9959.241474
923.797342,2516.700203,-1184.329507,-10112.460574
923.797662,2516.700203,-2220.617826,-9576.193725
923.797982,1332.370696,-1850.514855,-10112.460574
923.798301,1036.288319,-148.041188,-9193.145976
923.798621,2220.617826,1332.370696,-10878.556072
923.798941,2812.782580,1258.350101,-10801.946522
923.799261,1110.308913,666.185348,-10112.460574
923.799581,-296.082377,0.000000,-10418.898773
923.799900,1036.288319,0.000000,-9959.241474
923.800220,3404.947333,-296.082377,-10725.336972
923.800540,4959.379811,370.102971,-10495.508323
923.800860,3552.988522,1184.329507,-10801.946522
923.801179,3256.906145,1480.411884,-10189.070123
923.801499,2368.659014,1924.535449,-10418.898773
923.801819,1110.308913,2516.700203,-10572.117872
923.802139,370.102971,3775.050304,-9959.241474
923.802459,0.000000,1776.494261,-10725.336972
923.802778,-1036.288319,-740.205942,-9882.631924
923.803098,-2368.659014,-2738.761985,-9422.974625
923.803418,-3256.906145,-2516.700203,-9729.412825
923.803738,-1776.494261,-1480.411884,-9729.412825
923.804057,-518.144159,1332.370696,-9806.022374
923.804377,148.041188,3108.864956,-9652.803275
923.804697,592.164754,3627.009116,-9652.803275
923.805017,592.164754,2664.741391,-10265.679673
923.805337,1702.473667,370.102971,-9039.926876
923.805656,1850.514855,-2368.659014,-10265.679673
923.805976,0.000000,-3775.050304,-9652.803275
923.806296,-1184.329507,-1924.535449,-9422.974625
923.806616,-2368.659014,148.041188,-10112.460574
923.806935,-3330.926739,2368.659014,-9039.926876
923.807255,-3108.864956,3997.112087,-10955.165621
923.807575,-2738.761985,2664.741391,-10495.508323
923.807895,-2220.617826,-222.061783,-9729.412825
923.808215,-1406.391290,-962.267725,-9652.803275
923.808534,-740.205942,-1554.432478,-10112.460574
923.808854,-148.041188,-444.123565,-9652.803275
923.809174,-1110.308913,1480.411884,-9959.241474
923.809494,-1110.308913,2368.659014,-10035.851024
923.809813,-74.020594,2738.761985,-10342.289223
923.810133,0.000000,888.247130,-10112.460574
923.810453,1406.391290,0.000000,-10495.508323
923.810773,0.000000,-1110.308913,-9729.412825
923.811093,-518.144159,-888.247130,-10112.460574
923.811412,-592.164754,-1258.350101,-9806.022374
923.811732,-444.123565,0.000000,-9806.022374
923.812052,2072.576638,2146.597232,-10265.679673
923.812372,4145.153275,2886.803174,-10955.165621
923.812691,2738.761985,2590.720797,-10725.336972
923.813011,2368.659014,1628.453072,-10878.556072
923.813331,2220.617826,-296.082377,-9882.631924
923.813651,4737.318029,-1406.391290,-10189.070123
923.813971,3997.112087,-1332.370696,-10725.336972
923.814290,444.123565,-888.247130,-10112.460574
923.814610,-518.144159,1184.329507,-10418.898773
923.814930,0.000000,2442.679609,-9729.412825
923.815250,1998.556043,2590.720797,-10035.851024
923.815569,3478.967927,222.061783,-10955.165621
923.815889,3034.844362,-1480.411884,-9269.755526
923.816209,3330.926739,-2886.803174,-10112.460574
923.816529,4071.132681,-2294.638420,-9039.926876
923.816849,4885.359217,-148.041188,-10035.851024
923.817168,3775.050304,148.041188,-10265.679673
923.817488,1702.473667,888.247130,-9499.584175
923.817808,1998.556043,1924.535449,-10035.851024
923.818128,1554.432478,1628.453072,-10878.556072
923.818447,518.144159,-222.061783,-9652.803275
923.818767,740.205942,-2220.617826,-10418.898773
923.819087,-222.061783,-2812.782580,-8886.707777
923.819407,370.102971,-2294.638420,-9729.412825
923.819727,-74.020594,-518.144159,-10495.508323
923.820046,-814.226536,2146.597232,-9652.803275
923.820366,-2146.597232,3034.844362,-11414.822920
923.820686,-1924.535449,2664.741391,-10189.070123
923.821006,0.000000,444.123565,-10189.070123
923.821325,370.102971,-1258.350101,-10112.460574
923.821645,296.082377,-2146.597232,-9576.193725
923.821965,962.267725,-1554.432478,-10648.727422
923.822285,-1110.308913,0.000000,-10801.946522
923.822605,-1850.514855,-222.061783,-9882.631924
923.822924,-2368.659014,888.247130,-10801.946522
923.823244,-2294.638420,1850.514855,-10189.070123
923.823564,-2960.823768,2738.761985,-11184.994271
923.823884,-3997.112087,1036.288319,-10265.679673
923.824203,-2516.700203,-888.247130,-9959.241474
923.824523,-666.185348,-3182.885551,-10572.117872
923.824843,222.061783,-4145.153275,-9806.022374
923.825163,-296.082377,-2590.720797,-10801.946522
923.825483,-2072.576638,1110.308913,-10112.460574
923.825802,296.082377,4145.153275,-10648.727422
923.826122,1554.432478,4959.379811,-10572.117872
923.826442,222.061783,3849.070898,-10265.679673
923.826762,-370.102971,666.185348,-10418.898773
923.827081,0.000000,-2664.741391,-9039.926876
923.827401,0.000000,-3849.070898,-9806.022374
923.827721,148.041188,-3627.009116,-9806.022374
923.828041,-148.041188,-814.226536,-9346.365076
923.828361,-740.205942,1480.411884,-10265.679673
923.828680,-148.041188,2072.576638,-9806.022374
923.829000,0.000000,2368.659014,-9806.022374
923.829320,888.247130,592.164754,-9882.631924
923.829640,2886.803174,296.082377,-9346.365076
923.829959,5773.606348,-666.185348,-10725.336972
923.830279,4885.359217,-1628.453072,-9346.365076
923.830599,2738.761985,-962.267725,-9882.631924
923.830919,814.226536,370.102971,-9806.022374
923.831239,1924.535449,1776.494261,-9422.974625
923.831558,3256.906145,2442.679609,-10725.336972
923.831878,2368.659014,1628.453072,-9729.412825
923.832198,2664.741391,296.082377,-9576.193725
923.832518,2442.679609,-222.061783,-9959.241474
923.832837,3997.112087,-740.205942,-10342.289223
923.833157,3182.885551,-1110.308913,-10725.336972
923.833477,1036.288319,-370.102971,-10342.289223
923.833797,740.205942,666.185348,-9806.022374
923.834116,666.185348,2812.782580,-10572.117872
923.834436,666.185348,3552.988522,-10725.336972
923.834756,1406.391290,3330.926739,-11031.775171
923.835076,1998.556043,1258.350101,-10418.898773
923.835396,3034.844362,-444.123565,-9652.803275
923.835715,1036.288319,-2146.597232,-10342.289223
923.836035,444.123565,-962.267725,-9882.631924
923.836355,370.102971,518.144159,-10112.460574
923.836675,0.000000,3108.864956,-11108.384721
923.836994,370.102971,3404.947333,-10495.508323
923.837314,296.082377,2368.659014,-10418.898773
923.837634,-518.144159,592.164754,-9729.412825
923.837954,-1850.514855,-592.164754,-10495.508323
923.838274,-2368.659014,-1702.473667,-9346.365076
923.838593,-3701.029710,-2368.659014,-9346.365076
923.838913,-3404.947333,-2220.617826,-9499.584175
923.839233,-2072.576638,-962.267725,-9269.755526
923.839553,-518.144159,74.020594,-9959.241474
923.839872,-1332.370696,814.226536,-9346.365076
923.840192,-2664.741391,962.267725,-10112.460574
923.840512,-2886.803174,222.061783,-9806.022374
923.840832,-1036.288319,0.000000,-9269.755526
923.841152,74.020594,-74.020594,-10418.898773
923.841471,-370.102971,-296.082377,-9806.022374
923.841791,-814.226536,0.000000,-10572.117872
923.842111,-740.205942,0.000000,-10342.289223
923.842431,-1332.370696,1998.556043,-10265.679673
923.842750,-1554.432478,2442.679609,-10418.898773
923.843070,-2146.597232,1776.494261,-9882.631924
923.843390,-962.267725,-222.061783,-10572.117872
923.843710,222.061783,-888.247130,-10189.070123
923.844030,1036.288319,-1258.350101,-10265.679673
923.844349,1258.350101,-1924.535449,-10189.070123
923.844669,-888.247130,-1554.432478,-9499.584175
923.844989,0.000000,-148.041188,-10418.898773
923.845309,1998.556043,370.102971,-11031.775171
923.845628,2886.803174,2220.617826,-10495.508323
923.845948,3034.844362,2664.741391,-11184.994271
923.846268,1702.473667,2738.761985,-10572.117872
923.846588,2294.638420,1110.308913,-10495.508323
923.846908,1924.535449,-1184.329507,-9882.631924
923.847227,3182.885551,-2812.782580,-9193.145976
923.847547,3997.112087,-2368.659014,-9652.803275
923.847867,4071.132681,74.020594,-10418.898773
923.848187,3256.906145,1110.308913,-10342.289223
923.848506,2072.576638,2664.741391,-10112.460574
923.848826,2516.700203,2442.679609,-10035.851024
923.849146,1924.535449,518.144159,-10112.460574
923.849466,1554.432478,-1110.308913,-9729.412825
923.849786,1036.288319,-2220.617826,-9499.584175
923.850105,2812.782580,-1628.453072,-10112.460574
923.850425,3627.009116,666.185348,-9959.241474
923.850745,4737.318029,2368.659014,-10801.946522
923.851065,2664.741391,3256.906145,-10801.946522
923.851384,1850.514855,3108.864956,-10112.460574
923.851704,518.144159,2294.638420,-10265.679673
923.852024,740.205942,0.000000,-9193.145976
923.852344,2220.617826,-1184.329507,-10265.679673
923.852664,740.205942,-2072.576638,-10189.070123
923.852983,-296.082377,-1628.453072,-9806.022374
923.853303,296.082377,296.082377,-10648.727422
923.853623,-370.102971,1776.494261,-10265.679673
923.853943,-518.144159,2072.576638,-10495.508323
923.854263,-2960.823768,1702.473667,-10035.851024
923.854582,-2886.803174,444.123565,-9193.145976
923.854902,-1776.494261,-1480.411884,-9806.022374
923.855222,-740.205942,-3404.947333,-9806.022374
923.855542,444.123565,-3775.050304,-9729.412825
923.855862,444.123565,-1406.391290,-9882.631924
923.856181,-592.164754,3182.885551,-10112.460574
923.856501,-1924.535449,5847.626942,-11184.994271
923.856821,-2294.638420,5477.523971,-10342.289223
923.857141,-962.267725,2146.597232,-10648.727422
923.857461,74.020594,-1184.329507,-9959.241474
923.857781,-1628.453072,-2146.597232,-9806.022374
923.858100,-3182.885551,-2072.576638,-9959.241474
923.858420,-2960.823768,148.041188,-10265.679673
923.858740,-666.185348,1850.514855,-10801.946522
923.859060,0.000000,2812.782580,-10572.117872
923.859380,-1850.514855,1924.535449,-9806.022374
923.859699,-3701.029710,148.041188,-9806.022374
923.860019,-2368.659014,-962.267725,-9576.193725
923.860339,370.102971,-1924.535449,-10648.727422
923.860659,1480.411884,-1258.350101,-9882.631924
923.860979,1332.370696,148.041188,-9422.974625
923.861298,2146.597232,1184.329507,-10418.898773
923.861618,3997.112087,1406.391290,-9806.022374
923.861938,5033.400406,1406.391290,-10648.727422
923.862258,1850.514855,1332.370696,-9576.193725
923.862578,-148.041188,666.185348,-9269.755526
923.862898,-1258.350101,-444.123565,-10342.289223
923.863217,-592.164754,-1628.453072,-9499.584175
923.863537,1258.350101,-1850.514855,-9959.241474
923.863857,2812.782580,-370.102971,-10955.165621
923.864177,3034.844362,0.000000,-9806.022374
923.864497,2812.782580,1332.370696,-10572.117872
923.864816,1110.308913,2442.679609,-9576.193725
923.865136,2220.617826,3775.050304,-10035.851024
923.865456,4145.153275,2738.761985,-10112.460574
923.865776,4515.256246,666.185348,-10495.508323
923.866096,3701.029710,-1258.350101,-10801.946522
923.866415,2516.700203,-1628.453072,-9652.803275
923.866735,2368.659014,148.041188,-10418.898773
923.867055,1184.329507,1998.556043,-10418.898773
923.867375,1258.350101,1850.514855,-10342.289223
923.867695,2072.576638,1702.473667,-10878.556072
923.868015,1406.391290,1332.370696,-10572.117872
923.868334,370.102971,148.041188,-10801.946522
923.868654,222.061783,-1110.308913,-9959.241474
923.868974,518.144159,-1332.370696,-9882.631924
923.869294,1258.350101,-1776.494261,-10265.679673
923.869614,1110.308913,-518.144159,-9652.803275
923.869933,-222.061783,0.000000,-10342.289223
923.870253,-962.267725,1258.350101,-10265.679673
923.870573,-296.082377,1480.411884,-9729.412825
923.870893,-1184.329507,1850.514855,-11491.432470
923.871213,-1184.329507,370.102971,-9346.365076
923.871532,-2960.823768,-2220.617826,-9729.412825
923.871852,-2294.638420,-3701.029710,-9806.022374
923.872172,-1406.391290,-3034.844362,-9269.755526
923.872492,-1184.329507,-296.082377,-10955.165621
923.872812,-962.267725,1850.514855,-9959.241474
923.873132,0.000000,3404.947333,-10572.117872
923.873451,666.185348,3182.885551,-10725.336972
923.873771,-444.123565,1998.556043,-9806.022374
923.874091,-2664.741391,888.247130,-10725.336972
923.874411,-4589.276840,296.082377,-9346.365076
923.874731,-2590.720797,-1998.556043,-10418.898773
923.875050,-296.082377,-2072.576638,-9652.803275
923.875370,0.000000,-2368.659014,-9806.022374
923.875690,-1184.329507,74.020594,-10112.460574
923.876010,-1036.288319,1628.453072,-10342.289223
923.876330,0.000000,2960.823768,-11108.384721
923.876649,0.000000,2664.741391,-10189.070123
923.876969,888.247130,1258.350101,-10035.851024
923.877289,1184.329507,1036.288319,-10955.165621
923.877609,3034.844362,296.082377,-10189.070123
923.877929,3552.988522,296.082377,-10878.556072
923.878249,962.267725,1036.288319,-10572.117872
923.878568,-1110.308913,1850.514855,-9806.022374
923.878888,-1036.288319,2368.659014,-10801.946522
923.879208,0.000000,2294.638420,-9882.631924
923.879528,3478.967927,962.267725,-10189.070123
923.879848,4145.153275,370.102971,-10572.117872
923.880167,3923.091493,-370.102971,-9882.631924
923.880487,1924.535449,-814.226536,-9499.584175
923.880807,1998.556043,-592.164754,-8886.707777
923.881127,3997.112087,-222.061783,-9576.193725
923.881447,4663.297435,740.205942,-10035.851024
923.881766,3108.864956,1480.411884,-9422.974625
923.882086,2886.803174,2146.597232,-10418.898773
923.882406,3701.029710,888.247130,-9116.536426
923.882726,3849.070898,296.082377,-9806.022374
923.883046,1850.514855,-444.123565,-9959.241474
923.883366,-1628.453072,-1036.288319,-9269.755526
923.883685,-1258.350101,-814.226536,-9959.241474
923.884005,666.185348,444.123565,-10112.460574
923.884325,1776.494261,1332.370696,-10418.898773
923.884645,-296.082377,2590.720797,-10725.336972
923.884965,-1406.391290,2442.679609,-10035.851024
923.885284,-814.226536,888.247130,-10495.508323
923.885604,962.267725,-296.082377,-10035.851024
923.885924,296.082377,-666.185348,-10189.070123
923.886244,0.000000,0.000000,-10572.117872
923.886564,-518.144159,1332.370696,-10112.460574
923.886884,1554.432478,3108.864956,-10725.336972
923.887203,222.061783,2368.659014,-10342.289223
923.887523,-1406.391290,0.000000,-10648.727422
923.887843,-2442.679609,-2960.823768,-10495.508323
923.888163,-3478.967927,-2664.741391,-9422.974625
923.888483,-2368.659014,-222.061783,-9882.631924
923.888802,-1406.391290,592.164754,-10112.460574
923.889122,-148.041188,1998.556043,-10189.070123
923.889442,148.041188,1776.494261,-10418.898773
923.889762,222.061783,74.020594,-9193.145976
923.890082,222.061783,-1702.473667,-9959.241474
923.890401,814.226536,-3256.906145,-10112.460574
923.890721,296.082377,-2516.700203,-9422.974625
923.891041,-1184.329507,-148.041188,-10342.289223
923.891361,-2738.761985,2590.720797,-10265.679673
923.891681,-2590.720797,3478.967927,-10112.460574
923.892001,-1776.494261,2368.659014,-10495.508323
923.892320,814.226536,814.226536,-8656.879127
923.892640,814.226536,-592.164754,-10418.898773
923.892960,-666.185348,-2442.679609,-9346.365076
923.893280,0.000000,-3108.864956,-9499.584175
923.893600,2220.617826,-2738.761985,-10189.070123
923.893919,2442.679609,-222.061783,-10189.070123
923.894239,2664.741391,1628.453072,-10495.508323
923.894559,962.267725,3330.926739,-10265.679673
923.894879,-1776.494261,3478.967927,-10648.727422
923.895199,-296.082377,2146.597232,-11414.822920
923.895518,814.226536,-296.082377,-9806.022374
923.895838,518.144159,-3330.926739,-10035.851024
923.896158,-296.082377,-4589.276840,-9576.193725
923.896478,0.000000,-3997.112087,-9499.584175
923.896798,1258.350101,-2738.761985,-9729.412825
923.897118,3108.864956,1332.370696,-10112.460574
923.897437,3256.906145,3923.091493,-11031.775171
923.897757,2368.659014,4219.173869,-10342.289223
923.898077,2146.597232,2812.782580,-10572.117872
923.898397,2368.659014,740.205942,-10418.898773
923.898717,3552.988522,-1332.370696,-10035.851024
923.899036,3775.050304,-2220.617826,-10265.679673
923.899356,1776.494261,-2368.659014,-9499.584175
923.899676,1332.370696,-1036.288319,-9806.022374
923.899996,1628.453072,2220.617826,-10112.460574
923.900316,2294.638420,3034.844362,-9882.631924
923.900635,1480.411884,2368.659014,-10189.070123
923.900955,-666.185348,0.000000,-9729.412825
923.901275,-1406.391290,-1850.514855,-9499.584175
923.901595,1554.432478,-2294.638420,-9346.365076
923.901915,3997.112087,222.061783,-9882.631924
923.902235,2886.803174,1998.556043,-10725.336972
923.902554,1332.370696,3182.885551,-10112.460574
923.902874,370.102971,2590.720797,-10342.289223
923.903194,0.000000,1776.494261,-10035.851024
923.903514,-888.247130,962.267725,-10265.679673
923.903834,296.082377,-888.247130,-11261.603821
923.904153,296.082377,-1628.453072,-9729.412825
923.904473,-2072.576638,-1110.308913,-9806.022374
923.904793,-1702.473667,666.185348,-9806.022374
923.905113,-1850.514855,2368.659014,-9116.536426
923.905433,-1628.453072,3034.844362,-10801.946522
923.905752,-1628.453072,2664.741391,-9882.631924
923.906072,-1480.411884,1332.370696,-10418.898773
923.906392,0.000000,0.000000,-9882.631924
923.906712,2294.638420,-148.041188,-9959.241474
923.907032,3256.906145,-888.247130,-10801.946522
923.907352,1332.370696,962.267725,-9882.631924
923.907671,-888.247130,2516.700203,-10112.460574
923.907991,-2590.720797,3330.926739,-11568.042020
923.908311,148.041188,2368.659014,-10035.851024
923.908631,1258.350101,1480.411884,-11031.775171
923.908951,0.000000,-148.041188,-9806.022374
923.909270,-2886.803174,-444.123565,-9346.365076
923.909590,-2294.638420,74.020594,-9729.412825
923.909910,0.000000,888.247130,-9499.584175
923.910230,1628.453072,1924.535449,-11184.994271
923.910550,1480.411884,1332.370696,-9499.584175
923.910869,814.226536,444.123565,-10265.679673
923.911189,2516.700203,-296.082377,-9959.241474
923.911509,2960.823768,962.267725,-10112.460574
923.911829,2442.679609,2220.617826,-10648.727422
923.912149,1554.432478,2146.597232,-10189.070123
923.912469,666.185348,1184.329507,-9806.022374
923.912788,0.000000,74.020594,-9806.022374
923.913108,-444.123565,0.000000,-10189.070123
923.913428,592.164754,0.000000,-10495.508323
923.913748,592.164754,-148.041188,-9652.803275
923.914068,666.185348,222.061783,-9806.022374
923.914387,1184.329507,-370.102971,-9576.193725
923.914707,962.267725,-1184.329507,-9806.022374
923.915027,1554.432478,-222.061783,-9652.803275
923.915347,1850.514855,222.061783,-9729.412825
923.915667,1258.350101,1850.514855,-10112.460574
923.915986,1332.370696,814.226536,-10801.946522
923.916306,962.267725,-962.267725,-10035.851024
923.916626,1332.370696,-1406.391290,-10648.727422
923.916946,1110.308913,-1924.535449,-9882.631924
923.917266,1998.556043,-1184.329507,-10112.460574
923.917586,0.000000,-1702.473667,-10265.679673
923.917905,-2368.659014,-1110.308913,-8503.660028
923.918225,-1406.391290,0.000000,-10035.851024
923.918545,-444.123565,-962.267725,-10342.289223
923.918865,-148.041188,-1480.411884,-9959.241474
923.919185,-1850.514855,-592.164754,-10418.898773
923.919504,-1998.556043,1850.514855,-10725.336972
923.919824,-1850.514855,2590.720797,-10725.336972
923.920144,-444.123565,2072.576638,-10648.727422
923.920464,-222.061783,-592.164754,-10572.117872
923.920784,740.205942,-2664.741391,-11874.480219
923.921104,-148.041188,-2368.659014,-10572.117872
923.921423,740.205942,-814.226536,-10418.898773
923.921743,-370.102971,444.123565,-10648.727422
923.922063,-222.061783,666.185348,-9346.365076
923.922383,1554.432478,0.000000,-9959.241474
923.922703,814.226536,-296.082377,-10342.289223
923.923022,0.000000,0.000000,-10495.508323
923.923342,-370.102971,0.000000,-10801.946522
923.923662,1110.308913,-1184.329507,-10189.070123
923.923982,1110.308913,-1924.535449,-9806.022374
923.924302,1258.350101,-1702.473667,-9729.412825
923.924621,1110.308913,-370.102971,-9959.241474
923.924941,1332.370696,1480.411884,-9652.803275
923.925261,3256.906145,3701.029710,-10572.117872
923.925581,2368.659014,2960.823768,-11031.775171
923.925901,518.144159,1036.288319,-9652.803275
923.926221,222.061783,-1554.432478,-9882.631924
923.926540,962.267725,-1184.329507,-9806.022374
923.926860,1702.473667,-222.061783,-9576.193725
923.927180,148.041188,1110.308913,-9806.022374
923.927500,370.102971,888.247130,-9116.536426
923.927820,1332.370696,592.164754,-9959.241474
923.928139,1480.411884,-222.061783,-10189.070123
923.928459,1998.556043,-814.226536,-9652.803275
923.928779,444.123565,444.123565,-10189.070123
923.929099,1184.329507,2220.617826,-9652.803275
923.929419,2812.782580,2886.803174,-10648.727422
923.929738,3330.926739,2368.659014,-10418.898773
923.930058,1110.308913,1628.453072,-9806.022374
923.930378,296.082377,1258.350101,-9959.241474
923.930698,1332.370696,1480.411884,-9806.022374
923.931018,2590.720797,1110.308913,-10878.556072
923.931338,888.247130,-370.102971,-10265.679673
923.931657,-2368.659014,-1036.288319,-9576.193725
923.931977,-2886.803174,-518.144159,-9806.022374
923.932297,-814.226536,0.000000,-9729.412825
923.932617,2368.659014,2146.597232,-11261.603821
923.932937,2812.782580,3552.988522,-11184.994271
923.933256,666.185348,3108.864956,-10112.460574
923.933576,148.041188,2960.823768,-10495.508323
923.933896,0.000000,1258.350101,-10342.289223
923.934216,666.185348,222.061783,-10495.508323
923.934536,592.164754,0.000000,-10189.070123
923.934855,-444.123565,-74.020594,-9806.022374
923.935175,-1776.494261,0.000000,-9269.755526
923.935495,-1406.391290,-296.082377,-9269.755526
923.935815,-444.123565,0.000000,-9806.022374
923.936135,-518.144159,296.082377,-9882.631924
923.936455,-592.164754,148.041188,-9576.193725
923.936774,-1036.288319,888.247130,-10112.460574
923.937094,-74.020594,74.020594,-9346.365076
923.937414,1110.308913,0.000000,-10265.679673
923.937734,592.164754,1554.432478,-9882.631924
923.938054,0.000000,1702.473667,-9959.241474
923.938373,-370.102971,2146.597232,-10495.508323
923.938693,74.020594,0.000000,-9882.631924
923.939013,148.041188,-1628.453072,-10495.508323
923.939333,-296.082377,-2442.679609,-10342.289223
923.939653,-2516.700203,-1628.453072,-9269.755526
923.939972,-3034.844362,814.226536,-10648.727422
923.940292,-1258.350101,1924.535449,-10189.070123
923.940612,2664.741391,1998.556043,-11031.775171
923.940932,3552.988522,370.102971,-10955.165621
923.941252,518.144159,-1110.308913,-9499.584175
923.941572,0.000000,-1406.391290,-10342.289223
923.941891,1110.308913,-592.164754,-10189.070123
923.942211,1924.535449,296.082377,-10572.117872
923.942531,814.226536,518.144159,-9959.241474
923.942851,-1406.391290,-962.267725,-9576.193725
923.943171,740.205942,-1332.370696,-9959.241474
923.943490,1776.494261,-1924.535449,-10112.460574
923.943810,3330.926739,-740.205942,-10495.508323
923.944130,2960.823768,888.247130,-10725.336972
923.944450,1702.473667,888.247130,-9806.022374
923.944770,1628.453072,-148.041188,-10035.851024
923.945089,1554.432478,-1332.370696,-9116.536426
923.945409,2072.576638,-1702.473667,-9806.022374
923.945729,1850.514855,-962.267725,-10495.508323
923.946049,1258.350101,-1036.288319,-9116.536426
923.946369,2146.597232,-1036.288319,-10418.898773
923.946689,2812.782580,-1850.514855,-10265.679673
923.947008,2368.659014,-1258.350101,-9193.145976
923.947328,592.164754,-222.061783,-10265.679673
923.947648,444.123565,3256.906145,-9806.022374
923.947968,2886.803174,2812.782580,-11491.432470
923.948288,4293.194464,1998.556043,-10572.117872
923.948607,5699.585753,-74.020594,-11338.213370
923.948927,1554.432478,-1184.329507,-10801.946522
923.949247,-1554.432478,-2072.576638,-9806.022374
923.949567,-1924.535449,-592.164754,-10035.851024
923.949887,1258.350101,1258.350101,-11031.775171
923.950207,1480.411884,1924.535449,-10572.117872
923.950526,-1924.535449,-222.061783,-11338.213370
923.950846,-3404.947333,-1406.391290,-10112.460574
923.951166,-4219.173869,-888.247130,-9576.193725
923.951486,-2516.700203,814.226536,-10342.289223
923.951806,296.082377,2812.782580,-10112.460574
923.952125,592.164754,2590.720797,-10189.070123
923.952445,-222.061783,0.000000,-9652.803275
923.952765,1036.288319,-2516.700203,-9346.365076
923.953085,518.144159,-1924.535449,-9806.022374
923.953405,-1406.391290,740.205942,-9729.412825
923.953724,-2516.700203,3108.864956,-9729.412825
923.954044,-2664.741391,3552.988522,-9959.241474
923.954364,-1850.514855,1332.370696,-9576.193725
923.954684,-1184.329507,-1258.350101,-9346.365076
923.955004,-1110.308913,-2516.700203,-9116.536426
923.955324,-1036.288319,-2442.679609,-9652.803275
923.955643,-148.041188,-740.205942,-9729.412825
923.955963,740.205942,1850.514855,-9652.803275
923.956283,-148.041188,2812.782580,-10112.460574
923.956603,-1184.329507,3108.864956,-10189.070123
923.956923,-814.226536,1924.535449,-10495.508323
923.957243,-148.041188,1850.514855,-9806.022374
923.957562,74.020594,444.123565,-10112.460574
923.957882,2516.700203,-370.102971,-10265.679673
923.958202,4219.173869,-1480.411884,-10801.946522
923.958522,3034.844362,0.000000,-10725.336972
923.958842,1554.432478,1998.556043,-10035.851024
923.959161,444.123565,3404.947333,-10495.508323
923.959481,1998.556043,3997.112087,-10112.460574
923.959801,2960.823768,3182.885551,-10572.117872
923.960121,2146.597232,518.144159,-10801.946522
923.960441,518.144159,-2368.659014,-9576.193725
923.960761,888.247130,-3256.906145,-9959.241474
923.961080,1776.494261,-1554.432478,-9882.631924
923.961400,4515.256246,814.226536,-10189.070123
923.961720,3997.112087,3256.906145,-10648.727422
923.962040,814.226536,3404.947333,-9499.584175
923.962360,-444.123565,2812.782580,-10265.679673
923.962680,1036.288319,1406.391290,-9422.974625
923.962999,4219.173869,-1110.308913,-10265.679673
923.963319,3997.112087,-2072.576638,-9806.022374
923.963639,2146.597232,-2368.659014,-9193.145976
923.963959,1554.432478,-1924.535449,-9729.412825
923.964279,74.020594,-666.185348,-9346.365076
923.964598,148.041188,1850.514855,-10035.851024
923.964918,2368.659014,3997.112087,-10495.508323
923.965238,740.205942,3182.885551,-10495.508323
923.965558,-2664.741391,962.267725,-10495.508323
923.965878,-2960.823768,-2590.720797,-9806.022374
923.966198,0.000000,-4737.318029,-9269.755526
923.966517,666.185348,-3923.091493,-10265.679673
923.966837,-1184.329507,-1554.432478,-10035.851024
923.967157,-3552.988522,0.000000,-9806.022374
923.967477,-2368.659014,2220.617826,-10189.070123
923.967797,-1258.350101,3478.967927,-10878.556072
923.968116,370.102971,1036.288319,-10801.946522
923.968436,1480.411884,-666.185348,-10418.898773
923.968756,-518.144159,-1332.370696,-10342.289223
923.969076,-1036.288319,-518.144159,-10418.898773
923.969396,-1628.453072,962.267725,-10878.556072
923.969716,-2368.659014,-296.082377,-10495.508323
923.970035,-4219.173869,-962.267725,-9346.365076
923.970355,-4219.173869,0.000000,-10495.508323
923.970675,-3182.885551,296.082377,-9576.193725
923.970995,1702.473667,592.164754,-10725.336972
923.971315,2812.782580,-370.102971,-10418.898773
923.971635,1628.453072,-962.267725,-10189.070123
923.971954,-962.267725,1184.329507,-10112.460574
923.972274,-592.164754,1258.350101,-10035.851024
923.972594,1776.494261,1702.473667,-9959.241474
923.972914,1258.350101,2442.679609,-10648.727422
923.973234,-1332.370696,-148.041188,-9806.022374
923.973553,-1332.370696,-2294.638420,-9576.193725
923.973873,0.000000,-2738.761985,-9039.926876
923.974193,2220.617826,-2738.761985,-9729.412825
923.974513,2220.617826,-148.041188,-9806.022374
923.974833,148.041188,2738.761985,-9652.803275
923.975153,-148.041188,3478.967927,-9806.022374
923.975472,4071.132681,1850.514855,-9499.584175
923.975792,5921.647536,1480.411884,-10189.070123
923.976112,4811.338623,0.000000,-10955.165621
923.976432,2294.638420,-740.205942,-9806.022374
923.976752,1776.494261,-1258.350101,-9652.803275
923.977072,3404.947333,-222.061783,-10265.679673
923.977391,3256.906145,-296.082377,-9806.022374
923.977711,2738.761985,1332.370696,-11108.384721
923.978031,0.000000,2516.700203,-10801.946522
923.978351,-888.247130,2664.741391,-10495.508323
923.978671,370.102971,2294.638420,-10801.946522
923.978990,2146.597232,1850.514855,-10418.898773
923.979310,1998.556043,0.000000,-10725.336972
923.979630,2294.638420,-222.061783,-10955.165621
923.979950,3404.947333,222.061783,-10342.289223
923.980270,2442.679609,222.061783,-10648.727422
923.980590,2590.720797,2368.659014,-12027.699319
923.980909,5181.441594,3256.906145,-11951.089769
923.981229,2738.761985,3182.885551,-10265.679673
923.981549,-1702.473667,1332.370696,-10572.117872
923.981869,-1628.453072,444.123565,-9422.974625
923.982189,-444.123565,-370.102971,-10955.165621
923.982508,370.102971,0.000000,-10495.508323
923.982828,-1110.308913,-222.061783,-9576.193725
923.983148,-888.247130,148.041188,-9959.241474
923.983468,666.185348,1480.411884,-9346.365076
923.983788,1480.411884,1924.535449,-9882.631924
923.984108,0.000000,2072.576638,-9652.803275
923.984427,-3627.009116,0.000000,-8580.269578
923.984747,-4145.153275,-1036.288319,-9422.974625
923.985067,-888.247130,-2886.803174,-8810.098227
923.985387,1480.411884,-2442.679609,-8656.879127
923.985707,1110.308913,-1924.535449,-9729.412825
923.986027,-1258.350101,-444.123565,-9959.241474
923.986346,-2294.638420,888.247130,-8886.707777
923.986666,-4441.235652,1702.473667,-9806.022374
923.986986,-4071.132681,2368.659014,-9806.022374
923.987306,-3701.029710,2368.659014,-10878.556072
923.987626,-2516.700203,740.205942,-10035.851024
923.987945,-814.226536,-888.247130,-10725.336972
923.988265,-370.102971,-2886.803174,-10189.070123
923.988585,296.082377,-1850.514855,-9959.241474
923.988905,-148.041188,666.185348,-11108.384721
923.989225,0.000000,1924.535449,-10418.898773
923.989545,1554.432478,3108.864956,-11184.994271
923.989864,1332.370696,1702.473667,-11031.775171
923.990184,1850.514855,518.144159,-11184.994271
923.990504,0.000000,370.102971,-10725.336972
923.990824,-592.164754,0.000000,-10342.289223
923.991144,-444.123565,1924.535449,-10495.508323
923.991464,1776.494261,2294.638420,-10955.165621
923.991783,1110.308913,740.205942,-9882.631924
923.992103,2664.741391,518.144159,-10725.336972
923.992423,1406.391290,-1258.350101,-10265.679673
923.992743,962.267725,-1628.453072,-9959.241474
923.993063,518.144159,-444.123565,-9269.755526
923.993382,2294.638420,148.041188,-9959.241474
923.993702,4737.318029,370.102971,-9652.803275
923.994022,4589.276840,-814.226536,-9576.193725
923.994342,3997.112087,-1480.411884,-9959.241474
923.994662,2960.823768,-1110.308913,-9193.145976
923.994982,2886.803174,518.144159,-9806.022374
923.995301,3997.112087,296.082377,-10035.851024
923.995621,2368.659014,-148.041188,-9499.584175
923.995941,0.000000,-1332.370696,-9652.803275
923.996261,-888.247130,-2294.638420,-9729.412825
923.996581,1850.514855,-1998.556043,-9729.412825
923.996900,3478.967927,74.020594,-10725.336972
923.997220,1110.308913,296.082377,-10572.117872
923.997540,0.000000,370.102971,-11338.213370
923.997860,-1702.473667,74.020594,-10418.898773
923.998180,-2368.659014,-296.082377,-9729.412825
923.998500,0.000000,-1406.391290,-10418.898773
923.998819,814.226536,0.000000,-10725.336972
923.999139,296.082377,592.164754,-10189.070123
923.999459,962.267725,-296.082377,-10265.679673
923.999779,1776.494261,0.000000,-10955.165621
924.000099,2368.659014,1110.308913,-11184.994271
924.000419,0.000000,2368.659014,-11108.384721
924.000738,-1554.432478,3108.864956,-10648.727422
924.001058,-3849.070898,3034.844362,-10418.898773
924.001378,-2220.617826,1480.411884,-10342.289223
924.001698,-296.082377,-962.267725,-10035.851024
924.002018,-296.082377,-962.267725,-9806.022374
924.002337,0.000000,-740.205942,-10035.851024
924.002657,-1184.329507,74.020594,-9652.803275
924.002977,-1776.494261,1702.473667,-9576.193725
924.003297,-2294.638420,3034.844362,-9882.631924
924.003617,-1702.473667,1924.535449,-9729.412825
924.003937,-814.226536,-814.226536,-9652.803275
924.004256,518.144159,-1332.370696,-9116.536426
924.004576,1332.370696,-1036.288319,-9193.145976
924.004896,1628.453072,370.102971,-9652.803275
924.005216,888.247130,888.247130,-9269.755526
924.005536,1258.350101,1036.288319,-9806.022374
924.005856,222.061783,1776.494261,-9652.803275
924.006175,888.247130,2368.659014,-10112.460574
924.006495,1850.514855,444.123565,-10035.851024
924.006815,740.205942,592.164754,-10648.727422
924.007135,-1184.329507,592.164754,-9882.631924
924.007455,-370.102971,1036.288319,-10265.679673
924.007774,1184.329507,1702.473667,-9729.412825
924.008094,2072.576638,2220.617826,-11184.994271
924.008414,222.061783,1184.329507,-10418.898773
924.008734,-296.082377,-370.102971,-10495.508323
924.009054,1110.308913,-740.205942,-9959.241474
924.009374,3182.885551,-1184.329507,-10112.460574
924.009693,3108.864956,0.000000,-10648.727422
924.010013,1628.453072,2664.741391,-10572.117872
924.010333,1776.494261,3701.029710,-10801.946522
924.010653,2146.597232,3552.988522,-10418.898773
924.010973,2220.617826,2368.659014,-10342.289223
924.011292,4145.153275,0.000000,-10189.070123
924.011612,2886.803174,-888.247130,-10572.117872
924.011932,1480.411884,-888.247130,-10418.898773
924.012252,-1332.370696,-1554.432478,-9729.412825
924.012572,-1184.329507,-740.205942,-9346.365076
924.012892,592.164754,1184.329507,-9806.022374
924.013211,962.267725,1036.288319,-9959.241474
924.013531,1554.432478,0.000000,-10189.070123
924.013851,74.020594,-1332.370696,-9652.803275
924.014171,2072.576638,-1110.308913,-9806.022374
924.014491,2738.761985,-888.247130,-10189.070123
924.014811,0.000000,1554.432478,-9422.974625
924.015130,-1776.494261,2368.659014,-10265.679673
924.015450,-1036.288319,296.082377,-10035.851024
924.015770,74.020594,-740.205942,-9806.022374
924.016090,-1776.494261,-962.267725,-9882.631924
924.016410,-3552.988522,-1406.391290,-9806.022374
924.016729,-2812.782580,-592.164754,-9422.974625
924.017049,-740.205942,-666.185348,-10112.460574
924.017369,-370.102971,222.061783,-9499.584175
924.017689,-1776.494261,-518.144159,-10265.679673
924.018009,-1998.556043,-1924.535449,-9652.803275
924.018329,-1110.308913,-1776.494261,-9422.974625
924.018648,-814.226536,-1258.350101,-9959.241474
924.018968,1184.329507,296.082377,-9729.412825
924.019288,3404.947333,444.123565,-10572.117872
924.019608,2442.679609,1184.329507,-10418.898773
924.019928,0.000000,3034.844362,-10801.946522
924.020248,-1258.350101,3034.844362,-10725.336972
924.020567,-222.061783,2516.700203,-11338.213370
924.020887,-1110.308913,-740.205942,-9729.412825
924.021207,-592.164754,-2664.741391,-10648.727422
924.021527,-1406.391290,-3627.009116,-9652.803275
924.021847,962.267725,-2146.597232,-9959.241474
924.022166,592.164754,1184.329507,-10189.070123
924.022486,1702.473667,4367.215058,-11031.775171
924.022806,3627.009116,6217.729913,-11108.384721
924.023126,5107.421000,4145.153275,-10572.117872
924.023446,4663.297435,666.185348,-10112.460574
924.023766,2146.597232,-3182.885551,-9652.803275
924.024085,1258.350101,-3404.947333,-9422.974625
924.024405,814.226536,-888.247130,-10265.679673
924.024725,1036.288319,1332.370696,-9729.412825
924.025045,1776.494261,3627.009116,-10189.070123
924.025365,2368.659014,3552.988522,-10342.289223
924.025684,2664.741391,1480.411884,-10035.851024
924.026004,-1036.288319,0.000000,-9499.584175
924.026324,-1110.308913,-2294.638420,-9039.926876
924.026644,1332.370696,-2664.741391,-9422.974625
924.026964,3182.885551,-962.267725,-9652.803275
924.027284,3034.844362,222.061783,-9652.803275
924.027603,1110.308913,1554.432478,-9882.631924
924.027923,592.164754,2886.803174,-9806.022374
924.028243,1332.370696,3478.967927,-10725.336972
924.028563,2442.679609,1998.556043,-10342.289223
924.028883,2072.576638,296.082377,-9806.022374
924.029203,-1998.556043,-1184.329507,-10342.289223
924.029522,-1184.329507,-3182.885551,-9729.412825
924.029842,-1554.432478,-2442.679609,-9806.022374
924.030162,-3256.906145,-1036.288319,-10189.070123
924.030482,-1924.535449,1776.494261,-10189.070123
924.030802,-3108.864956,2368.659014,-10572.117872
924.031121,1406.391290,2072.576638,-10801.946522
924.031441,814.226536,814.226536,-10035.851024
924.031761,-3182.885551,-962.267725,-10189.070123
924.032081,-1628.453072,0.000000,-10265.679673
924.032401,444.123565,-444.123565,-10648.727422
924.032721,370.102971,592.164754,-9652.803275
924.033040,0.000000,740.205942,-10725.336972
924.033360,-1850.514855,444.123565,-10112.460574
924.033680,-2368.659014,296.082377,-9806.022374
924.034000,-1110.308913,814.226536,-10955.165621
924.034320,-1776.494261,740.205942,-9729.412825
924.034640,-2368.659014,-666.185348,-9729.412825
924.034959,-2146.597232,-296.082377,-9499.584175
924.035279,-1258.350101,-1480.411884,-9422.974625
924.035599,296.082377,-962.267725,-10342.289223
924.035919,1702.473667,-962.267725,-9959.241474
924.036239,3849.070898,592.164754,-9882.631924
924.036558,2294.638420,2664.741391,-10112.460574
924.036878,1776.494261,2812.782580,-10572.117872
924.037198,2590.720797,1998.556043,-10572.117872
924.037518,1776.494261,0.000000,-10112.460574
924.037838,1850.514855,-518.144159,-10112.460574
924.038158,222.061783,-222.061783,-10189.070123
924.038477,0.000000,-1332.370696,-10418.898773
924.038797,0.000000,-1998.556043,-9806.022374
924.039117,0.000000,-1258.350101,-9422.974625
924.039437,0.000000,370.102971,-10265.679673
924.039757,1702.473667,592.164754,-10035.851024
924.040076,3627.009116,814.226536,-10495.508323
924.040396,4293.194464,1554.432478,-10725.336972
924.040716,3330.926739,814.226536,-10495.508323
924.041036,1628.453072,-444.123565,-10112.460574
924.041356,1258.350101,370.102971,-10495.508323
924.041676,2516.700203,1776.494261,-11644.651570
924.041995,3256.906145,1850.514855,-10189.070123
924.042315,2368.659014,2294.638420,-10572.117872
924.042635,-444.123565,0.000000,-9652.803275
924.042955,740.205942,-1850.514855,-9959.241474
924.043275,1776.494261,-2146.597232,-10418.898773
924.043595,1776.494261,-1036.288319,-10265.679673
924.043914,-370.102971,0.000000,-9806.022374
924.044234,222.061783,1628.453072,-9806.022374
924.044554,1924.535449,1850.514855,-10418.898773
924.044874,3256.906145,1628.453072,-10035.851024
924.045194,2368.659014,1776.494261,-10572.117872
924.045513,888.247130,-370.102971,-10035.851024
924.045833,296.082377,740.205942,-10189.070123
924.046153,296.082377,1258.350101,-10572.117872
924.046473,-370.102971,-518.144159,-9882.631924
924.046793,-2072.576638,-814.226536,-10112.460574
924.047113,-3701.029710,-962.267725,-9806.022374
924.047432,-666.185348,-370.102971,-9576.193725
924.047752,-296.082377,1480.411884,-10265.679673
924.048072,-2146.597232,888.247130,-10112.460574
924.048392,-1850.514855,0.000000,-9652.803275
924.048712,-2368.659014,-1184.329507,-9806.022374
924.049032,-74.020594,0.000000,-9959.241474
924.049351,-222.061783,740.205942,-10189.070123
924.049671,-2146.597232,370.102971,-9499.584175
924.049991,-2294.638420,518.144159,-9806.022374
924.050311,-592.164754,1332.370696,-8963.317327
924.050631,-1184.329507,-370.102971,-9959.241474
924.050950,444.123565,-1406.391290,-9806.022374
924.051270,-296.082377,-2072.576638,-9269.755526
924.051590,444.123565,-666.185348,-10418.898773
924.051910,222.061783,814.226536,-9269.755526
924.052230,-518.144159,2886.803174,-10648.727422
924.052550,-1702.473667,1998.556043,-9806.022374
924.052869,592.164754,3330.926739,-10648.727422
924.053189,1184.329507,1628.453072,-10418.898773
924.053509,-222.061783,-666.185348,-10801.946522
924.053829,-444.123565,-1998.556043,-9576.193725
924.054149,296.082377,-3404.947333,-9652.803275
924.054468,2368.659014,-592.164754,-10572.117872
924.054788,2368.659014,814.226536,-10878.556072
924.055108,1184.329507,5181.441594,-10572.117872
924.055428,962.267725,5773.606348,-10265.679673
924.055748,3997.112087,3997.112087,-11031.775171
924.056068,5033.400406,74.020594,-10342.289223
924.056388,3404.947333,-3034.844362,-10572.117872
924.056708,814.226536,-4959.379811,-9346.365076
924.057028,1480.411884,-2442.679609,-10035.851024
924.057348,1036.288319,518.144159,-9882.631924
924.057668,1776.494261,2516.700203,-10495.508323
924.057988,1628.453072,2368.659014,-10189.070123
924.058308,1406.391290,2294.638420,-10495.508323
924.058628,1702.473667,666.185348,-10265.679673
924.058948,1258.350101,-1258.350101,-10112.460574
924.059268,962.267725,-1776.494261,-9806.022374
924.059588,740.205942,-2442.679609,-9576.193725
924.059908,666.185348,-1110.308913,-9806.022374
924.060228,1776.494261,-518.144159,-9882.631924
924.060548,1924.535449,-888.247130,-9806.022374
924.060868,1850.514855,740.205942,-9806.022374
924.061188,814.226536,2812.782580,-10801.946522
924.061508,222.061783,2368.659014,-9959.241474
924.061828,0.000000,-222.061783,-10189.070123
924.062148,-592.164754,-2294.638420,-9806.022374
924.062468,-592.164754,-3775.050304,-9806.022374
924.062788,0.000000,-2442.679609,-9806.022374
924.063108,-1258.350101,0.000000,-9959.241474
924.063428,-3404.947333,2146.597232,-9959.241474
924.063748,-3849.070898,3923.091493,-10495.508323
924.064068,-2146.597232,1554.432478,-10189.070123
924.064387,592.164754,0.000000,-10342.289223
924.064707,-1406.391290,-1776.494261,-9882.631924
924.065027,-3108.864956,-1702.473667,-10035.851024
924.065347,-1850.514855,-1628.453072,-10035.851024
924.065667,222.061783,-1036.288319,-9959.241474
924.065987,2664.741391,444.123565,-10648.727422
924.066307,814.226536,1554.432478,-10035.851024
924.066627,-444.123565,4071.132681,-10189.070123
924.066947,370.102971,3627.009116,-10495.508323
924.067267,1332.370696,3108.864956,-10495.508323
924.067587,148.041188,370.102971,-10342.289223
924.067907,-2072.576638,-4071.132681,-9576.193725
924.068227,-3182.885551,-3775.050304,-8963.317327
924.068547,-2146.597232,-1924.535449,-9576.193725
924.068867,-296.082377,2368.659014,-9882.631924
924.069187,2664.741391,4441.235652,-10801.946522
924.069507,888.247130,3997.112087,-10725.336972
924.069827,0.000000,1258.350101,-9576.193725
924.070147,1628.453072,592.164754,-10495.508323
924.070467,2072.576638,-814.226536,-9499.584175
924.070787,4071.132681,0.000000,-10342.289223
924.071107,4145.153275,1184.329507,-10189.070123
924.071427,3997.112087,222.061783,-10035.851024
924.071747,3478.967927,296.082377,-10189.070123
924.072067,2294.638420,1998.556043,-10418.898773
924.072387,1184.329507,2146.597232,-10342.289223
924.072707,1184.329507,2886.803174,-10112.460574
924.073027,962.267725,1110.308913,-8886.707777
924.073347,814.226536,-2294.638420,-9806.022374
924.073667,962.267725,-1628.453072,-9652.803275
924.073987,1628.453072,-518.144159,-10265.679673
924.074307,2738.761985,962.267725,-10342.289223
924.074627,3182.885551,2960.823768,-9652.803275
924.074947,1924.535449,2368.659014,-10725.336972
924.075267,1776.494261,1406.391290,-9959.241474
924.075587,3404.947333,962.267725,-10112.460574
924.075907,1850.514855,2146.597232,-10342.289223
924.076227,1850.514855,1036.288319,-9882.631924
924.076547,814.226536,-296.082377,-10035.851024
924.076867,296.082377,-2072.576638,-9806.022374
924.077187,444.123565,-1184.329507,-9346.365076
924.077507,-2220.617826,-1776.494261,-9652.803275
924.077827,-1554.432478,-740.205942,-9652.803275
924.078147,-1924.535449,962.267725,-9806.022374
924.078467,0.000000,1184.329507,-10495.508323
924.078787,-296.082377,0.000000,-9882.631924
924.079106,-2294.638420,-1850.514855,-9422.974625
924.079426,-3404.947333,-2220.617826,-9806.022374
924.079746,-962.267725,-1184.329507,-10112.460574
924.080066,0.000000,148.041188,-10495.508323
924.080386,-666.185348,814.226536,-10801.946522
924.080706,-1702.473667,1258.350101,-11031.775171
924.081026,-1850.514855,-296.082377,-9959.241474
924.081346,-1998.556043,592.164754,-10342.289223
924.081666,-962.267725,370.102971,-10189.070123
924.081986,-2516.700203,-1110.308913,-9729.412825
924.082306,-2960.823768,-1998.556043,-10035.851024
924.082626,-1776.494261,-2664.741391,-9576.193725
924.082946,-222.061783,-3701.029710,-9422.974625
924.083266,1776.494261,-1554.432478,-10342.289223
924.083586,222.061783,-370.102971,-9269.755526
924.083906,-370.102971,1702.473667,-9882.631924
924.084226,-518.144159,2368.659014,-10418.898773
924.084546,1406.391290,1480.411884,-9806.022374
924.084866,1258.350101,-1036.288319,-9576.193725
924.085186,1924.535449,-592.164754,-9806.022374
924.085506,1924.535449,0.000000,-10955.165621
924.085826,1776.494261,666.185348,-10112.460574
924.086146,1702.473667,666.185348,-9576.193725
924.086466,1554.432478,444.123565,-9959.241474
924.086786,2072.576638,-296.082377,-9806.022374
924.087106,1406.391290,-1184.329507,-9882.631924
924.087426,518.144159,962.267725,-10035.851024
924.087746,1776.494261,1998.556043,-10648.727422
924.088066,2960.823768,814.226536,-10725.336972
924.088386,4071.132681,370.102971,-10648.727422
924.088706,2812.782580,-592.164754,-10342.289223
924.089026,3478.967927,814.226536,-11108.384721
924.089346,2442.679609,3034.844362,-10265.679673
924.089666,3256.906145,3923.091493,-11184.994271
924.089986,3552.988522,1628.453072,-11031.775171
924.090306,444.123565,-666.185348,-11338.213370
924.090626,-1776.494261,-2664.741391,-9729.412825
924.090946,444.123565,-2368.659014,-9806.022374
924.091266,3256.906145,-518.144159,-9499.584175
924.091586,4515.256246,2738.761985,-10878.556072
924.091906,1776.494261,4737.318029,-10189.070123
924.092226,0.000000,4219.173869,-9652.803275
924.092546,148.041188,1480.411884,-10342.289223
924.092866,-296.082377,-1776.494261,-10112.460574
924.093186,-148.041188,-1850.514855,-9346.365076
924.093505,-666.185348,592.164754,-9269.755526
924.093825,-296.082377,2812.782580,-9499.584175
924.094145,962.267725,3330.926739,-9882.631924
924.094465,740.205942,1776.494261,-9959.241474
924.094785,-1702.473667,-1628.453072,-9116.536426
924.095105,-3330.926739,-4441.235652,-9499.584175
924.095425,-4293.194464,-3627.009116,-8503.660028
924.095745,-3923.091493,0.000000,-9959.241474
924.096065,-3182.885551,1332.370696,-9806.022374
924.096385,-666.185348,2368.659014,-10112.460574
924.096705,-444.123565,1924.535449,-10572.117872
924.097025,370.102971,1628.453072,-10572.117872
924.097345,518.144159,1258.350101,-10725.336972
924.097665,-518.144159,518.144159,-10801.946522
924.097985,-962.267725,370.102971,-10495.508323
924.098305,-2368.659014,-444.123565,-10189.070123
924.098625,-888.247130,74.020594,-10418.898773
924.098945,1554.432478,1110.308913,-10112.460574
924.099265,888.247130,2220.617826,-11031.775171
924.099585,-1480.411884,2590.720797,-10418.898773
924.099905,-2812.782580,2590.720797,-10342.289223
924.100225,-2590.720797,740.205942,-9806.022374
924.100545,296.082377,-518.144159,-10112.460574
924.100865,1924.535449,-2664.741391,-10035.851024
924.101185,2220.617826,-2368.659014,-10035.851024
924.101505,1998.556043,-444.123565,-9729.412825
924.101825,3182.885551,2516.700203,-11261.603821
924.102145,6291.750507,4737.318029,-10648.727422
924.102465,6957.935855,3330.926739,-10495.508323
924.102785,4663.297435,1406.391290,-10189.070123
924.103105,740.205942,148.041188,-8886.707777
924.103425,-2146.597232,-2294.638420,-9652.803275
924.103745,-148.041188,-2146.597232,-9193.145976
924.104065,2442.679609,-1850.514855,-9806.022374
924.104385,4219.173869,-1332.370696,-9652.803275
924.104705,3775.050304,148.041188,-9269.755526
924.105025,2738.761985,740.205942,-10342.289223
924.105345,1850.514855,1998.556043,-10572.117872
924.105665,666.185348,2886.803174,-10342.289223
924.105985,666.185348,1554.432478,-10265.679673
924.106305,1184.329507,-1332.370696,-9729.412825
924.106625,370.102971,-3849.070898,-9729.412825
924.106945,222.061783,-4441.235652,-9806.022374
924.107265,1036.288319,-2590.720797,-9882.631924
924.107585,1776.494261,-370.102971,-10495.508323
924.107904,2368.659014,518.144159,-10801.946522
924.108224,1628.453072,1850.514855,-10801.946522
924.108544,1554.432478,2590.720797,-10418.898773
924.108864,1776.494261,2516.700203,-10648.727422
924.109184,888.247130,1184.329507,-10648.727422
924.109504,-1036.288319,-296.082377,-10572.117872
924.109824,-3849.070898,-1554.432478,-10418.898773
924.110144,-3478.967927,-1480.411884,-10112.460574
924.110464,-1776.494261,0.000000,-9959.241474
924.110784,-962.267725,814.226536,-10572.117872
924.111104,-1628.453072,222.061783,-9729.412825
924.111424,-3256.906145,-444.123565,-10112.460574
924.111744,-3627.009116,-740.205942,-9422.974625
924.112064,-1628.453072,-1184.329507,-8886.707777
924.112384,296.082377,-1406.391290,-10112.460574
924.112704,444.123565,-1554.432478,-9499.584175
924.113024,-296.082377,-814.226536,-9806.022374
924.113344,0.000000,1036.288319,-9806.022374
924.113664,74.020594,2146.597232,-9729.412825
924.113984,74.020594,2442.679609,-10035.851024
924.114304,-1554.432478,1184.329507,-11031.775171
924.114624,-2812.782580,0.000000,-10878.556072
924.114944,-3256.906145,-1406.391290,-9422.974625
924.115264,-1628.453072,-1554.432478,-9422.974625
924.115584,1184.329507,-1036.288319,-9729.412825
924.115904,1776.494261,222.061783,-10342.289223
924.116224,1406.391290,296.082377,-10265.679673
924.116544,1480.411884,-666.185348,-9729.412825
924.116864,1776.494261,-740.205942,-10112.460574
924.117184,2442.679609,296.082377,-9652.803275
924.117504,2368.659014,3108.864956,-9346.365076
924.117824,-592.164754,3256.906145,-10648.727422
924.118144,1480.411884,2294.638420,-10189.070123
924.118464,2960.823768,962.267725,-10495.508323
924.118784,3849.070898,-222.061783,-9806.022374
924.119104,3182.885551,1554.432478,-10189.070123
924.119424,518.144159,3256.906145,-10955.165621
924.119744,148.041188,2664.741391,-10189.070123
924.120064,1110.308913,2368.659014,-9959.241474
924.120384,3034.844362,814.226536,-10342.289223
924.120704,3849.070898,-1184.329507,-10648.727422
924.121024,1776.494261,-592.164754,-10189.070123
924.121344,1776.494261,1110.308913,-10801.946522
924.121664,3330.926739,4293.194464,-10189.070123
924.121984,5773.606348,4145.153275,-11644.651570
924.122304,2960.823768,3108.864956,-10495.508323
924.122623,-666.185348,444.123565,-10112.460574
924.122943,-296.082377,-1998.556043,-9959.241474
924.123263,2146.597232,-1110.308913,-9882.631924
924.123583,2516.700203,-740.205942,-9729.412825
924.123903,888.247130,888.247130,-10112.460574
924.124223,296.082377,222.061783,-9806.022374
924.124543,1480.411884,592.164754,-10112.460574
924.124863,0.000000,518.144159,-9652.803275
924.125183,-1850.514855,148.041188,-9346.365076
924.125503,-666.185348,-444.123565,-9422.974625
924.125823,-370.102971,-592.164754,-9422.974625
924.126143,148.041188,-1110.308913,-9576.193725
924.126463,0.000000,-814.226536,-9806.022374
924.126783,740.205942,-296.082377,-10035.851024
924.127103,-666.185348,1258.350101,-10189.070123
924.127423,-4071.132681,3108.864956,-9422.974625
924.127743,-4811.338623,1998.556043,-9422.974625
924.128063,-4811.338623,-444.123565,-9806.022374
924.128383,-2220.617826,-2146.597232,-10495.508323
924.128703,-888.247130,-2516.700203,-9806.022374
924.129023,-1554.432478,-1184.329507,-9806.022374
924.129343,-814.226536,2220.617826,-10572.117872
924.129663,74.020594,2072.576638,-10725.336972
924.129983,222.061783,1776.494261,-10648.727422
924.130303,0.000000,-814.226536,-10495.508323
924.130623,-2590.720797,-1998.556043,-10342.289223
924.130943,-2294.638420,-2368.659014,-10418.898773
924.131263,-2072.576638,-962.267725,-10648.727422
924.131583,-2368.659014,-148.041188,-10572.117872
924.131903,-1776.494261,962.267725,-10648.727422
924.132223,370.102971,296.082377,-10648.727422
924.132543,2590.720797,296.082377,-10725.336972
924.132863,3775.050304,148.041188,-10725.336972
924.133183,3330.926739,592.164754,-10495.508323
924.133503,2146.597232,1036.288319,-10189.070123
924.133823,148.041188,148.041188,-9959.241474
924.134143,0.000000,-1702.473667,-9959.241474
924.134463,2368.659014,-2812.782580,-9116.536426
924.134783,4959.379811,-2368.659014,-10112.460574
924.135103,5921.647536,-222.061783,-9806.022374
924.135423,1702.473667,666.185348,-9116.536426
924.135743,-222.061783,2368.659014,-10112.460574
924.136063,222.061783,888.247130,-9499.584175
924.136383,2738.761985,-222.061783,-10035.851024
924.136703,3256.906145,-1184.329507,-9959.241474
924.137022,1628.453072,-1850.514855,-9729.412825
924.137342,0.000000,-888.247130,-9729.412825
924.137662,1258.350101,370.102971,-9806.022374
924.137982,2146.597232,1850.514855,-9729.412825
924.138302,3849.070898,2664.741391,-11031.775171
924.138622,2516.700203,1998.556043,-10572.117872
924.138942,2886.803174,962.267725,-10725.336972
924.139262,1036.288319,-518.144159,-9499.584175
924.139582,2368.659014,-1036.288319,-10189.070123
924.139902,3330.926739,-1924.535449,-9806.022374
924.140222,1850.514855,-888.247130,-9652.803275
924.140542,1480.411884,-370.102971,-10418.898773
924.140862,1406.391290,1554.432478,-10572.117872
924.141182,1998.556043,3478.967927,-11031.775171
924.141502,1036.288319,4737.318029,-10955.165621
924.141822,-1110.308913,3849.070898,-10878.556072
924.142142,-1036.288319,1184.329507,-10801.946522
924.142462,-1554.432478,-222.061783,-9959.241474
924.142782,-2294.638420,-2072.576638,-9959.241474
924.143102,-3404.947333,-1480.411884,-9346.365076
924.143422,-4737.318029,-1554.432478,-9652.803275
924.143742,-2590.720797,-814.226536,-9729.412825
924.144062,-370.102971,666.185348,-9499.584175
924.144382,3108.864956,4071.132681,-10418.898773
924.144702,2442.679609,3923.091493,-10112.460574
924.145022,-592.164754,2590.720797,-10265.679673
924.145342,-2442.679609,888.247130,-9346.365076
924.145662,-3034.844362,148.041188,-9116.536426
924.145982,-296.082377,-1776.494261,-9576.193725
924.146302,74.020594,-1850.514855,-9806.022374
924.146622,-1628.453072,-1480.411884,-9959.241474
924.146942,-2590.720797,962.267725,-9422.974625
924.147262,-2516.700203,2960.823768,-9499.584175
924.147582,222.061783,2738.761985,-10112.460574
924.147902,-296.082377,1554.432478,-9959.241474
924.148222,-1998.556043,-592.164754,-10035.851024
924.148542,-2294.638420,-1850.514855,-9269.755526
924.148862,740.205942,-2590.720797,-8886.707777
924.149182,3923.091493,-1924.535449,-10035.851024
924.149502,4885.359217,296.082377,-9882.631924
924.149822,1998.556043,3330.926739,-10572.117872
924.150142,296.082377,5107.421000,-10418.898773
924.150462,1036.288319,3552.988522,-9652.803275
924.150782,1628.453072,1184.329507,-11491.432470
924.151102,1702.473667,-1850.514855,-9806.022374
924.151422,-1110.308913,-1406.391290,-10112.460574
924.151741,-888.247130,-2072.576638,-9729.412825
924.152061,2664.741391,-814.226536,-9346.365076
924.152381,3404.947333,888.247130,-10801.946522
924.152701,3330.926739,3552.988522,-10878.556072
924.153021,962.267725,4293.194464,-10878.556072
924.153341,1998.556043,3552.988522,-10572.117872
924.153661,4293.194464,1184.329507,-10112.460574
924.153981,4441.235652,-1036.288319,-10418.898773
924.154301,3330.926739,-2738.761985,-9269.755526
924.154621,1850.514855,-3478.967927,-9729.412825
924.154941,666.185348,-1332.370696,-9729.412825
924.155261,-296.082377,888.247130,-10112.460574
924.155581,592.164754,2146.597232,-10572.117872
924.155901,2368.659014,1998.556043,-10265.679673
924.156221,2886.803174,444.123565,-10112.460574
924.156541,1628.453072,-592.164754,-10265.679673
924.156861,518.144159,-1702.473667,-9652.803275
924.157181,1110.308913,-740.205942,-9882.631924
924.157501,1480.411884,-518.144159,-9576.193725
924.157821,814.226536,-518.144159,-10035.851024
924.158142,518.144159,-1924.535449,-9806.022374
924.158462,-148.041188,-1924.535449,-9499.584175
924.158782,296.082377,-1406.391290,-9806.022374
924.159102,518.144159,-518.144159,-9729.412825
924.159422,-1480.411884,0.000000,-10112.460574
924.159742,-1776.494261,296.082377,-9959.241474
924.160062,-2368.659014,1258.350101,-9959.241474
924.160382,-1184.329507,1924.535449,-10189.070123
924.160702,-666.185348,1776.494261,-10265.679673
924.161022,-740.205942,0.000000,-9882.631924
924.161342,-1036.288319,-2368.659014,-9959.241474
924.161662,-1184.329507,-3849.070898,-9269.755526
924.161982,-2442.679609,-1998.556043,-10265.679673
924.162302,-3404.947333,-592.164754,-9806.022374
924.162622,-2886.803174,2442.679609,-9806.022374
924.162942,-1628.453072,3478.967927,-10878.556072
924.163262,-222.061783,4145.153275,-10801.946522
924.163582,814.226536,1776.494261,-10955.165621
924.163902,1628.453072,-1258.350101,-10342.289223
924.164222,962.267725,-2664.741391,-10801.946522
924.164542,-962.267725,-1924.535449,-10801.946522
924.164862,-3701.029710,518.144159,-10418.898773
924.165182,-2072.576638,2442.679609,-9882.631924
924.165502,666.185348,3330.926739,-10725.336972
924.165822,1480.411884,2664.741391,-10112.460574
924.166142,1406.391290,888.247130,-10189.070123
924.166462,1332.370696,-888.247130,-10112.460574
924.166782,2812.782580,-1258.350101,-9806.022374
924.167102,4589.276840,-444.123565,-10189.070123
924.167422,4219.173869,1628.453072,-9729.412825
924.167742,2442.679609,2442.679609,-10955.165621
924.168062,1258.350101,3034.844362,-10189.070123
924.168382,592.164754,3404.947333,-10112.460574
924.168702,2368.659014,2442.679609,-10495.508323
924.169022,3997.112087,-222.061783,-10265.679673
924.169342,2960.823768,-2368.659014,-9499.584175
924.169662,1036.288319,-2738.761985,-9039.926876
924.169982,1332.370696,-1258.350101,-9346.365076
924.170302,2590.720797,1184.329507,-9882.631924
924.170622,3701.029710,3627.009116,-9729.412825
924.170942,4515.256246,3627.009116,-10035.851024
924.171262,5181.441594,3182.885551,-10495.508323
924.171582,4145.153275,2590.720797,-10418.898773
924.171902,1332.370696,2220.617826,-10035.851024
924.172222,-1184.329507,1480.411884,-9652.803275
924.172542,-1036.288319,296.082377,-10112.460574
924.172862,-222.061783,-962.267725,-9499.584175
924.173182,-2072.576638,-1332.370696,-10112.460574
924.173502,-2960.823768,-666.185348,-9959.241474
924.173822,-2664.741391,1332.370696,-9499.584175
924.174142,-370.102971,2072.576638,-11031.775171
924.174462,2442.679609,3478.967927,-9269.755526
924.174782,3478.967927,2664.741391,-10265.679673
924.175102,4737.318029,1702.473667,-10035.851024
924.175422,4811.338623,814.226536,-10572.117872
924.175742,1924.535449,518.144159,-10495.508323
924.176063,-740.205942,592.164754,-10418.898773
924.176383,-1776.494261,518.144159,-9729.412825
924.176703,-1480.411884,222.061783,-9882.631924
924.177023,-2590.720797,962.267725,-9959.241474
924.177343,-4515.256246,2590.720797,-9652.803275
924.177663,-3923.091493,518.144159,-10189.070123
924.177983,-2146.597232,-888.247130,-9729.412825
924.178303,0.000000,444.123565,-10265.679673
924.178623,1258.350101,666.185348,-9729.412825
924.178943,2738.761985,1480.411884,-9806.022374
924.179263,3404.947333,1776.494261,-10648.727422
924.179583,2294.638420,2368.659014,-9806.022374
924.179903,1628.453072,4219.173869,-10572.117872
924.180223,1850.514855,3701.029710,-10495.508323
924.180543,3701.029710,2590.720797,-9576.193725
924.180863,2294.638420,1776.494261,-10725.336972
924.181183,-222.061783,74.020594,-9729.412825
924.181503,-740.205942,-370.102971,-9269.755526
924.181823,592.164754,0.000000,-10265.679673
924.182143,2368.659014,370.102971,-9193.145976
924.182463,2960.823768,2590.720797,-9882.631924
924.182783,6661.853478,2738.761985,-10265.679673
924.183103,7698.141797,1998.556043,-11644.651570
924.183423,6291.750507,4145.153275,-10801.946522
924.183743,4219.173869,3478.967927,-10878.556072
924.184063,3404.947333,3775.050304,-9882.631924
924.184383,4589.276840,1998.556043,-11491.432470
924.184703,3923.091493,370.102971,-9039.926876
924.185023,2516.700203,2590.720797,-10265.679673
924.185343,2368.659014,3182.885551,-10801.946522
924.185663,2738.761985,4367.215058,-9729.412825
924.185983,2812.782580,4737.318029,-11031.775171
924.186303,3256.906145,2368.659014,-9882.631924
924.186623,5921.647536,0.000000,-8733.488677
924.186943,5329.482782,1110.308913,-10495.508323
924.187263,4071.132681,3182.885551,-10495.508323
924.187583,4219.173869,3849.070898,-10035.851024
924.187903,4441.235652,4145.153275,-10801.946522
924.188223,4071.132681,2368.659014,-10112.460574
924.188543,1036.288319,1776.494261,-9806.022374
924.188863,-1332.370696,1628.453072,-9422.974625
924.189183,1036.288319,2294.638420,-10112.460574
924.189503,2664.741391,2960.823768,-10112.460574
924.189823,2886.803174,3034.844362,-10342.289223
924.190143,3552.988522,1406.391290,-9806.022374
924.190463,2442.679609,1406.391290,-9959.241474
924.190783,2294.638420,2812.782580,-9806.022374
924.191103,3256.906145,4811.338623,-10112.460574
924.191423,3108.864956,5551.544565,-10725.336972
924.191743,3701.029710,5107.421000,-11184.994271
924.192063,3478.967927,3034.844362,-10495.508323
924.192383,2072.576638,1702.473667,-9959.241474
924.192703,74.020594,1850.514855,-9806.022374
924.193023,-444.123565,2442.679609,-9806.022374
924.193343,592.164754,3330.926739,-10189.070123
924.193663,1184.329507,3552.988522,-10265.679673
924.193983,1258.350101,2368.659014,-9652.803275
924.194304,666.185348,1110.308913,-9652.803275
924.194624,1110.308913,2294.638420,-9193.145976
924.194944,1776.494261,4219.173869,-10189.070123
924.195264,1924.535449,5255.462188,-10265.679673
924.195584,2590.720797,4145.153275,-10648.727422
924.195904,1406.391290,3034.844362,-10495.508323
924.196224,-444.123565,1184.329507,-9729.412825
924.196544,0.000000,1554.432478,-10035.851024
924.196864,444.123565,2368.659014,-10418.898773
924.197184,814.226536,3404.947333,-9806.022374
924.197504,962.267725,3182.885551,-10495.508323
924.197824,1332.370696,1332.370696,-10189.070123
924.198144,2590.720797,74.020594,-10342.289223
924.198464,2590.720797,592.164754,-10342.289223
924.198784,2664.741391,2960.823768,-10112.460574
924.199104,3256.906145,4959.379811,-10265.679673
924.199424,3627.009116,5329.482782,-11031.775171
924.199744,1554.432478,4663.297435,-10495.508323
924.200064,-666.185348,2886.803174,-9806.022374
924.200384,370.102971,1258.350101,-9959.241474
924.200704,3256.906145,0.000000,-10035.851024
924.201024,3552.988522,-222.061783,-9959.241474
924.201344,2368.659014,888.247130,-9806.022374
924.201664,2886.803174,2738.761985,-9193.145976
924.201984,5625.565159,3923.091493,-10035.851024
924.202304,6365.771101,5625.565159,-10418.898773
924.202624,5921.647536,5329.482782,-10572.117872
924.202944,5329.482782,4589.276840,-10112.460574
924.203264,5699.585753,2146.597232,-9959.241474
924.203584,5033.400406,1110.308913,-10265.679673
924.203904,3256.906145,370.102971,-9806.022374
924.204224,1702.473667,1332.370696,-9882.631924
924.204544,2738.761985,2812.782580,-9269.755526
924.204864,4071.132681,2516.700203,-9806.022374
924.205184,2960.823768,2812.782580,-10112.460574
924.205504,814.226536,2220.617826,-9652.803275
924.205824,1702.473667,1850.514855,-9576.193725
924.206144,3775.050304,1406.391290,-9652.803275
924.206464,4885.359217,1036.288319,-9882.631924
924.206784,3627.009116,1332.370696,-9806.022374
924.207104,2220.617826,1554.432478,-9576.193725
924.207424,2664.741391,1998.556043,-9806.022374
924.207744,2220.617826,3627.009116,-10265.679673
924.208064,2368.659014,3552.988522,-10801.946522
924.208384,1776.494261,2738.761985,-10265.679673
924.208704,148.041188,1850.514855,-10112.460574
924.209024,-2072.576638,962.267725,-9959.241474
924.209344,-2516.700203,740.205942,-9346.365076
924.209664,-222.061783,1036.288319,-9959.241474
924.209984,2738.761985,1628.453072,-10189.070123
924.210304,3256.906145,2738.761985,-9499.584175
924.210624,1036.288319,3404.947333,-10648.727422
924.210944,666.185348,3775.050304,-9806.022374
924.211264,1998.556043,4885.359217,-10725.336972
924.211584,3997.112087,4293.194464,-10878.556072
924.211904,3997.112087,2812.782580,-10112.460574
924.212224,1924.535449,1924.535449,-10725.336972
924.212545,-740.205942,1406.391290,-10418.898773
924.212865,-2220.617826,1554.432478,-9729.412825
924.213185,-1924.535449,2368.659014,-9729.412825
924.213505,74.020594,1702.473667,-9806.022374
924.213825,1924.535449,444.123565,-9652.803275
924.214145,2442.679609,814.226536,-10189.070123
924.214465,3034.844362,2368.659014,-11261.603821
924.214785,3552.988522,4219.173869,-9959.241474
924.215105,3108.864956,5033.400406,-9959.241474
924.215425,4219.173869,4071.132681,-9882.631924
924.215745,5033.400406,1776.494261,-10112.460574
924.216065,4145.153275,740.205942,-11108.384721
924.216385,2590.720797,888.247130,-9882.631924
924.216705,1998.556043,2294.638420,-10112.460574
924.217025,1776.494261,3775.050304,-10112.460574
924.217345,814.226536,3256.906145,-9882.631924
924.217665,0.000000,2220.617826,-9729.412825
924.217985,1184.329507,444.123565,-9882.631924
924.218305,3923.091493,-148.041188,-9806.022374
924.218625,5329.482782,1258.350101,-10112.460574
924.218945,5773.606348,3108.864956,-10112.460574
924.219265,6291.750507,5255.462188,-10572.117872
924.219585,6735.874072,5847.626942,-10265.679673
924.219905,5181.441594,6069.688724,-10955.165621
924.220225,1776.494261,5329.482782,-10801.946522
924.220545,1406.391290,3034.844362,-10342.289223
924.220865,1924.535449,1184.329507,-10265.679673
924.221185,2442.679609,-296.082377,-10035.851024
924.221505,2220.617826,-1036.288319,-9729.412825
924.221825,962.267725,1406.391290,-9806.022374
924.222145,1554.432478,4071.132681,-9806.022374
924.222465,3627.009116,6143.709319,-10189.070123
924.222785,5255.462188,6587.832884,-10801.946522
924.223105,5403.503377,4515.256246,-11184.994271
924.223425,3478.967927,2294.638420,-10342.289223
924.223745,1258.350101,666.185348,-9729.412825
924.224065,-148.041188,296.082377,-9499.584175
924.224385,148.041188,888.247130,-8427.050478
924.224705,1480.411884,1332.370696,-9576.193725
924.225025,2368.659014,2220.617826,-9652.803275
924.225345,2220.617826,2960.823768,-9806.022374
924.225665,2146.597232,3997.112087,-9959.241474
924.225985,3182.885551,5033.400406,-9806.022374
924.226305,4367.215058,4811.338623,-10189.070123
924.226625,3478.967927,3923.091493,-9882.631924
924.226945,1628.453072,2220.617826,-9652.803275
924.227265,222.061783,1628.453072,-9959.241474
924.227585,0.000000,1776.494261,-9806.022374
924.227905,444.123565,2886.803174,-9959.241474
924.228225,444.123565,3478.967927,-10035.851024
924.228545,-296.082377,2960.823768,-10035.851024
924.228865,-666.185348,2590.720797,-10878.556072
924.229185,74.020594,1184.329507,-10035.851024
924.229505,1628.453072,814.226536,-9882.631924
924.229825,3404.947333,1628.453072,-9882.631924
924.230145,4811.338623,2072.576638,-10189.070123
924.230465,4959.379811,3775.050304,-10572.117872
924.230786,4737.318029,4663.297435,-10648.727422
924.231106,3330.926739,5403.503377,-10801.946522
924.231426,2220.617826,5033.400406,-10572.117872
924.231746,1480.411884,3701.029710,-10495.508323
924.232066,1554.432478,1628.453072,-10418.898773
924.232386,444.123565,222.061783,-9652.803275
924.232706,74.020594,-518.144159,-9729.412825
924.233026,-666.185348,444.123565,-9576.193725
924.233346,814.226536,1258.350101,-9652.803275
924.233666,2368.659014,2664.741391,-9959.241474
924.233986,4589.276840,3849.070898,-10112.460574
924.234306,5847.626942,3701.029710,-10112.460574
924.234626,6291.750507,2886.803174,-10035.851024
924.234946,5255.462188,1924.535449,-10112.460574
924.235266,3404.947333,814.226536,-9882.631924
924.235586,962.267725,222.061783,-9806.022374
924.235906,296.082377,-370.102971,-9499.584175
924.236226,-1036.288319,814.226536,-9959.241474
924.236546,-888.247130,814.226536,-9959.241474
924.236866,-222.061783,518.144159,-9959.241474
924.237186,814.226536,0.000000,-9346.365076
924.237506,1702.473667,444.123565,-9806.022374
924.237826,2960.823768,1628.453072,-10035.851024
924.238146,4071.132681,2812.782580,-10572.117872
924.238466,4219.173869,3923.091493,-10418.898773
924.238786,3849.070898,4441.235652,-9576.193725
924.239106,3552.988522,3404.947333,-10572.117872
924.239426,2664.741391,2738.761985,-10725.336972
924.239746,1776.494261,1776.494261,-10572.117872
924.240066,814.226536,1776.494261,-10035.851024
924.240386,740.205942,1406.391290,-10035.851024
924.240706,962.267725,1924.535449,-10189.070123
924.241026,1850.514855,2294.638420,-10418.898773
924.241346,2368.659014,3108.864956,-10572.117872
924.241666,3478.967927,4145.153275,-10189.070123
924.241986,4885.359217,4219.173869,-10418.898773
924.242306,6291.750507,4737.318029,-10342.289223
924.242626,7105.977043,4737.318029,-10189.070123
924.242946,6217.729913,5329.482782,-10572.117872
924.243266,4145.153275,5255.462188,-10418.898773
924.243586,1702.473667,4219.173869,-9959.241474
924.243906,-296.082377,2738.761985,-9652.803275
924.244226,-1036.288319,1554.432478,-9269.755526
924.244546,-1184.329507,444.123565,-9346.365076
924.244866,592.164754,0.000000,-9269.755526
924.245186,2220.617826,740.205942,-9652.803275
924.245506,3552.988522,2960.823768,-9576.193725
924.245826,4219.173869,5551.544565,-9806.022374
924.246146,5551.544565,6809.894666,-9806.022374
924.246466,5699.585753,6957.935855,-10112.460574
924.246786,4959.379811,5773.606348,-10112.460574
924.247106,4367.215058,3997.112087,-10035.851024
924.247426,3478.967927,2812.782580,-9882.631924
924.247746,1924.535449,2516.700203,-10035.851024
924.248066,-666.185348,3034.844362,-10035.851024
924.248386,-2812.782580,3627.009116,-9806.022374
924.248706,-2294.638420,3182.885551,-9806.022374
924.249027,-222.061783,2886.803174,-10035.851024
924.249347,1924.535449,2368.659014,-10189.070123
924.249667,2886.803174,2368.659014,-10495.508323
924.249987,2886.803174,2812.782580,-10418.898773
924.250307,3182.885551,3997.112087,-10495.508323
924.250627,4663.297435,5329.482782,-10342.289223
924.250947,5699.585753,5921.647536,-10725.336972
924.251267,5255.462188,5329.482782,-10648.727422
924.251587,2294.638420,4589.276840,-10112.460574
924.251907,-1110.308913,3330.926739,-10265.679673
924.252227,-2368.659014,1998.556043,-10035.851024
924.252547,-1406.391290,370.102971,-9959.241474
924.252867,-666.185348,-370.102971,-9499.584175
924.253187,-148.041188,-518.144159,-9269.755526
924.253507,1776.494261,740.205942,-9346.365076
924.253827,4737.318029,3034.844362,-9882.631924
924.254147,6291.750507,5403.503377,-10878.556072
924.254467,6143.709319,6661.853478,-10035.851024
924.254787,5181.441594,5921.647536,-10265.679673
924.255107,4441.235652,3775.050304,-10112.460574
924.255427,2886.803174,1850.514855,-9806.022374
924.255747,1776.494261,0.000000,-9729.412825
924.256067,444.123565,-888.247130,-9422.974625
924.256387,592.164754,-1332.370696,-9499.584175
924.256707,0.000000,-296.082377,-9422.974625
924.257015,-962.267725,1036.288319,-9576.193725
924.257334,-148.041188,2664.741391,-9652.803275
924.257654,3404.947333,2442.679609,-10035.851024
924.257974,5403.503377,2368.659014,-10189.070123
924.258294,7105.977043,2072.576638,-10495.508323
924.258614,7031.956449,2960.823768,-10495.508323
924.258934,5107.421000,4145.153275,-11031.775171
924.259254,1998.556043,4737.318029,-10572.117872
924.259574,74.020594,3923.091493,-10801.946522
924.259894,0.000000,1628.453072,-10265.679673
924.260214,-222.061783,-592.164754,-10418.898773
924.260534,0.000000,-1998.556043,-10418.898773
924.260854,-444.123565,-1850.514855,-10342.289223
924.261174,-370.102971,74.020594,-10189.070123
924.261494,1776.494261,1480.411884,-10342.289223
924.261814,3923.091493,3330.926739,-9882.631924
924.262134,5403.503377,3997.112087,-10572.117872
924.262454,6439.791695,3775.050304,-11031.775171
924.262774,6365.771101,3478.967927,-10648.727422
924.263094,4219.173869,4071.132681,-10955.165621
924.263414,2886.803174,3182.885551,-10265.679673
924.263734,2072.576638,2220.617826,-9652.803275
924.264054,0.000000,518.144159,-10112.460574
924.264374,-2664.741391,-888.247130,-8503.660028
924.264694,-4367.215058,-740.205942,-9193.145976
924.265014,-3182.885551,-592.164754,-9576.193725
924.265334,1480.411884,-666.185348,-9116.536426
924.265654,4589.276840,222.061783,-9499.584175
924.265974,4737.318029,1776.494261,-9576.193725
924.266294,3404.947333,3701.029710,-9269.755526
924.266614,3849.070898,5625.565159,-10035.851024
924.266934,5847.626942,6365.771101,-10648.727422
924.267254,5181.441594,5329.482782,-10418.898773
924.267574,2960.823768,3034.844362,-10418.898773
924.267894,296.082377,666.185348,-9346.365076
924.268214,-1184.329507,-222.061783,-9806.022374
924.268534,-1776.494261,740.205942,-10035.851024
924.268854,-1776.494261,1406.391290,-9346.365076
924.269174,-1628.453072,2368.659014,-9806.022374
924.269494,814.226536,1924.535449,-9806.022374
924.269814,4589.276840,2812.782580,-10035.851024
924.270134,6069.688724,4071.132681,-11261.603821
924.270454,5181.441594,5625.565159,-10725.336972
924.270774,5403.503377,7328.038826,-10572.117872
924.271094,6217.729913,7476.080014,-11184.994271
924.271414,6513.812290,5995.668130,-10801.946522
924.271733,3404.947333,4441.235652,-10801.946522
924.272053,592.164754,4071.132681,-10878.556072
924.272373,0.000000,3034.844362,-9959.241474
924.272693,296.082377,2886.803174,-10418.898773
924.273013,0.000000,2220.617826,-9806.022374
924.273333,222.061783,1480.411884,-9116.536426
924.273653,3108.864956,740.205942,-9422.974625
924.273973,5625.565159,1702.473667,-9576.193725
924.274293,5847.626942,3701.029710,-9576.193725
924.274613,5033.400406,6143.709319,-9652.803275
924.274933,6661.853478,7179.997637,-9959.241474
924.275253,7179.997637,6513.812290,-10342.289223
924.275573,4737.318029,4441.235652,-9576.193725
924.275893,-518.144159,2220.617826,-9422.974625
924.276213,-1702.473667,222.061783,-9269.755526
924.276533,-1776.494261,148.041188,-9269.755526
924.276853,-1998.556043,222.061783,-8886.707777
924.277173,-1258.350101,0.000000,-9269.755526
924.277493,444.123565,518.144159,-9806.022374
924.277813,2516.700203,1628.453072,-9882.631924
924.278133,4071.132681,3108.864956,-10342.289223
924.278453,4515.256246,4811.338623,-10265.679673
924.278773,5847.626942,5921.647536,-10418.898773
924.279093,5551.544565,5995.668130,-11031.775171
924.279413,3923.091493,5699.585753,-10572.117872
924.279733,1628.453072,3701.029710,-10878.556072
924.280053,-962.267725,1850.514855,-9422.974625
924.280373,-2294.638420,-222.061783,-10189.070123
924.280693,-1998.556043,-1628.453072,-10265.679673
924.281013,-1850.514855,-1258.350101,-10112.460574
924.281333,-1554.432478,148.041188,-10112.460574
924.281653,0.000000,2886.803174,-10189.070123
924.281973,2220.617826,4737.318029,-10725.336972
924.282293,3552.988522,5699.585753,-10725.336972
924.282613,5107.421000,5033.400406,-10801.946522
924.282933,6883.915261,4589.276840,-11261.603821
924.283253,6957.935855,3478.967927,-10342.289223
924.283573,5403.503377,2886.803174,-10572.117872
924.283893,3330.926739,1998.556043,-9959.241474
924.284213,1110.308913,1480.411884,-9193.145976
924.284533,740.205942,666.185348,-9576.193725
924.284853,-222.061783,148.041188,-9652.803275
924.285173,-148.041188,0.000000,-9116.536426
924.285493,444.123565,-888.247130,-10112.460574
924.285813,2368.659014,-444.123565,-9269.755526
924.286132,3552.988522,518.144159,-9346.365076
924.286452,3552.988522,3108.864956,-10418.898773
924.286772,3775.050304,5551.544565,-9729.412825
924.287092,6957.935855,7328.038826,-10878.556072
924.287412,6735.874072,6513.812290,-11951.089769
924.287732,5255.462188,3330.926739,-10265.679673
924.288052,1110.308913,592.164754,-9806.022374
924.288372,-370.102971,-1110.308913,-10035.851024
924.288692,222.061783,-1110.308913,-9499.584175
924.289012,-592.164754,-1258.350101,-9959.241474
924.289332,-1184.329507,-1332.370696,-10112.460574
924.289652,74.020594,-1258.350101,-9346.365076
924.289972,1480.411884,592.164754,-9806.022374
924.290292,1998.556043,1628.453072,-10878.556072
924.290612,5255.462188,3108.864956,-10342.289223
924.290932,7476.080014,4145.153275,-11261.603821
924.291252,7105.977043,4071.132681,-11414.822920
924.291572,3997.112087,2442.679609,-10035.851024
924.291892,1776.494261,2294.638420,-11031.775171
924.292212,1036.288319,666.185348,-10801.946522
924.292532,444.123565,-518.144159,-9806.022374
924.292852,-1184.329507,-962.267725,-9882.631924
924.293172,-1480.411884,-1258.350101,-9959.241474
924.293492,370.102971,-888.247130,-9882.631924
924.293812,2368.659014,444.123565,-10955.165621
924.294132,3552.988522,2220.617826,-9959.241474
924.294452,1924.535449,4219.173869,-9882.631924
924.294772,2294.638420,4885.359217,-10572.117872
924.295092,2590.720797,4219.173869,-10035.851024
924.295412,2072.576638,2812.782580,-10648.727422
924.295732,1702.473667,1258.350101,-10035.851024
924.296052,-370.102971,148.041188,-9116.536426
924.296372,-2664.741391,74.020594,-9806.022374
924.296692,-2442.679609,-666.185348,-9422.974625
924.297012,-2886.803174,-814.226536,-9116.536426
924.297332,-3404.947333,-222.061783,-9499.584175
924.297652,-3330.926739,0.000000,-8963.317327
924.297972,-2738.761985,592.164754,-10035.851024
924.298292,370.102971,-148.041188,-9729.412825
924.298612,3034.844362,296.082377,-9346.365076
924.298932,4293.194464,1332.370696,-10342.289223
924.299252,5255.462188,2368.659014,-9422.974625
924.299572,4367.215058,3701.029710,-10801.946522
924.299892,1924.535449,3182.885551,-10725.336972
924.300212,-962.267725,2442.679609,-9422.974625
924.300531,-1628.453072,592.164754,-10495.508323
924.300851,-1480.411884,-814.226536,-9806.022374
924.301171,-2368.659014,-1628.453072,-9729.412825
924.301491,-3034.844362,-1702.473667,-10265.679673
924.301811,-1924.535449,-962.267725,-9193.145976
924.302131,0.000000,222.061783,-9806.022374
924.302451,1332.370696,1702.473667,-10801.946522
924.302771,2072.576638,2738.761985,-10342.289223
924.303091,1110.308913,3108.864956,-11031.775171
924.303411,296.082377,2220.617826,-9806.022374
924.303731,1480.411884,1998.556043,-10342.289223
924.304051,3404.947333,444.123565,-10342.289223
924.304371,2220.617826,-148.041188,-10035.851024
924.304691,814.226536,-814.226536,-10648.727422
924.305011,-1554.432478,-444.123565,-9422.974625
924.305331,-2516.700203,-740.205942,-9806.022374
924.305651,-814.226536,-740.205942,-10418.898773
924.305971,1628.453072,-814.226536,-9576.193725
924.306291,1628.453072,0.000000,-10265.679673
924.306611,1998.556043,518.144159,-10725.336972
924.306931,2516.700203,1998.556043,-10035.851024
924.307251,3404.947333,2590.720797,-10648.727422
924.307571,2886.803174,1036.288319,-10189.070123
924.307891,2886.803174,0.000000,-10342.289223
924.308211,1850.514855,-666.185348,-9959.241474
924.308531,2146.597232,-444.123565,-9729.412825
924.308851,2368.659014,-148.041188,-10035.851024
924.309171,1332.370696,370.102971,-10418.898773
924.309491,0.000000,0.000000,-9806.022374
924.309811,296.082377,-444.123565,-10112.460574
924.310131,1332.370696,-518.144159,-9422.974625
924.310451,1036.288319,-518.144159,-9729.412825
924.310771,-444.123565,148.041188,-9959.241474
924.311091,148.041188,444.123565,-9652.803275
924.311411,2738.761985,74.020594,-9806.022374
924.311731,3849.070898,-74.020594,-10572.117872
924.312051,1850.514855,148.041188,-10342.289223
924.312371,-2516.700203,740.205942,-9729.412825
924.312691,-3997.112087,1554.432478,-9959.241474
924.313011,-1406.391290,814.226536,-9576.193725
924.313331,1036.288319,-222.061783,-10572.117872
924.313651,518.144159,-2146.597232,-9729.412825
924.313971,-2516.700203,-2220.617826,-10035.851024
924.314291,-2442.679609,-1184.329507,-9806.022374
924.314610,-814.226536,0.000000,-9422.974625
924.314930,-1184.329507,2368.659014,-10878.556072
924.315250,0.000000,3552.988522,-11184.994271
924.315570,0.000000,3775.050304,-10189.070123
924.315890,370.102971,3256.906145,-10495.508323
924.316210,0.000000,1924.535449,-10418.898773
924.316530,0.000000,-370.102971,-10189.070123
924.316850,-592.164754,-1850.514855,-9959.241474
924.317170,-1850.514855,-1628.453072,-9576.193725
924.317490,-518.144159,-592.164754,-9882.631924
924.317810,888.247130,74.020594,-10112.460574
924.318130,1628.453072,1554.432478,-10342.289223
924.318450,1554.432478,2812.782580,-10418.898773
924.318770,222.061783,2664.741391,-9806.022374
924.319090,-962.267725,2072.576638,-9959.241474
924.319410,-1184.329507,0.000000,-9576.193725
924.319730,-370.102971,-1776.494261,-9652.803275
924.320050,666.185348,-1184.329507,-9269.755526
924.320370,1258.350101,-592.164754,-9959.241474
924.320690,2220.617826,444.123565,-9729.412825
924.321010,2294.638420,1036.288319,-10112.460574
924.321330,1628.453072,2220.617826,-9806.022374
924.321650,1702.473667,1554.432478,-10189.070123
924.321970,-1110.308913,222.061783,-9346.365076
924.322290,-296.082377,-296.082377,-9729.412825
924.322610,3108.864956,-1554.432478,-9806.022374
924.322930,4441.235652,-888.247130,-8810.098227
924.323250,3182.885551,-2516.700203,-10265.679673
924.323570,518.144159,-2146.597232,-9116.536426
924.323890,-814.226536,-370.102971,-10572.117872
924.324210,1406.391290,1554.432478,-9729.412825
924.324530,1406.391290,3034.844362,-10342.289223
924.324850,1776.494261,3108.864956,-10648.727422
924.325170,0.000000,1554.432478,-9806.022374
924.325490,592.164754,-1184.329507,-10495.508323
924.325810,1184.329507,-2738.761985,-9806.022374
924.326130,1554.432478,-2812.782580,-10189.070123
924.326450,2146.597232,-1036.288319,-10648.727422
924.326770,962.267725,-222.061783,-10189.070123
924.327090,1036.288319,1332.370696,-9039.926876
924.327410,2220.617826,2368.659014,-10725.336972
924.327730,1554.432478,2368.659014,-10572.117872
924.328050,1110.308913,2072.576638,-10495.508323
924.328370,-814.226536,740.205942,-10801.946522
924.328690,0.000000,-1036.288319,-10035.851024
924.329009,-888.247130,-2590.720797,-9806.022374
924.329329,-1628.453072,-2516.700203,-10189.070123
924.329649,-1258.350101,-1924.535449,-9729.412825
924.329969,-666.185348,2294.638420,-9806.022374
924.330289,-518.144159,3478.967927,-10572.117872
924.330609,-518.144159,3256.906145,-10189.070123
924.330929,-1480.411884,2294.638420,-10342.289223
924.331249,74.020594,0.000000,-10878.556072
924.331569,1554.432478,-1406.391290,-10265.679673
924.331889,-370.102971,-1850.514855,-10342.289223
924.332209,666.185348,-1036.288319,-9346.365076
924.332529,592.164754,296.082377,-9959.241474
924.332849,370.102971,1850.514855,-10572.117872
924.333169,-1480.411884,2442.679609,-9806.022374
924.333489,-3330.926739,2442.679609,-10189.070123
924.333809,-2886.803174,518.144159,-9882.631924
924.334129,-1332.370696,-1258.350101,-9806.022374
924.334449,962.267725,-1406.391290,-10189.070123
924.334769,814.226536,-1850.514855,-9269.755526
924.335089,222.061783,-814.226536,-9652.803275
924.335409,1036.288319,444.123565,-10495.508323
924.335729,1628.453072,1480.411884,-10112.460574
924.336049,74.020594,1702.473667,-10035.851024
924.336369,-592.164754,962.267725,-9652.803275
924.336689,296.082377,740.205942,-10112.460574
924.337009,3182.885551,-222.061783,-10418.898773
924.337329,4293.194464,-222.061783,-9499.584175
924.337649,3775.050304,222.061783,-10418.898773
924.337969,1332.370696,-148.041188,-9422.974625
924.338289,-1184.329507,814.226536,-10035.851024
924.338609,-444.123565,888.247130,-9806.022374
924.338929,2220.617826,370.102971,-9806.022374
924.339249,2442.679609,-518.144159,-10418.898773
924.339569,1036.288319,-444.123565,-10495.508323
924.339889,0.000000,370.102971,-10265.679673
924.340209,2368.659014,1332.370696,-10035.851024
924.340529,3256.906145,2960.823768,-11184.994271
924.340849,3552.988522,4145.153275,-10955.165621
924.341169,2294.638420,4219.173869,-10878.556072
924.341489,2146.597232,1850.514855,-10418.898773
924.341809,2220.617826,-740.205942,-10189.070123
924.342129,1850.514855,-3182.885551,-9652.803275
924.342449,2664.741391,-3849.070898,-10342.289223
924.342769,1998.556043,-1110.308913,-9499.584175
924.343089,148.041188,1184.329507,-10418.898773
924.343408,148.041188,2738.761985,-10342.289223
924.343728,74.020594,2738.761985,-10035.851024
924.344048,0.000000,2516.700203,-11414.822920
924.344368,-1184.329507,74.020594,-10265.679673
924.344688,-2960.823768,-2294.638420,-9269.755526
924.345008,-1628.453072,-3330.926739,-9882.631924
924.345328,1998.556043,-2960.823768,-9806.022374
924.345648,2442.679609,-148.041188,-10189.070123
924.345968,-1036.288319,1406.391290,-9882.631924
924.346288,-4367.215058,1702.473667,-9729.412825
924.346608,-3034.844362,148.041188,-9499.584175
924.346928,592.164754,-740.205942,-9959.241474
924.347248,2146.597232,-1554.432478,-9499.584175
924.347568,518.144159,-962.267725,-10035.851024
924.347888,-2294.638420,296.082377,-9882.631924
924.348208,-1776.494261,1850.514855,-9729.412825
924.348528,-814.226536,1998.556043,-10189.070123
924.348848,-740.205942,-444.123565,-10112.460574
924.349168,-2812.782580,-1332.370696,-9269.755526
924.349488,-4071.132681,-1480.411884,-9652.803275
924.349808,-1332.370696,74.020594,-9882.631924
924.350128,1184.329507,814.226536,-10725.336972
924.350448,1184.329507,518.144159,-10725.336972
924.350768,-888.247130,-1110.308913,-9806.022374
924.351088,-2072.576638,-1406.391290,-10265.679673
924.351408,-296.082377,-592.164754,-10418.898773
924.351728,814.226536,222.061783,-10418.898773
924.352048,1998.556043,1776.494261,-11184.994271
924.352368,-740.205942,1184.329507,-10342.289223
924.352688,-222.061783,296.082377,-9959.241474
924.353008,1480.411884,-1258.350101,-10648.727422
924.353328,3256.906145,-1924.535449,-9806.022374
924.353648,1998.556043,-1776.494261,-10112.460574
924.353968,1998.556043,-740.205942,-10418.898773
924.354288,740.205942,740.205942,-9193.145976
924.354608,962.267725,1628.453072,-10342.289223
924.354928,1332.370696,592.164754,-9882.631924
924.355248,2738.761985,-1406.391290,-9269.755526
924.355568,2442.679609,-2072.576638,-10112.460574
924.355888,1406.391290,-1924.535449,-9269.755526
924.356207,2960.823768,-148.041188,-9806.022374
924.356527,4145.153275,2072.576638,-10495.508323
924.356847,4515.256246,2590.720797,-9806.022374
924.357167,2960.823768,2294.638420,-9882.631924
924.357487,1036.288319,518.144159,-9959.241474
924.357807,0.000000,-1036.288319,-9959.241474
924.358127,296.082377,-1036.288319,-10189.070123
924.358447,814.226536,148.041188,-9729.412825
924.358767,1850.514855,740.205942,-10572.117872
924.359086,888.247130,592.164754,-10189.070123
924.359406,370.102971,1332.370696,-10265.679673
924.359726,-148.041188,222.061783,-10035.851024
924.360046,518.144159,1332.370696,-10265.679673
924.360366,-296.082377,962.267725,-10342.289223
924.360686,-1110.308913,1628.453072,-10342.289223
924.361006,-666.185348,1110.308913,-10112.460574
924.361326,1628.453072,1036.288319,-8886.707777
924.361646,2220.617826,444.123565,-10265.679673
924.361965,-296.082377,0.000000,-9806.022374
924.362285,-1554.432478,1628.453072,-9806.022374
924.362605,-1998.556043,1258.350101,-9806.022374
924.362925,74.020594,1850.514855,-9576.193725
924.363245,1258.350101,1406.391290,-10035.851024
924.363565,-74.020594,1924.535449,-10112.460574
924.363885,-3404.947333,1258.350101,-9882.631924
924.364205,-4293.194464,1110.308913,-9576.193725
924.364525,-666.185348,74.020594,-9346.365076
924.364844,2072.576638,-1110.308913,-9806.022374
924.365164,1554.432478,-148.041188,-10189.070123
924.365484,-2368.659014,222.061783,-8656.879127
924.365804,-2368.659014,2146.597232,-10418.898773
924.366124,-814.226536,2738.761985,-9193.145976
924.366444,1258.350101,1628.453072,-10265.679673
924.366764,2220.617826,296.082377,-10265.679673
924.367084,1036.288319,-518.144159,-10035.851024
924.367403,-1702.473667,-222.061783,-9882.631924
924.367723,-1702.473667,148.041188,-10189.070123
924.368043,-518.144159,222.061783,-10112.460574
924.368363,-1110.308913,370.102971,-10035.851024
924.368683,-1702.473667,-1110.308913,-9806.022374
924.369003,-962.267725,-148.041188,-9959.241474
924.369323,1776.494261,148.041188,-10112.460574
924.369643,3256.906145,740.205942,-10648.727422
924.369963,2960.823768,1554.432478,-10648.727422
924.370282,592.164754,814.226536,-10572.117872
924.370602,888.247130,-814.226536,-9959.241474
924.370922,2072.576638,-1924.535449,-10112.460574
924.371242,4293.194464,-1184.329507,-10418.898773
924.371562,4441.235652,370.102971,-10648.727422
924.371882,1702.473667,962.267725,-10495.508323
924.372202,666.185348,1406.391290,-10112.460574
924.372522,-962.267725,592.164754,-9959.241474
924.372842,1776.494261,-740.205942,-10342.289223
924.373161,3775.050304,-1332.370696,-10189.070123
924.373481,3182.885551,-2368.659014,-10112.460574
924.373801,2220.617826,-1850.514855,-9499.584175
924.374121,2220.617826,-592.164754,-9116.536426
924.374441,1554.432478,-148.041188,-9959.241474
924.374761,0.000000,1184.329507,-10112.460574
924.375081,-1406.391290,1332.370696,-10495.508323
924.375401,444.123565,592.164754,-10495.508323
924.375720,1998.556043,666.185348,-10112.460574
924.376040,2072.576638,592.164754,-10495.508323
924.376360,1184.329507,814.226536,-10265.679673
924.376680,-74.020594,-1258.350101,-9652.803275
924.377000,-962.267725,-2664.741391,-11031.775171
924.377320,-1332.370696,-2812.782580,-9652.803275
924.377640,-370.102971,-1480.411884,-9959.241474
924.377960,962.267725,666.185348,-10189.070123
924.378280,1406.391290,1628.453072,-9193.145976
924.378599,-888.247130,1332.370696,-10342.289223
924.378919,-1924.535449,-444.123565,-9576.193725
924.379239,-2294.638420,-1110.308913,-9499.584175
924.379559,-1628.453072,-1850.514855,-9959.241474
924.379879,-2072.576638,-1184.329507,-9422.974625
924.380199,148.041188,-222.061783,-10495.508323
924.380519,2738.761985,0.000000,-9959.241474
924.380839,2368.659014,2294.638420,-10342.289223
924.381159,-814.226536,2886.803174,-10418.898773
924.381478,-3256.906145,1702.473667,-10112.460574
924.381798,-2516.700203,1258.350101,-9882.631924
924.382118,-1702.473667,-888.247130,-10035.851024
924.382438,-666.185348,-740.205942,-10189.070123
924.382758,-962.267725,-1332.370696,-10035.851024
924.383078,-740.205942,-1110.308913,-9959.241474
924.383398,-888.247130,592.164754,-10648.727422
924.383718,666.185348,2960.823768,-9959.241474
924.384037,1924.535449,3775.050304,-11108.384721
924.384357,3182.885551,2294.638420,-10801.946522
924.384677,1480.411884,1776.494261,-10878.556072
924.384997,-1110.308913,1480.411884,-9959.241474
924.385317,-1184.329507,518.144159,-10418.898773
924.385637,2368.659014,74.020594,-10418.898773
924.385957,4293.194464,296.082377,-10725.336972
924.386277,2294.638420,-814.226536,-10572.117872
924.386597,-370.102971,962.267725,-9193.145976
924.386916,-1702.473667,1258.350101,-8963.317327
924.387236,2220.617826,2294.638420,-10955.165621
924.387556,4367.215058,1924.535449,-10112.460574
924.387876,3182.885551,1036.288319,-10112.460574
924.388196,1702.473667,-888.247130,-9116.536426
924.388516,1332.370696,-1184.329507,-9269.755526
924.388836,3108.864956,-444.123565,-10189.070123
924.389156,5773.606348,740.205942,-9806.022374
924.389476,4959.379811,2738.761985,-9959.241474
924.389795,1258.350101,4071.132681,-11108.384721
924.390115,0.000000,1406.391290,-9806.022374
924.390435,814.226536,-148.041188,-9806.022374
924.390755,1924.535449,-1110.308913,-10342.289223
924.391075,1036.288319,-1628.453072,-8963.317327
924.391395,-222.061783,-1258.350101,-9576.193725
924.391715,-888.247130,296.082377,-10035.851024
924.392035,370.102971,1924.535449,-10418.898773
924.392354,-222.061783,3034.844362,-10495.508323
924.392674,-1110.308913,2516.700203,-10112.460574
