#time,accel_x,accel_y,accel_z
895.170096,666.185348,-296.082377,-9806.022374
895.170416,888.247130,-666.185348,-9959.241474
895.170736,888.247130,0.000000,-9806.022374
895.171056,740.205942,370.102971,-10265.679673
895.171376,222.061783,962.267725,-10035.851024
895.171697,444.123565,1110.308913,-10265.679673
895.172017,0.000000,888.247130,-9959.241474
895.172337,518.144159,0.000000,-10342.289223
895.172657,1036.288319,-296.082377,-10189.070123
895.172977,962.267725,-370.102971,-10418.898773
895.173297,518.144159,0.000000,-10265.679673
895.173617,148.041188,222.061783,-10648.727422
895.173938,148.041188,296.082377,-9959.241474
895.174258,740.205942,444.123565,-10495.508323
895.174578,0.000000,370.102971,-9882.631924
895.174898,370.102971,296.082377,-11568.042020
895.175218,518.144159,74.020594,-10189.070123
895.175538,1184.329507,0.000000,-10112.460574
895.175859,666.185348,296.082377,-10112.460574
895.176179,296.082377,148.041188,-9193.145976
895.176499,296.082377,0.000000,-10265.679673
895.176819,444.123565,-148.041188,-9806.022374
895.177139,370.102971,-666.185348,-10035.851024
895.177459,-518.144159,-666.185348,-10189.070123
895.177780,-444.123565,-666.185348,-9806.022374
895.178100,-222.061783,-518.144159,-10112.460574
895.178420,-148.041188,-148.041188,-9882.631924
895.178740,-1036.288319,0.000000,-9959.241474
895.179060,-1036.288319,-444.123565,-9882.631924
895.179380,0.000000,-1036.288319,-9806.022374
895.179701,0.000000,-1406.391290,-9959.241474
895.180021,-666.185348,-1776.494261,-9882.631924
895.180341,-1036.288319,-2072.576638,-9882.631924
895.180661,-518.144159,-1258.350101,-9729.412825
895.180981,-592.164754,-1628.453072,-9806.022374
895.181301,-1628.453072,-2072.576638,-9959.241474
895.181622,-1924.535449,-2146.597232,-9806.022374
895.181942,-1332.370696,-1702.473667,-10265.679673
895.182262,-518.144159,-1332.370696,-9959.241474
895.182582,-1332.370696,-962.267725,-10035.851024
895.182902,-2146.597232,-1776.494261,-10112.460574
895.183222,-1480.411884,-1480.411884,-9959.241474
895.183542,0.000000,-1258.350101,-10035.851024
895.183863,-666.185348,-1184.329507,-10112.460574
895.184183,-1924.535449,-1924.535449,-10495.508323
895.184503,-2886.803174,-2886.803174,-9959.241474
895.184823,-3034.844362,-3256.906145,-9576.193725
895.185143,-2368.659014,-3108.864956,-10112.460574
895.185463,-2220.617826,-2960.823768,-9882.631924
895.185784,-2738.761985,-2738.761985,-10342.289223
895.186104,-2294.638420,-2368.659014,-9882.631924
895.186424,-518.144159,-1702.473667,-10265.679673
895.186744,518.144159,-740.205942,-10725.336972
895.187064,222.061783,-444.123565,-10418.898773
895.187384,-740.205942,-888.247130,-10572.117872
895.187705,-1924.535449,-1628.453072,-9806.022374
895.188025,-3034.844362,-2664.741391,-10265.679673
895.188345,-4885.359217,-3478.967927,-9806.022374
895.188665,-5551.544565,-4293.194464,-9806.022374
895.188985,-4589.276840,-4737.318029,-9806.022374
895.189305,-2368.659014,-4367.215058,-9346.365076
895.189626,-444.123565,-3701.029710,-9959.241474
895.189946,592.164754,-1628.453072,-10035.851024
895.190266,1110.308913,222.061783,-10495.508323
895.190586,2368.659014,2072.576638,-9959.241474
895.190906,2738.761985,1258.350101,-10418.898773
895.191226,1776.494261,148.041188,-10572.117872
895.191546,296.082377,-1480.411884,-10265.679673
895.191867,-1480.411884,-2368.659014,-10418.898773
895.192187,-3182.885551,-3330.926739,-10035.851024
895.192507,-5033.400406,-3478.967927,-9806.022374
895.192827,-5625.565159,-4071.132681,-9422.974625
895.193147,-3775.050304,-4811.338623,-9422.974625
895.193467,-148.041188,-4737.318029,-9576.193725
895.193788,1480.411884,-3330.926739,-10189.070123
895.194108,2516.700203,-962.267725,-10189.070123
895.194428,3330.926739,1628.453072,-10189.070123
895.194748,4219.173869,3627.009116,-10801.946522
895.195068,3552.988522,3478.967927,-11338.213370
895.195388,-222.061783,1776.494261,-10878.556072
895.195709,-4219.173869,-1554.432478,-9959.241474
895.196029,-6291.750507,-4367.215058,-9422.974625
895.196349,-5995.668130,-6809.894666,-8963.317327
895.196669,-4737.318029,-7846.182985,-9116.536426
895.196989,-3997.112087,-7402.059420,-9039.926876
895.197309,-2664.741391,-4885.359217,-9039.926876
895.197630,0.000000,-296.082377,-9193.145976
895.197950,2146.597232,3923.091493,-10572.117872
895.198270,2516.700203,4959.379811,-10572.117872
895.198590,2442.679609,4145.153275,-10572.117872
895.198910,2960.823768,1628.453072,-10572.117872
895.199230,1850.514855,-1110.308913,-10495.508323
895.199551,-1036.288319,-2590.720797,-10112.460574
895.199871,-3997.112087,-3108.864956,-10035.851024
895.200191,-5403.503377,-2886.803174,-9959.241474
895.200511,-6735.874072,-2368.659014,-9576.193725
895.200831,-7624.121203,-3775.050304,-9576.193725
895.201151,-6513.812290,-4737.318029,-9269.755526
895.201471,-2812.782580,-4959.379811,-9576.193725
895.201792,2072.576638,-3404.947333,-10418.898773
895.202112,3997.112087,-222.061783,-10189.070123
895.202432,2886.803174,3330.926739,-10955.165621
895.202752,1332.370696,4293.194464,-11108.384721
895.203072,1184.329507,3182.885551,-11108.384721
895.203392,1184.329507,962.267725,-9882.631924
895.203713,-1110.308913,-2072.576638,-10495.508323
895.204033,-4515.256246,-4515.256246,-10418.898773
895.204353,-6957.935855,-5477.523971,-9806.022374
895.204673,-8290.306550,-4441.235652,-9806.022374
895.204993,-7772.162391,-3701.029710,-9193.145976
895.205313,-4589.276840,-4515.256246,-8886.707777
895.205634,0.000000,-4441.235652,-9576.193725
895.205954,3256.906145,-3923.091493,-10342.289223
895.206274,3923.091493,-2886.803174,-10342.289223
895.206594,3256.906145,444.123565,-10418.898773
895.206914,3552.988522,3108.864956,-10495.508323
895.207234,3701.029710,3701.029710,-10955.165621
895.207555,1628.453072,1924.535449,-10418.898773
895.207875,-1998.556043,-1480.411884,-10189.070123
895.208195,-5847.626942,-4515.256246,-10035.851024
895.208515,-7994.224174,-6365.771101,-9652.803275
895.208835,-7105.977043,-8438.347739,-8886.707777
895.209155,-5921.647536,-8290.306550,-8733.488677
895.209475,-3849.070898,-7994.224174,-8733.488677
895.209796,-2146.597232,-5773.606348,-9116.536426
895.210116,888.247130,-1850.514855,-9806.022374
895.210436,4959.379811,1850.514855,-10495.508323
895.210756,6883.915261,2960.823768,-11491.432470
895.211076,5107.421000,3701.029710,-11644.651570
895.211396,148.041188,1184.329507,-11031.775171
895.211717,-3478.967927,-1406.391290,-10342.289223
895.212037,-3997.112087,-3997.112087,-9882.631924
895.212357,-4737.318029,-5477.523971,-10342.289223
895.212677,-5921.647536,-5773.606348,-10265.679673
895.212997,-5773.606348,-6809.894666,-9499.584175
895.213317,-3552.988522,-5995.668130,-8503.660028
895.213638,-1332.370696,-3627.009116,-10572.117872
895.213958,-1702.473667,-1332.370696,-10495.508323
895.214278,-2960.823768,370.102971,-10342.289223
895.214598,-1776.494261,444.123565,-9729.412825
895.214918,1702.473667,1480.411884,-10495.508323
895.215238,4737.318029,814.226536,-10418.898773
895.215559,2294.638420,-592.164754,-11031.775171
895.215879,74.020594,-2220.617826,-9806.022374
895.216199,-2220.617826,-2738.761985,-9806.022374
895.216519,-5477.523971,-3108.864956,-9882.631924
895.216839,-7402.059420,-3923.091493,-8963.317327
895.217159,-6809.894666,-4811.338623,-9193.145976
895.217480,-4071.132681,-4811.338623,-8810.098227
895.217800,-814.226536,-4959.379811,-9499.584175
895.218120,1998.556043,-3552.988522,-9652.803275
895.218440,2294.638420,-1036.288319,-9959.241474
895.218760,2220.617826,1184.329507,-10418.898773
895.219080,518.144159,3034.844362,-11338.213370
895.219400,-666.185348,1554.432478,-10265.679673
895.219721,518.144159,296.082377,-10418.898773
895.220041,888.247130,-1998.556043,-10955.165621
895.220361,-962.267725,-2664.741391,-9806.022374
895.220681,-3108.864956,-3552.988522,-9959.241474
895.221001,-4293.194464,-2516.700203,-10035.851024
895.221321,-5033.400406,-814.226536,-10801.946522
895.221642,-4441.235652,-1628.453072,-10418.898773
895.221962,-4219.173869,-3701.029710,-9806.022374
895.222282,-2664.741391,-3627.009116,-9422.974625
895.222602,-518.144159,-3701.029710,-10801.946522
895.222922,3034.844362,0.000000,-10878.556072
895.223242,4367.215058,2368.659014,-11338.213370
895.223563,1628.453072,2812.782580,-11184.994271
895.223883,888.247130,3701.029710,-11338.213370
895.224203,148.041188,1998.556043,-10955.165621
895.224523,222.061783,-1110.308913,-10495.508323
895.224843,-1702.473667,-3404.947333,-10342.289223
895.225163,-4293.194464,-6217.729913,-9346.365076
895.225484,-3849.070898,-4885.359217,-8963.317327
895.225804,-3627.009116,-3330.926739,-9652.803275
895.226124,-1702.473667,-3108.864956,-8580.269578
895.226406,-1480.411884,-2738.761985,-9193.145976
895.226727,2368.659014,-1776.494261,-9422.974625
895.227047,4219.173869,0.000000,-10572.117872
895.227367,2516.700203,1702.473667,-10189.070123
895.227687,-296.082377,2738.761985,-9959.241474
895.228007,-1924.535449,740.205942,-9806.022374
895.228328,-2664.741391,0.000000,-9422.974625
895.228648,-740.205942,-1332.370696,-10035.851024
895.228968,74.020594,-2664.741391,-9959.241474
895.229288,-1702.473667,-5329.482782,-9806.022374
895.229608,-3849.070898,-6439.791695,-8963.317327
895.229929,-5403.503377,-4589.276840,-9576.193725
895.230249,-4663.297435,-1850.514855,-9269.755526
895.230569,-2146.597232,-592.164754,-10342.289223
895.230889,740.205942,1036.288319,-10878.556072
895.231209,2738.761985,1776.494261,-10878.556072
895.231529,2516.700203,2368.659014,-11644.651570
895.231850,3552.988522,888.247130,-11951.089769
895.232170,3182.885551,-148.041188,-11108.384721
895.232490,1924.535449,0.000000,-10648.727422
895.232810,-2368.659014,-2368.659014,-10648.727422
895.233130,-5995.668130,-2738.761985,-9499.584175
895.233451,-7031.956449,-3849.070898,-9806.022374
895.233771,-6143.709319,-3997.112087,-10035.851024
895.234091,-2960.823768,-2294.638420,-9806.022374
895.234411,-148.041188,-1628.453072,-10265.679673
895.234731,1480.411884,-1332.370696,-10725.336972
895.235052,2590.720797,148.041188,-10035.851024
895.235372,1924.535449,1628.453072,-10495.508323
895.235692,370.102971,1924.535449,-10342.289223
895.236012,1110.308913,1850.514855,-10189.070123
895.236332,1332.370696,0.000000,-10265.679673
895.236652,3256.906145,-222.061783,-10112.460574
895.236973,1406.391290,-1184.329507,-10495.508323
895.237293,-3849.070898,-1998.556043,-9576.193725
895.237613,-5329.482782,-3034.844362,-9039.926876
895.237933,-1776.494261,-3108.864956,-9576.193725
895.238253,296.082377,-2442.679609,-9269.755526
895.238574,-370.102971,-1702.473667,-9882.631924
895.238894,-1924.535449,0.000000,-9652.803275
895.239214,-296.082377,0.000000,-9806.022374
895.239534,3182.885551,1480.411884,-10189.070123
895.239854,5699.585753,4367.215058,-10495.508323
895.240175,4293.194464,2886.803174,-10955.165621
895.240495,3478.967927,666.185348,-11108.384721
895.240815,740.205942,-2368.659014,-9806.022374
895.241135,-444.123565,-2960.823768,-10265.679673
895.241455,0.000000,-962.267725,-9806.022374
895.241775,-1184.329507,-962.267725,-11491.432470
895.242096,-666.185348,-518.144159,-10112.460574
895.242416,-1036.288319,962.267725,-10648.727422
895.242736,518.144159,370.102971,-9959.241474
895.243056,3552.988522,148.041188,-9652.803275
895.243376,5403.503377,1628.453072,-10801.946522
895.243697,3997.112087,1036.288319,-10878.556072
895.244017,1554.432478,222.061783,-10495.508323
895.244337,0.000000,444.123565,-10725.336972
895.244657,-592.164754,814.226536,-9882.631924
895.244977,-148.041188,2960.823768,-10495.508323
895.245297,222.061783,-296.082377,-10189.070123
895.245618,1184.329507,-1850.514855,-10342.289223
895.245938,1258.350101,-1332.370696,-9499.584175
895.246258,1332.370696,-2368.659014,-10189.070123
895.246578,1850.514855,-2516.700203,-9959.241474
895.246898,1924.535449,-962.267725,-9499.584175
895.247219,222.061783,1998.556043,-9882.631924
895.247539,74.020594,3775.050304,-9499.584175
895.247859,-148.041188,4071.132681,-10495.508323
895.248179,1776.494261,2368.659014,-9959.241474
895.248499,2516.700203,666.185348,-9499.584175
895.248820,962.267725,-370.102971,-9959.241474
895.249140,1480.411884,-1480.411884,-9422.974625
895.249460,-1184.329507,-888.247130,-10495.508323
895.249780,-2442.679609,-1184.329507,-9193.145976
895.250100,-3256.906145,-2442.679609,-9652.803275
895.250420,-2146.597232,0.000000,-9422.974625
895.250741,-1702.473667,1406.391290,-10495.508323
895.251061,-592.164754,1184.329507,-10725.336972
895.251381,888.247130,2812.782580,-10572.117872
895.251701,1332.370696,2368.659014,-10955.165621
895.252021,518.144159,-740.205942,-10418.898773
895.252342,148.041188,74.020594,-10112.460574
895.252662,-1184.329507,-222.061783,-11338.213370
895.252982,-296.082377,1480.411884,-10265.679673
895.253302,-1110.308913,1332.370696,-11491.432470
895.253622,-2072.576638,666.185348,-10265.679673
895.253943,-1628.453072,-888.247130,-10112.460574
895.254263,1036.288319,-1554.432478,-11031.775171
895.254583,1776.494261,-148.041188,-10112.460574
895.254903,1258.350101,-370.102971,-10495.508323
895.255223,74.020594,222.061783,-10189.070123
895.255543,1406.391290,1036.288319,-10265.679673
895.255864,2442.679609,1924.535449,-10342.289223
895.256184,1110.308913,2516.700203,-10112.460574
895.256504,148.041188,1406.391290,-9806.022374
895.256824,444.123565,444.123565,-9882.631924
895.257144,1776.494261,-740.205942,-9729.412825
895.257465,1776.494261,-888.247130,-9193.145976
895.257785,444.123565,-1480.411884,-9882.631924
895.258105,962.267725,-666.185348,-9499.584175
895.258425,148.041188,-666.185348,-9499.584175
895.258745,814.226536,-444.123565,-9882.631924
895.259066,1184.329507,-1332.370696,-8886.707777
895.259386,2590.720797,296.082377,-9806.022374
895.259706,2294.638420,2738.761985,-10572.117872
895.260026,1702.473667,3701.029710,-10265.679673
895.260346,3108.864956,2294.638420,-10725.336972
895.260666,3330.926739,-740.205942,-9882.631924
895.260987,2590.720797,-2368.659014,-10035.851024
895.261307,0.000000,-1628.453072,-10112.460574
895.261627,-592.164754,-1036.288319,-10189.070123
895.261947,-1110.308913,2812.782580,-10495.508323
895.262267,-888.247130,2960.823768,-11414.822920
895.262588,-1184.329507,1406.391290,-10035.851024
895.262908,0.000000,-666.185348,-10495.508323
895.263228,814.226536,-1406.391290,-10112.460574
895.263548,962.267725,-962.267725,-10801.946522
895.263868,2368.659014,296.082377,-10725.336972
895.264189,2590.720797,74.020594,-10801.946522
895.264509,2146.597232,666.185348,-10112.460574
895.264829,370.102971,2294.638420,-10572.117872
895.265149,-888.247130,3182.885551,-11031.775171
895.265469,-1850.514855,2590.720797,-10725.336972
895.265789,-1332.370696,-444.123565,-10418.898773
895.266110,-740.205942,-2812.782580,-9499.584175
895.266430,-666.185348,-4441.235652,-9039.926876
895.266750,74.020594,-3478.967927,-9806.022374
895.267070,-222.061783,-1110.308913,-9422.974625
895.267390,-1554.432478,2886.803174,-11184.994271
895.267711,-1110.308913,3552.988522,-9806.022374
895.268031,0.000000,1924.535449,-9652.803275
895.268351,148.041188,74.020594,-9959.241474
895.268671,-666.185348,-2220.617826,-9193.145976
895.268991,-1480.411884,-2812.782580,-9959.241474
895.269311,-2146.597232,-2442.679609,-9806.022374
895.269632,-1554.432478,-2590.720797,-9116.536426
895.269952,296.082377,-2368.659014,-9116.536426
895.270272,0.000000,1110.308913,-10035.851024
895.270592,-1554.432478,1110.308913,-10342.289223
895.270912,-1850.514855,1702.473667,-10572.117872
895.271233,-888.247130,2146.597232,-10035.851024
895.271553,962.267725,814.226536,-10418.898773
895.271873,4367.215058,-1110.308913,-10418.898773
895.272193,2294.638420,-1850.514855,-10495.508323
895.272513,148.041188,-1184.329507,-10418.898773
895.272834,0.000000,1184.329507,-10572.117872
895.273154,740.205942,2294.638420,-10955.165621
895.273474,1332.370696,3552.988522,-10801.946522
895.273794,1406.391290,1258.350101,-10801.946522
895.274114,444.123565,222.061783,-10495.508323
895.274434,1258.350101,888.247130,-10801.946522
895.274755,666.185348,222.061783,-11031.775171
895.275075,1258.350101,-1258.350101,-9806.022374
895.275395,1776.494261,-1332.370696,-9806.022374
895.275715,444.123565,-518.144159,-9576.193725
895.276035,1258.350101,2072.576638,-9729.412825
895.276356,592.164754,2664.741391,-10112.460574
895.276676,3108.864956,1554.432478,-9959.241474
895.276996,3404.947333,-740.205942,-8886.707777
895.277316,4441.235652,-1332.370696,-9959.241474
895.277636,3404.947333,-1628.453072,-8963.317327
895.277957,148.041188,-666.185348,-9499.584175
895.278277,-1480.411884,740.205942,-9499.584175
895.278597,-888.247130,592.164754,-9652.803275
895.278917,1036.288319,0.000000,-9806.022374
895.279237,1998.556043,-444.123565,-9806.022374
895.279557,1110.308913,444.123565,-9422.974625
895.279878,592.164754,814.226536,-9959.241474
895.280198,2590.720797,1036.288319,-9193.145976
895.280518,4219.173869,296.082377,-10035.851024
895.280838,1776.494261,1258.350101,-10725.336972
895.281158,-1110.308913,666.185348,-9882.631924
895.281479,-1406.391290,-370.102971,-10189.070123
895.281799,222.061783,-592.164754,-9806.022374
895.282119,2516.700203,814.226536,-10648.727422
895.282439,2368.659014,518.144159,-11108.384721
895.282759,1480.411884,296.082377,-10572.117872
895.283080,-740.205942,2220.617826,-10265.679673
895.283400,-2516.700203,2960.823768,-10955.165621
895.283720,-444.123565,1998.556043,-11261.603821
895.284040,-814.226536,1258.350101,-10495.508323
895.284360,-1776.494261,888.247130,-10801.946522
895.284680,-888.247130,2442.679609,-10035.851024
895.285001,-1628.453072,3627.009116,-10878.556072
895.285321,148.041188,4293.194464,-10955.165621
895.285641,1332.370696,1480.411884,-9959.241474
895.285961,814.226536,-222.061783,-9806.022374
895.286281,-74.020594,-3182.885551,-9269.755526
895.286602,-2220.617826,-3182.885551,-8963.317327
895.286922,-3182.885551,-962.267725,-9269.755526
895.287242,-814.226536,518.144159,-9039.926876
895.287562,518.144159,2368.659014,-9422.974625
895.287882,1628.453072,962.267725,-10112.460574
895.288203,962.267725,-1258.350101,-9116.536426
895.288523,0.000000,-1776.494261,-9193.145976
895.288843,1184.329507,-1406.391290,-9652.803275
895.289163,2664.741391,-666.185348,-9116.536426
895.289483,2294.638420,1110.308913,-10035.851024
895.289803,1406.391290,1554.432478,-10648.727422
895.290124,-1332.370696,2072.576638,-10035.851024
895.290444,-1776.494261,2886.803174,-10189.070123
895.290764,592.164754,2590.720797,-10189.070123
895.291084,3182.885551,2146.597232,-10265.679673
895.291404,3330.926739,1036.288319,-11261.603821
895.291725,-518.144159,-1776.494261,-9959.241474
895.292045,-814.226536,-2960.823768,-9422.974625
895.292365,444.123565,-2368.659014,-10418.898773
895.292685,2812.782580,0.000000,-10342.289223
895.293005,2812.782580,2960.823768,-10572.117872
895.293325,1406.391290,3330.926739,-10648.727422
895.293646,740.205942,3775.050304,-10265.679673
895.293966,1036.288319,2738.761985,-10955.165621
895.294286,1480.411884,1110.308913,-10189.070123
895.294606,2738.761985,222.061783,-11031.775171
895.294926,1406.391290,-2368.659014,-10495.508323
895.295247,0.000000,-2220.617826,-9729.412825
895.295567,-2072.576638,-888.247130,-9346.365076
895.295887,-2072.576638,1480.411884,-9806.022374
895.296207,-888.247130,2738.761985,-9882.631924
895.296527,2220.617826,3775.050304,-10725.336972
895.296848,1850.514855,2368.659014,-10342.289223
895.297168,-296.082377,-370.102971,-9652.803275
895.297488,0.000000,-2220.617826,-9576.193725
895.297808,2368.659014,-3627.009116,-9346.365076
895.298128,3923.091493,-3108.864956,-9652.803275
895.298448,2294.638420,-1258.350101,-9729.412825
895.298769,-370.102971,222.061783,-9882.631924
895.299089,-2590.720797,2368.659014,-9959.241474
895.299409,-2072.576638,2146.597232,-10265.679673
895.299729,444.123565,1258.350101,-10572.117872
895.300049,814.226536,-1110.308913,-10112.460574
895.300370,666.185348,-2072.576638,-10189.070123
895.300690,-2220.617826,-1406.391290,-9499.584175
895.301010,-2664.741391,-1628.453072,-10189.070123
895.301330,-222.061783,-1036.288319,-10342.289223
895.301650,962.267725,666.185348,-10112.460574
895.301971,1924.535449,2220.617826,-11261.603821
895.302291,666.185348,2294.638420,-11261.603821
895.302611,-592.164754,2590.720797,-10801.946522
895.302931,-666.185348,2590.720797,-10342.289223
895.303251,296.082377,814.226536,-10342.289223
895.303571,740.205942,-1258.350101,-11031.775171
895.303892,74.020594,-2368.659014,-10112.460574
895.304212,-2368.659014,-518.144159,-10418.898773
895.304532,-3182.885551,3108.864956,-9499.584175
895.304852,-1702.473667,5403.503377,-10035.851024
895.305172,-296.082377,4663.297435,-10572.117872
895.305493,1702.473667,1702.473667,-9806.022374
895.305813,814.226536,-2072.576638,-9576.193725
895.306133,1184.329507,-3849.070898,-9039.926876
895.306453,1776.494261,-3404.947333,-9422.974625
895.306773,1554.432478,-2664.741391,-9499.584175
895.307094,0.000000,-296.082377,-9499.584175
895.307414,740.205942,3034.844362,-10035.851024
895.307734,592.164754,2812.782580,-10112.460574
895.308054,888.247130,3404.947333,-10342.289223
895.308374,0.000000,888.247130,-9576.193725
895.308694,1924.535449,-1480.411884,-9576.193725
895.309015,1110.308913,-2294.638420,-9346.365076
895.309335,-222.061783,-3701.029710,-9269.755526
895.309655,814.226536,-2146.597232,-9422.974625
895.309975,1036.288319,518.144159,-9806.022374
895.310295,4219.173869,1998.556043,-9882.631924
895.310616,3775.050304,4441.235652,-10572.117872
895.310936,2960.823768,4663.297435,-11031.775171
895.311256,3108.864956,1702.473667,-10112.460574
895.311576,3775.050304,-518.144159,-10495.508323
895.311896,3627.009116,-1702.473667,-10112.460574
895.312217,962.267725,-1480.411884,-10189.070123
895.312537,-592.164754,814.226536,-10189.070123
895.312857,-888.247130,2590.720797,-10801.946522
895.313177,0.000000,5107.421000,-10801.946522
895.313497,1628.453072,3404.947333,-10725.336972
895.313817,2664.741391,1776.494261,-10112.460574
895.314138,2960.823768,-444.123565,-10572.117872
895.314458,1702.473667,-1554.432478,-10648.727422
895.314778,-1332.370696,-1850.514855,-10265.679673
895.315098,-1184.329507,-592.164754,-10112.460574
895.315418,-222.061783,2146.597232,-9959.241474
895.315739,1258.350101,3256.906145,-10112.460574
895.316059,1184.329507,3108.864956,-10572.117872
895.316379,0.000000,1924.535449,-10189.070123
895.316699,-888.247130,814.226536,-10035.851024
895.317019,-296.082377,-1036.288319,-10035.851024
895.317340,2072.576638,-3701.029710,-9346.365076
895.317660,592.164754,-3923.091493,-9269.755526
895.317980,-2368.659014,-1998.556043,-9806.022374
895.318300,-3404.947333,-148.041188,-9269.755526
895.318620,-2368.659014,2072.576638,-9116.536426
895.318940,-370.102971,2368.659014,-10265.679673
895.319261,1924.535449,2368.659014,-9959.241474
895.319581,2368.659014,1776.494261,-10495.508323
895.319901,666.185348,222.061783,-10418.898773
895.320221,-518.144159,-1258.350101,-9806.022374
895.320541,-1998.556043,-2960.823768,-9576.193725
895.320862,-1850.514855,-814.226536,-9806.022374
895.321182,-1998.556043,1554.432478,-10342.289223
895.321502,-2146.597232,3182.885551,-11184.994271
895.321822,-1776.494261,3552.988522,-10801.946522
895.322142,-296.082377,1406.391290,-10648.727422
895.322462,1332.370696,0.000000,-10342.289223
895.322783,2146.597232,-1628.453072,-10189.070123
895.323103,962.267725,-1184.329507,-10035.851024
895.323423,-370.102971,-1702.473667,-10035.851024
895.323743,-1850.514855,-444.123565,-10189.070123
895.324063,-2368.659014,444.123565,-9882.631924
895.324384,0.000000,2738.761985,-10035.851024
895.324704,1554.432478,2812.782580,-10878.556072
895.325024,3256.906145,2146.597232,-10495.508323
895.325344,3108.864956,-814.226536,-10495.508323
895.325664,1480.411884,-2960.823768,-9269.755526
895.325984,518.144159,-3701.029710,-9193.145976
895.326304,666.185348,-1628.453072,-10035.851024
895.326625,2738.761985,148.041188,-10189.070123
895.326945,1258.350101,2220.617826,-10112.460574
895.327265,888.247130,3552.988522,-9269.755526
895.327585,1850.514855,2442.679609,-10112.460574
895.327905,2812.782580,74.020594,-10112.460574
895.328225,3701.029710,-814.226536,-10035.851024
895.328545,2368.659014,-1184.329507,-10035.851024
895.328865,1258.350101,-592.164754,-9806.022374
895.329185,1184.329507,1332.370696,-10265.679673
895.329505,1702.473667,962.267725,-10035.851024
895.329825,1776.494261,1480.411884,-9806.022374
895.330145,518.144159,2072.576638,-10725.336972
895.330466,1850.514855,444.123565,-10572.117872
895.330786,2886.803174,222.061783,-10189.070123
895.331106,1480.411884,0.000000,-10342.289223
895.331426,518.144159,444.123565,-10035.851024
895.331746,296.082377,2220.617826,-10265.679673
895.332066,-888.247130,2516.700203,-10189.070123
895.332386,-1258.350101,518.144159,-9882.631924
895.332706,-666.185348,0.000000,-9806.022374
895.333026,888.247130,-1332.370696,-10418.898773
895.333346,2516.700203,-1110.308913,-9959.241474
895.333666,1110.308913,-2664.741391,-9882.631924
895.333986,592.164754,-1332.370696,-9806.022374
895.334307,-1554.432478,-296.082377,-9959.241474
895.334627,518.144159,1628.453072,-10648.727422
895.334947,-1258.350101,3256.906145,-10265.679673
895.335267,-1184.329507,1554.432478,-10725.336972
895.335587,296.082377,-962.267725,-9729.412825
895.335907,814.226536,-740.205942,-9959.241474
895.336227,-740.205942,-666.185348,-9806.022374
895.336547,-1554.432478,444.123565,-10189.070123
895.336867,-222.061783,-296.082377,-10112.460574
895.337187,0.000000,-296.082377,-9729.412825
895.337507,-1110.308913,666.185348,-10801.946522
895.337828,-1184.329507,1998.556043,-10342.289223
895.338148,-1480.411884,2812.782580,-10495.508323
895.338468,-1480.411884,2146.597232,-10418.898773
895.338788,-888.247130,74.020594,-9806.022374
895.339108,-74.020594,-2442.679609,-9806.022374
895.339428,-888.247130,-2886.803174,-10112.460574
895.339748,-740.205942,-222.061783,-9959.241474
895.340068,-666.185348,2442.679609,-10572.117872
895.340388,518.144159,2738.761985,-10955.165621
895.340708,-370.102971,1850.514855,-10648.727422
895.341028,888.247130,-148.041188,-10418.898773
895.341348,-1480.411884,1036.288319,-10112.460574
895.341669,-1110.308913,2146.597232,-10648.727422
895.341989,1184.329507,2664.741391,-10648.727422
895.342309,2220.617826,1850.514855,-10189.070123
895.342629,2590.720797,222.061783,-9576.193725
895.342949,1258.350101,-1998.556043,-9039.926876
895.343269,1332.370696,-2516.700203,-9499.584175
895.343589,1480.411884,0.000000,-10112.460574
895.343909,518.144159,666.185348,-10112.460574
895.344229,1258.350101,1850.514855,-9959.241474
895.344549,1998.556043,814.226536,-9806.022374
895.344869,296.082377,74.020594,-9806.022374
895.345190,-1110.308913,-1628.453072,-9499.584175
895.345510,1184.329507,-1480.411884,-9806.022374
895.345830,2960.823768,370.102971,-9806.022374
895.346150,2368.659014,444.123565,-10189.070123
895.346470,1258.350101,222.061783,-9193.145976
895.346790,888.247130,0.000000,-10265.679673
895.347110,1998.556043,592.164754,-10112.460574
895.347430,1924.535449,-1036.288319,-10035.851024
895.347750,2664.741391,518.144159,-10342.289223
895.348070,3182.885551,1110.308913,-10265.679673
895.348390,3552.988522,1850.514855,-10495.508323
895.348710,2442.679609,1702.473667,-10572.117872
895.349031,296.082377,1480.411884,-10801.946522
895.349351,-2368.659014,1184.329507,-10112.460574
895.349671,-1702.473667,0.000000,-10878.556072
895.349991,-814.226536,-888.247130,-10572.117872
895.350311,518.144159,-1554.432478,-10112.460574
895.350631,1258.350101,-1036.288319,-10189.070123
895.350951,2146.597232,-148.041188,-10495.508323
895.351271,3478.967927,1850.514855,-10342.289223
895.351591,2516.700203,2368.659014,-10955.165621
895.351911,444.123565,1258.350101,-10495.508323
895.352231,-1184.329507,-296.082377,-9882.631924
895.352551,-962.267725,-1850.514855,-10035.851024
895.352872,-962.267725,-1924.535449,-9652.803275
895.353192,-2368.659014,-666.185348,-10112.460574
895.353512,-1332.370696,-1258.350101,-9652.803275
895.353832,-296.082377,-1480.411884,-9882.631924
895.354152,-1184.329507,-1036.288319,-9806.022374
895.354472,-2294.638420,-1184.329507,-9652.803275
895.354792,-1554.432478,0.000000,-9806.022374
895.355112,296.082377,1628.453072,-10418.898773
895.355432,370.102971,1628.453072,-10495.508323
895.355752,370.102971,1036.288319,-9882.631924
895.356072,-666.185348,0.000000,-9806.022374
895.356393,74.020594,0.000000,-10189.070123
895.356713,1332.370696,-814.226536,-10189.070123
895.357033,-592.164754,222.061783,-9959.241474
895.357353,-2294.638420,-296.082377,-9806.022374
895.357673,-1480.411884,74.020594,-9652.803275
895.357993,-740.205942,0.000000,-9959.241474
895.358313,-222.061783,-1332.370696,-9959.241474
895.358633,0.000000,-1036.288319,-9193.145976
895.358953,-888.247130,-592.164754,-9959.241474
895.359273,1628.453072,592.164754,-10265.679673
895.359593,2368.659014,1998.556043,-9882.631924
895.359913,1332.370696,1554.432478,-10572.117872
895.360234,592.164754,444.123565,-9346.365076
895.360554,-148.041188,-222.061783,-10189.070123
895.360874,222.061783,-666.185348,-10648.727422
895.361194,962.267725,-148.041188,-10035.851024
895.361514,3552.988522,148.041188,-9959.241474
895.361834,3552.988522,814.226536,-10189.070123
895.362154,1776.494261,962.267725,-10495.508323
895.362474,296.082377,1924.535449,-10495.508323
895.362794,0.000000,2146.597232,-10189.070123
895.363114,2368.659014,2220.617826,-10572.117872
895.363434,3849.070898,592.164754,-10189.070123
895.363755,2812.782580,-444.123565,-10265.679673
895.364075,666.185348,-888.247130,-9882.631924
895.364395,2294.638420,-518.144159,-11721.261119
895.364715,1184.329507,1184.329507,-10495.508323
895.365035,222.061783,3849.070898,-11261.603821
895.365355,1110.308913,3775.050304,-10495.508323
895.365675,740.205942,3182.885551,-11108.384721
895.365995,0.000000,2442.679609,-10648.727422
895.366315,1110.308913,1628.453072,-9959.241474
895.366635,888.247130,0.000000,-10265.679673
895.366955,2516.700203,-1998.556043,-9652.803275
895.367275,3404.947333,-2590.720797,-9193.145976
895.367596,1332.370696,-592.164754,-9959.241474
895.367916,-1036.288319,1850.514855,-9346.365076
895.368236,-1036.288319,2516.700203,-9806.022374
895.368556,-222.061783,3404.947333,-10112.460574
895.368876,888.247130,1480.411884,-10035.851024
895.369196,1258.350101,-1480.411884,-9729.412825
895.369516,-740.205942,-3404.947333,-9346.365076
895.369836,-2072.576638,-2960.823768,-9422.974625
895.370156,-2146.597232,-1480.411884,-9806.022374
895.370476,-962.267725,-370.102971,-10035.851024
895.370796,-296.082377,1258.350101,-10265.679673
895.371117,-1702.473667,2220.617826,-10035.851024
895.371437,-1406.391290,1258.350101,-10112.460574
895.371757,-592.164754,-444.123565,-10495.508323
895.372077,518.144159,-1554.432478,-10112.460574
895.372397,1702.473667,-1702.473667,-10112.460574
895.372717,1628.453072,-1184.329507,-9959.241474
895.373037,-888.247130,-296.082377,-11491.432470
895.373357,-2664.741391,-148.041188,-10112.460574
895.373677,-2442.679609,0.000000,-10189.070123
895.373997,-1110.308913,666.185348,-9806.022374
895.374317,666.185348,666.185348,-9729.412825
895.374637,-740.205942,370.102971,-10801.946522
895.374958,-1702.473667,-1184.329507,-10189.070123
895.375278,-1184.329507,-2220.617826,-10418.898773
895.375598,0.000000,-2738.761985,-9806.022374
895.375918,1184.329507,-1998.556043,-10418.898773
895.376238,370.102971,1258.350101,-10572.117872
895.376558,962.267725,3108.864956,-11108.384721
895.376878,1036.288319,2886.803174,-11108.384721
895.377198,2146.597232,2220.617826,-10035.851024
895.377518,1628.453072,888.247130,-10035.851024
895.377838,1406.391290,-814.226536,-10265.679673
895.378158,592.164754,-2590.720797,-9806.022374
895.378478,-148.041188,-4219.173869,-9729.412825
895.378799,-814.226536,-3478.967927,-8810.098227
895.379119,-666.185348,-1554.432478,-9269.755526
895.379439,1924.535449,1110.308913,-10112.460574
895.379759,3404.947333,3701.029710,-10495.508323
895.380079,2590.720797,3478.967927,-10418.898773
895.380399,2146.597232,444.123565,-9269.755526
895.380719,2590.720797,-3182.885551,-9499.584175
895.381039,3775.050304,-4293.194464,-9193.145976
895.381359,2294.638420,-3108.864956,-9346.365076
895.381679,2072.576638,962.267725,-9959.241474
895.381999,0.000000,2664.741391,-9652.803275
895.382320,592.164754,3701.029710,-9806.022374
895.382640,1332.370696,3330.926739,-10035.851024
895.382960,3478.967927,1480.411884,-10035.851024
895.383280,2368.659014,-666.185348,-9959.241474
895.383600,1258.350101,-1036.288319,-10342.289223
895.383920,518.144159,-444.123565,-9576.193725
895.384240,370.102971,592.164754,-9806.022374
895.384560,1110.308913,1554.432478,-10725.336972
895.384880,1924.535449,2220.617826,-10418.898773
895.385200,888.247130,3997.112087,-10648.727422
895.385520,740.205942,2886.803174,-10725.336972
895.385840,1702.473667,2960.823768,-10035.851024
895.386161,1258.350101,370.102971,-10112.460574
895.386481,1480.411884,-1258.350101,-10112.460574
895.386801,74.020594,-2886.803174,-10265.679673
895.387121,-2368.659014,-1628.453072,-10342.289223
895.387441,-3034.844362,1406.391290,-10189.070123
895.387761,-1480.411884,3701.029710,-10189.070123
895.388081,1554.432478,4071.132681,-10418.898773
895.388401,2516.700203,2516.700203,-10342.289223
895.388721,-296.082377,296.082377,-10112.460574
895.389041,-1332.370696,-1702.473667,-10035.851024
895.389361,-1406.391290,-2146.597232,-9576.193725
895.389682,-1628.453072,-1332.370696,-9576.193725
895.390002,-1628.453072,74.020594,-9806.022374
895.390322,-2442.679609,962.267725,-9576.193725
895.390642,-2220.617826,962.267725,-10112.460574
895.390962,-962.267725,1702.473667,-9959.241474
895.391282,0.000000,2294.638420,-10035.851024
895.391602,2220.617826,1036.288319,-10648.727422
895.391922,2516.700203,-1184.329507,-9959.241474
895.392242,74.020594,-2590.720797,-9729.412825
895.392562,-518.144159,-2590.720797,-10035.851024
895.392882,-1850.514855,-148.041188,-9422.974625
895.393202,-1036.288319,2294.638420,-9882.631924
895.393523,1110.308913,4293.194464,-9959.241474
895.393843,1480.411884,3404.947333,-10495.508323
895.394163,2516.700203,592.164754,-10418.898773
895.394483,2368.659014,-3182.885551,-9729.412825
895.394803,740.205942,-3923.091493,-9882.631924
895.395123,-518.144159,-1480.411884,-10035.851024
895.395443,-1110.308913,1480.411884,-9959.241474
895.395763,-1776.494261,2220.617826,-9806.022374
895.396083,-962.267725,2368.659014,-10572.117872
895.396403,-1776.494261,444.123565,-10035.851024
895.396723,814.226536,444.123565,-10265.679673
895.397043,2960.823768,0.000000,-10495.508323
895.397364,3404.947333,888.247130,-10495.508323
895.397684,1776.494261,0.000000,-10418.898773
895.398004,518.144159,222.061783,-10342.289223
895.398324,-666.185348,370.102971,-10112.460574
895.398644,-814.226536,1776.494261,-9882.631924
895.398964,1110.308913,1258.350101,-10495.508323
895.399284,4071.132681,1776.494261,-10495.508323
895.399604,4441.235652,0.000000,-10495.508323
895.399924,3256.906145,-1628.453072,-10418.898773
895.400244,1628.453072,-1850.514855,-9729.412825
895.400564,740.205942,-2368.659014,-9729.412825
895.400885,1332.370696,592.164754,-9882.631924
895.401205,666.185348,3701.029710,-10418.898773
895.401525,0.000000,2960.823768,-10189.070123
895.401845,-518.144159,518.144159,-9729.412825
895.402165,592.164754,-2220.617826,-9576.193725
895.402485,2812.782580,-3552.988522,-9269.755526
895.402805,2960.823768,-2738.761985,-9806.022374
895.403125,1184.329507,0.000000,-9882.631924
895.403445,-296.082377,1850.514855,-9806.022374
895.403765,-888.247130,2072.576638,-9806.022374
895.404085,0.000000,0.000000,-9499.584175
895.404405,740.205942,-1036.288319,-9422.974625
895.404726,1184.329507,-2072.576638,-9882.631924
895.405046,1924.535449,-1850.514855,-9806.022374
895.405366,2516.700203,-1332.370696,-9806.022374
895.405686,666.185348,-740.205942,-8963.317327
895.406006,148.041188,518.144159,-9882.631924
895.406326,-666.185348,592.164754,-10495.508323
895.406646,-1332.370696,1480.411884,-10725.336972
895.406966,-2072.576638,2368.659014,-10801.946522
895.407286,-1924.535449,2072.576638,-11414.822920
895.407606,-1036.288319,-1332.370696,-10572.117872
895.407926,0.000000,-2738.761985,-10342.289223
895.408247,222.061783,-3182.885551,-10572.117872
895.408567,1554.432478,-1702.473667,-11874.480219
895.408887,-222.061783,1776.494261,-10418.898773
895.409207,-2220.617826,3404.947333,-10648.727422
895.409527,-1554.432478,4219.173869,-10342.289223
895.409847,-1184.329507,2368.659014,-10495.508323
895.410167,-1110.308913,1110.308913,-10801.946522
895.410487,-296.082377,-666.185348,-9806.022374
895.410807,-518.144159,-1480.411884,-10035.851024
895.411127,888.247130,-1480.411884,-10035.851024
895.411447,0.000000,-3108.864956,-9576.193725
895.411767,-1110.308913,-2220.617826,-9882.631924
895.412088,-2220.617826,148.041188,-9652.803275
895.412408,-2072.576638,3552.988522,-10801.946522
895.412728,-592.164754,5995.668130,-10648.727422
895.413048,1628.453072,5181.441594,-10648.727422
895.413368,2664.741391,2812.782580,-10342.289223
895.413688,2146.597232,-740.205942,-10112.460574
895.414008,666.185348,-3108.864956,-9729.412825
895.414328,2294.638420,-3330.926739,-8197.221829
895.414648,2590.720797,-1850.514855,-9039.926876
895.414968,814.226536,1332.370696,-9806.022374
895.415288,0.000000,3108.864956,-10342.289223
895.415608,-222.061783,3478.967927,-9729.412825
895.415929,0.000000,3256.906145,-9729.412825
895.416249,666.185348,2146.597232,-10342.289223
895.416569,1924.535449,-740.205942,-9806.022374
895.416889,2664.741391,-3256.906145,-9269.755526
895.417209,2220.617826,-3552.988522,-9346.365076
895.417529,296.082377,-2146.597232,-9346.365076
895.417849,1628.453072,1036.288319,-10035.851024
895.418169,3256.906145,3478.967927,-10112.460574
895.418489,3256.906145,4737.318029,-11108.384721
895.418809,2072.576638,4071.132681,-10265.679673
895.419129,1554.432478,2812.782580,-10495.508323
895.419450,148.041188,296.082377,-9652.803275
895.419770,1258.350101,-1184.329507,-10418.898773
895.420090,1258.350101,-3256.906145,-9729.412825
895.420410,666.185348,-2220.617826,-9959.241474
895.420730,222.061783,0.000000,-10572.117872
895.421050,296.082377,1924.535449,-10495.508323
895.421370,222.061783,4737.318029,-10342.289223
895.421690,740.205942,5181.441594,-10725.336972
895.422010,2738.761985,3256.906145,-10648.727422
895.422330,3627.009116,74.020594,-11108.384721
895.422650,2738.761985,-2368.659014,-10265.679673
895.422970,0.000000,-3256.906145,-9269.755526
895.423291,-962.267725,-1184.329507,-10342.289223
895.423611,-518.144159,888.247130,-10265.679673
895.423931,444.123565,3330.926739,-10342.289223
895.424251,518.144159,3034.844362,-10189.070123
895.424571,0.000000,2220.617826,-10189.070123
895.424891,-1480.411884,-444.123565,-9882.631924
895.425211,-1110.308913,-3552.988522,-9269.755526
895.425531,0.000000,-4071.132681,-9039.926876
895.425851,-296.082377,-3034.844362,-9116.536426
895.426171,-1110.308913,-1110.308913,-9576.193725
895.426491,-888.247130,666.185348,-9729.412825
895.426812,-444.123565,1258.350101,-9806.022374
895.427132,-296.082377,1554.432478,-10955.165621
895.427452,-1332.370696,148.041188,-9882.631924
895.427772,-1554.432478,148.041188,-9806.022374
895.428092,-888.247130,-370.102971,-10035.851024
895.428412,0.000000,-962.267725,-9959.241474
895.428732,-740.205942,-2072.576638,-10648.727422
895.429052,-1036.288319,-1628.453072,-10035.851024
895.429372,-1110.308913,-148.041188,-9806.022374
895.429692,-1628.453072,1554.432478,-10572.117872
895.430012,-962.267725,2738.761985,-10418.898773
895.430332,-2886.803174,2294.638420,-10342.289223
895.430652,-1924.535449,222.061783,-10265.679673
895.430972,-296.082377,-296.082377,-10265.679673
895.431292,0.000000,0.000000,-10495.508323
895.431612,1924.535449,1480.411884,-10955.165621
895.431932,3108.864956,1924.535449,-10801.946522
895.432252,2442.679609,2220.617826,-10725.336972
895.432572,1110.308913,1702.473667,-10189.070123
895.432892,-1036.288319,1184.329507,-10035.851024
895.433212,-1554.432478,592.164754,-10265.679673
895.433532,518.144159,222.061783,-10265.679673
895.433852,2590.720797,518.144159,-10495.508323
895.434172,4145.153275,370.102971,-9652.803275
895.434492,4071.132681,1036.288319,-10189.070123
895.434812,2220.617826,1258.350101,-9882.631924
895.435132,1998.556043,1702.473667,-9959.241474
895.435452,2220.617826,2072.576638,-9806.022374
895.435772,2738.761985,888.247130,-9959.241474
895.436092,3108.864956,518.144159,-9116.536426
895.436412,4441.235652,-888.247130,-9882.631924
895.436732,4811.338623,-962.267725,-9882.631924
895.437052,1628.453072,-740.205942,-9652.803275
895.437372,74.020594,888.247130,-10189.070123
895.437692,370.102971,1480.411884,-9729.412825
895.438012,666.185348,148.041188,-9269.755526
895.438332,2072.576638,-1184.329507,-9576.193725
895.438652,1702.473667,-2442.679609,-9346.365076
895.438972,1036.288319,-1036.288319,-9729.412825
895.439292,592.164754,222.061783,-9806.022374
895.439612,1480.411884,1924.535449,-9576.193725
895.439932,1850.514855,1998.556043,-10035.851024
895.440252,370.102971,888.247130,-10418.898773
895.440572,0.000000,-518.144159,-10035.851024
895.440892,592.164754,-1554.432478,-10265.679673
895.441212,-518.144159,-2072.576638,-10112.460574
895.441532,-814.226536,-1998.556043,-10495.508323
895.441852,-1258.350101,-1258.350101,-10342.289223
895.442172,-2886.803174,-666.185348,-10265.679673
895.442492,-4441.235652,1110.308913,-11108.384721
895.442812,-3478.967927,2072.576638,-10878.556072
895.443132,-1184.329507,1110.308913,-11031.775171
895.443452,222.061783,-296.082377,-10955.165621
895.443773,-518.144159,-2294.638420,-10495.508323
895.444093,-962.267725,-2368.659014,-10342.289223
895.444413,-962.267725,-962.267725,-10495.508323
895.444733,444.123565,1776.494261,-10801.946522
895.445053,-296.082377,2294.638420,-11031.775171
895.445373,-1406.391290,1702.473667,-10572.117872
895.445693,-2516.700203,0.000000,-9806.022374
895.446013,-2368.659014,-2220.617826,-9729.412825
895.446333,-666.185348,-2368.659014,-9806.022374
895.446653,888.247130,-2072.576638,-9806.022374
895.446973,1554.432478,-222.061783,-9576.193725
895.447293,1036.288319,2072.576638,-9806.022374
895.447613,814.226536,2442.679609,-10495.508323
895.447933,222.061783,1480.411884,-10112.460574
895.448253,296.082377,0.000000,-9959.241474
895.448573,1924.535449,-296.082377,-9806.022374
895.448893,814.226536,1036.288319,-10342.289223
895.449213,2368.659014,370.102971,-10342.289223
895.449533,1702.473667,74.020594,-10035.851024
895.449853,740.205942,-296.082377,-8963.317327
895.450173,1554.432478,-1554.432478,-9652.803275
895.450493,2368.659014,-1036.288319,-9729.412825
895.450813,2072.576638,666.185348,-9959.241474
895.451133,-148.041188,1332.370696,-9806.022374
895.451453,1110.308913,1480.411884,-9499.584175
895.451773,2072.576638,666.185348,-9729.412825
895.452093,444.123565,-814.226536,-10035.851024
895.452413,-666.185348,-370.102971,-9422.974625
895.452733,-814.226536,1110.308913,-10189.070123
895.453053,2368.659014,1332.370696,-10572.117872
895.453373,1924.535449,1776.494261,-10495.508323
895.453693,1258.350101,1036.288319,-10112.460574
895.454013,-148.041188,74.020594,-9882.631924
895.454333,740.205942,148.041188,-10495.508323
895.454653,2516.700203,962.267725,-10112.460574
895.454973,2294.638420,1554.432478,-10265.679673
895.455293,2146.597232,2368.659014,-10955.165621
895.455613,2812.782580,2590.720797,-10418.898773
895.455933,2146.597232,2368.659014,-10725.336972
895.456253,962.267725,1628.453072,-10725.336972
895.456573,1184.329507,1480.411884,-10418.898773
895.456893,1110.308913,222.061783,-10112.460574
895.457213,518.144159,740.205942,-9729.412825
895.457533,-444.123565,148.041188,-9882.631924
895.457853,296.082377,518.144159,-9806.022374
895.458173,888.247130,518.144159,-9959.241474
895.458493,1184.329507,888.247130,-9806.022374
895.458813,888.247130,222.061783,-9806.022374
895.459133,148.041188,-888.247130,-9729.412825
895.459453,-370.102971,-814.226536,-8733.488677
895.459773,0.000000,148.041188,-9499.584175
895.460093,518.144159,1406.391290,-9959.241474
895.460413,592.164754,1258.350101,-9959.241474
895.460733,888.247130,-222.061783,-10342.289223
895.461053,-888.247130,-1702.473667,-9576.193725
895.461373,-1776.494261,-1998.556043,-9882.631924
895.461693,-1924.535449,-1332.370696,-9652.803275
895.462013,-1406.391290,74.020594,-10112.460574
895.462333,-1776.494261,1110.308913,-10265.679673
895.462653,-1554.432478,1480.411884,-10189.070123
895.462973,-2072.576638,1480.411884,-10265.679673
895.463293,-1702.473667,518.144159,-10572.117872
895.463613,-444.123565,1036.288319,-10495.508323
895.463933,-518.144159,1480.411884,-11031.775171
895.464253,-888.247130,0.000000,-10648.727422
895.464573,-888.247130,222.061783,-10342.289223
895.464893,-1628.453072,1702.473667,-10878.556072
895.465214,-370.102971,1998.556043,-10572.117872
895.465534,-1998.556043,2072.576638,-10342.289223
895.465854,-2146.597232,1480.411884,-10648.727422
895.466174,-1406.391290,222.061783,-10112.460574
895.466494,518.144159,518.144159,-10265.679673
895.466814,-888.247130,74.020594,-10112.460574
895.467134,2368.659014,296.082377,-10495.508323
895.467454,-444.123565,888.247130,-10189.070123
895.467774,0.000000,222.061783,-9422.974625
895.468094,1110.308913,518.144159,-9269.755526
895.468414,3701.029710,888.247130,-9959.241474
895.468734,2812.782580,1110.308913,-9269.755526
895.469054,2664.741391,518.144159,-9652.803275
895.469374,2812.782580,518.144159,-9882.631924
895.469694,2664.741391,-370.102971,-9422.974625
895.470014,2368.659014,-444.123565,-9116.536426
895.470334,3627.009116,-1258.350101,-9499.584175
895.470654,3849.070898,74.020594,-8963.317327
895.470974,2590.720797,74.020594,-9806.022374
895.471294,3256.906145,1110.308913,-11108.384721
895.471614,2960.823768,1036.288319,-10112.460574
895.471934,3108.864956,1258.350101,-9806.022374
895.472254,2516.700203,518.144159,-9499.584175
895.472574,2368.659014,0.000000,-8733.488677
895.472894,3404.947333,-1184.329507,-10112.460574
895.473214,3478.967927,-444.123565,-9806.022374
895.473534,1110.308913,518.144159,-10648.727422
895.473854,-1258.350101,518.144159,-10112.460574
895.474174,-74.020594,814.226536,-9116.536426
895.474494,1480.411884,-296.082377,-10112.460574
895.474814,1480.411884,-1110.308913,-10342.289223
895.475134,1924.535449,-1850.514855,-10418.898773
895.475454,296.082377,-1036.288319,-10648.727422
895.475774,-1554.432478,-592.164754,-10265.679673
895.476094,-1776.494261,-740.205942,-10265.679673
895.476414,-1258.350101,74.020594,-10572.117872
895.476734,-444.123565,0.000000,-10495.508323
895.477054,-1184.329507,1036.288319,-10189.070123
895.477374,-888.247130,296.082377,-11031.775171
895.477694,-1036.288319,-1110.308913,-10342.289223
895.478014,-814.226536,-1110.308913,-10801.946522
895.478334,-1480.411884,-1850.514855,-9959.241474
895.478654,-3701.029710,-1480.411884,-9729.412825
895.478974,-5255.462188,-1110.308913,-9959.241474
895.479294,-6365.771101,-962.267725,-10112.460574
895.479614,-3034.844362,-1258.350101,-9806.022374
895.479934,-1332.370696,-1332.370696,-10189.070123
895.480254,1554.432478,-2442.679609,-9499.584175
895.480574,2220.617826,-1776.494261,-9959.241474
895.480894,1702.473667,-888.247130,-10418.898773
895.481214,-370.102971,888.247130,-9652.803275
895.481534,-2368.659014,1406.391290,-10418.898773
895.481854,-1776.494261,-148.041188,-10189.070123
895.482174,222.061783,-444.123565,-9806.022374
895.482494,0.000000,-814.226536,-10495.508323
895.482814,-592.164754,740.205942,-10112.460574
895.483134,370.102971,1702.473667,-10495.508323
895.483454,1554.432478,2516.700203,-10725.336972
895.483774,2294.638420,2294.638420,-10801.946522
895.484094,148.041188,-148.041188,-9499.584175
895.484414,-888.247130,-814.226536,-10342.289223
895.484734,592.164754,0.000000,-10035.851024
895.485054,814.226536,1332.370696,-10342.289223
895.485374,2368.659014,3108.864956,-10955.165621
895.485694,2738.761985,2294.638420,-10189.070123
895.486014,2812.782580,962.267725,-10265.679673
895.486334,2220.617826,370.102971,-10189.070123
895.486654,-222.061783,444.123565,-9346.365076
895.486975,-148.041188,1406.391290,-9806.022374
895.487295,888.247130,814.226536,-10035.851024
895.487615,148.041188,-592.164754,-9193.145976
895.487935,74.020594,-1184.329507,-9422.974625
895.488255,1332.370696,-2072.576638,-9346.365076
895.488575,3849.070898,0.000000,-9806.022374
895.488895,4441.235652,1998.556043,-10112.460574
895.489215,3552.988522,3627.009116,-9806.022374
895.489535,2294.638420,4441.235652,-10189.070123
895.489855,1110.308913,3034.844362,-9806.022374
895.490175,222.061783,370.102971,-9576.193725
895.490495,0.000000,-1406.391290,-10112.460574
895.490815,2220.617826,-2294.638420,-9806.022374
895.491135,2072.576638,-1480.411884,-9346.365076
895.491455,518.144159,1258.350101,-10572.117872
895.491775,592.164754,3701.029710,-9806.022374
895.492095,-444.123565,4737.318029,-10495.508323
895.492415,-444.123565,3330.926739,-10648.727422
895.492735,1258.350101,1850.514855,-10265.679673
895.493055,1332.370696,-444.123565,-10725.336972
895.493375,2294.638420,-1554.432478,-10648.727422
895.493695,2146.597232,0.000000,-9959.241474
895.494015,1184.329507,2072.576638,-9959.241474
895.494335,1332.370696,4737.318029,-10265.679673
895.494655,592.164754,4737.318029,-11184.994271
895.494975,222.061783,3997.112087,-11031.775171
895.495295,-444.123565,814.226536,-10112.460574
895.495615,-814.226536,-1776.494261,-9806.022374
895.495935,-1406.391290,-5033.400406,-9576.193725
895.496255,0.000000,-5699.585753,-9346.365076
895.496575,-666.185348,-2368.659014,-9882.631924
895.496895,-518.144159,2960.823768,-11108.384721
895.497215,-666.185348,4367.215058,-10418.898773
895.497535,666.185348,4663.297435,-10648.727422
895.497855,1110.308913,2368.659014,-10342.289223
895.498175,666.185348,-222.061783,-9652.803275
895.498495,-1184.329507,-2368.659014,-10035.851024
895.498815,-2368.659014,-4071.132681,-9039.926876
895.499135,-1850.514855,-3849.070898,-8963.317327
895.499455,-1406.391290,-2516.700203,-9806.022374
895.499775,-296.082377,-1036.288319,-8503.660028
895.500095,-2072.576638,888.247130,-9959.241474
895.500415,-1850.514855,2442.679609,-10189.070123
895.500735,-148.041188,1776.494261,-9652.803275
895.501055,1406.391290,222.061783,-10112.460574
895.501375,1036.288319,-1850.514855,-9346.365076
895.501695,-222.061783,-1776.494261,-9652.803275
895.502015,-296.082377,-666.185348,-10265.679673
895.502335,962.267725,370.102971,-9959.241474
895.502655,740.205942,1924.535449,-10495.508323
895.502975,-962.267725,1998.556043,-10342.289223
895.503295,-592.164754,962.267725,-10265.679673
895.503615,-1258.350101,370.102971,-10725.336972
895.503935,-296.082377,-1406.391290,-10572.117872
895.504255,1406.391290,-2516.700203,-9959.241474
895.504575,3108.864956,-1554.432478,-10572.117872
895.504895,4811.338623,-296.082377,-10418.898773
895.505215,4959.379811,1110.308913,-10955.165621
895.505535,3701.029710,2960.823768,-11108.384721
895.505855,2516.700203,2960.823768,-10572.117872
895.506175,2072.576638,2812.782580,-10495.508323
895.506495,2072.576638,1628.453072,-10572.117872
895.506815,2516.700203,222.061783,-11031.775171
895.507135,1924.535449,-1554.432478,-10112.460574
895.507455,1184.329507,-3182.885551,-9959.241474
895.507775,814.226536,-2738.761985,-9346.365076
895.508095,518.144159,-1332.370696,-9652.803275
895.508415,666.185348,1480.411884,-10265.679673
895.508736,2146.597232,2442.679609,-9499.584175
895.509056,1924.535449,2442.679609,-10035.851024
895.509376,2368.659014,444.123565,-9346.365076
895.509696,3330.926739,-222.061783,-9193.145976
895.510016,3552.988522,-2220.617826,-9422.974625
895.510336,3034.844362,-1998.556043,-9422.974625
895.510656,0.000000,-1258.350101,-9422.974625
895.510976,-2442.679609,0.000000,-9806.022374
895.511296,-3478.967927,666.185348,-9576.193725
895.511616,-2220.617826,1258.350101,-10112.460574
895.511936,148.041188,592.164754,-10572.117872
895.512256,-296.082377,74.020594,-10112.460574
895.512576,-1554.432478,-1554.432478,-11951.089769
895.512896,-1406.391290,-1998.556043,-9959.241474
895.513216,-962.267725,-740.205942,-10189.070123
895.513536,0.000000,666.185348,-10801.946522
895.513856,0.000000,1998.556043,-10418.898773
895.514176,-148.041188,2886.803174,-10878.556072
895.514496,-296.082377,1924.535449,-11568.042020
895.514816,518.144159,444.123565,-11031.775171
895.515136,-1776.494261,-740.205942,-11261.603821
895.515456,-2442.679609,-740.205942,-10342.289223
895.515776,-3701.029710,-888.247130,-9882.631924
895.516096,-3923.091493,0.000000,-10648.727422
895.516416,-2590.720797,1110.308913,-10418.898773
895.516736,-2220.617826,1406.391290,-9806.022374
895.517056,-962.267725,1554.432478,-10648.727422
895.517376,1998.556043,888.247130,-10035.851024
895.517696,2368.659014,-296.082377,-10035.851024
895.518016,740.205942,-518.144159,-9346.365076
895.518336,740.205942,666.185348,-9422.974625
895.518656,1184.329507,1480.411884,-9652.803275
895.518976,2146.597232,888.247130,-9729.412825
895.519296,2368.659014,0.000000,-9346.365076
895.519616,1184.329507,-518.144159,-8810.098227
895.519936,1110.308913,0.000000,-9193.145976
895.520256,1480.411884,148.041188,-9116.536426
895.520576,1480.411884,370.102971,-9269.755526
895.520896,1258.350101,-740.205942,-9346.365076
895.521216,1406.391290,-962.267725,-9269.755526
895.521536,888.247130,-1554.432478,-9882.631924
895.521856,1110.308913,-148.041188,-9576.193725
895.522176,1036.288319,1702.473667,-9882.631924
895.522496,1998.556043,2442.679609,-10265.679673
895.522816,2960.823768,1998.556043,-10265.679673
895.523136,3034.844362,1480.411884,-10725.336972
895.523456,2442.679609,74.020594,-10801.946522
895.523776,2442.679609,-962.267725,-10112.460574
895.524096,1628.453072,148.041188,-11184.994271
895.524416,-222.061783,1110.308913,-11031.775171
895.524736,-370.102971,1406.391290,-10572.117872
895.525056,0.000000,2664.741391,-11338.213370
895.525376,1332.370696,2294.638420,-10801.946522
895.525696,1702.473667,1776.494261,-10878.556072
895.526016,2072.576638,814.226536,-11184.994271
895.526336,2442.679609,0.000000,-10265.679673
895.526656,1998.556043,222.061783,-9882.631924
895.526976,1036.288319,-222.061783,-10495.508323
895.527296,-296.082377,1036.288319,-9422.974625
895.527616,-962.267725,1628.453072,-10189.070123
895.527936,1702.473667,740.205942,-9959.241474
895.528256,3923.091493,-370.102971,-9422.974625
895.528577,2664.741391,-296.082377,-10342.289223
895.528897,1110.308913,-1036.288319,-9882.631924
895.529217,222.061783,-148.041188,-9652.803275
895.529537,-666.185348,296.082377,-9959.241474
895.529857,-888.247130,1406.391290,-8733.488677
895.530177,-2738.761985,2220.617826,-9806.022374
895.530497,-1924.535449,1036.288319,-9806.022374
895.530817,296.082377,0.000000,-9346.365076
895.531137,1184.329507,-74.020594,-11108.384721
895.531457,1110.308913,-740.205942,-10189.070123
895.531777,-1184.329507,-1480.411884,-9729.412825
895.532097,-2072.576638,-1554.432478,-10801.946522
895.532417,-1776.494261,-2368.659014,-9806.022374
895.532737,-2220.617826,-1406.391290,-9652.803275
895.533057,-2220.617826,518.144159,-10725.336972
895.533377,-1850.514855,1924.535449,-10112.460574
895.533697,-592.164754,2516.700203,-11261.603821
895.534017,222.061783,1406.391290,-11797.870669
895.534337,1184.329507,-1554.432478,-10572.117872
895.534657,-740.205942,-3108.864956,-11338.213370
895.534977,-1184.329507,-1924.535449,-10265.679673
895.535297,-1554.432478,0.000000,-10495.508323
895.535617,-1406.391290,3108.864956,-10572.117872
895.535937,-1110.308913,4145.153275,-10572.117872
895.536257,-518.144159,2368.659014,-10342.289223
895.536577,74.020594,0.000000,-10878.556072
895.536897,1258.350101,-1924.535449,-9806.022374
895.537217,1184.329507,-1480.411884,-9882.631924
895.537538,1628.453072,0.000000,-9959.241474
895.537858,1258.350101,740.205942,-9576.193725
895.538178,1184.329507,222.061783,-9806.022374
895.538498,1480.411884,-222.061783,-9193.145976
895.538818,1480.411884,592.164754,-9193.145976
895.539138,1628.453072,666.185348,-10112.460574
895.539458,2960.823768,-370.102971,-9116.536426
895.539778,3997.112087,0.000000,-9269.755526
895.540098,4145.153275,-148.041188,-9806.022374
895.540418,814.226536,-1480.411884,-9346.365076
895.540738,-814.226536,-1332.370696,-9269.755526
895.541058,-222.061783,-296.082377,-9806.022374
895.541378,1924.535449,740.205942,-9729.412825
895.541698,3330.926739,1480.411884,-10648.727422
895.542018,3182.885551,740.205942,-10342.289223
895.542338,2368.659014,222.061783,-10265.679673
895.542658,1184.329507,74.020594,-10801.946522
895.542978,1184.329507,518.144159,-10342.289223
895.543298,1554.432478,148.041188,-10342.289223
895.543618,2294.638420,444.123565,-11031.775171
895.543938,3182.885551,814.226536,-10495.508323
895.544258,2442.679609,740.205942,-11108.384721
895.544578,888.247130,2294.638420,-10495.508323
895.544898,222.061783,2590.720797,-10955.165621
895.545218,0.000000,1628.453072,-10878.556072
895.545538,222.061783,-666.185348,-10495.508323
895.545858,666.185348,-1554.432478,-9576.193725
895.546178,-1184.329507,-1110.308913,-10495.508323
895.546499,-962.267725,444.123565,-9959.241474
895.546819,-296.082377,2146.597232,-9806.022374
895.547139,888.247130,3108.864956,-10648.727422
895.547459,1332.370696,2590.720797,-9806.022374
895.547779,1184.329507,-518.144159,-9806.022374
895.548099,740.205942,-1480.411884,-9959.241474
895.548419,296.082377,-1258.350101,-9269.755526
895.548739,-1554.432478,-592.164754,-9729.412825
895.549059,-1554.432478,0.000000,-9193.145976
895.549379,-2590.720797,74.020594,-8810.098227
895.549699,-3923.091493,0.000000,-9806.022374
895.550019,-2220.617826,-962.267725,-9576.193725
895.550339,0.000000,0.000000,-9806.022374
895.550659,1110.308913,1406.391290,-10495.508323
895.550979,1406.391290,740.205942,-9576.193725
895.551299,814.226536,74.020594,-9576.193725
895.551619,-296.082377,0.000000,-10495.508323
895.551939,-1258.350101,0.000000,-9806.022374
895.552259,-2294.638420,222.061783,-10112.460574
895.552579,222.061783,148.041188,-9729.412825
895.552899,1924.535449,444.123565,-10725.336972
895.553219,1924.535449,1036.288319,-11414.822920
895.553539,222.061783,1776.494261,-10725.336972
895.553859,-1332.370696,2368.659014,-10342.289223
895.554179,-1628.453072,2368.659014,-11184.994271
895.554499,-518.144159,1480.411884,-10342.289223
895.554819,1110.308913,148.041188,-10418.898773
895.555139,296.082377,-666.185348,-10572.117872
895.555460,370.102971,-296.082377,-9882.631924
895.555780,666.185348,444.123565,-10189.070123
895.556100,518.144159,2368.659014,-10801.946522
895.556420,1184.329507,2294.638420,-9882.631924
895.556740,0.000000,1184.329507,-9882.631924
895.557060,-1110.308913,-888.247130,-9346.365076
895.557380,148.041188,-2664.741391,-9346.365076
895.557700,2664.741391,-3182.885551,-9422.974625
895.558020,3256.906145,-2442.679609,-9193.145976
895.558340,2220.617826,-1628.453072,-9346.365076
895.558660,444.123565,740.205942,-9729.412825
895.558980,0.000000,1998.556043,-9499.584175
895.559300,1554.432478,1850.514855,-10112.460574
895.559620,3552.988522,1554.432478,-10418.898773
895.559940,2368.659014,-740.205942,-9882.631924
895.560260,1110.308913,-3849.070898,-9499.584175
895.560580,148.041188,-3108.864956,-9806.022374
895.560900,-1110.308913,-962.267725,-9882.631924
895.561220,-592.164754,666.185348,-10265.679673
895.561540,1776.494261,1480.411884,-10725.336972
895.561860,3108.864956,2294.638420,-10878.556072
895.562180,1628.453072,2072.576638,-11338.213370
895.562500,740.205942,1628.453072,-11108.384721
895.562820,370.102971,814.226536,-10342.289223
895.563140,1184.329507,740.205942,-11031.775171
895.563460,3627.009116,370.102971,-10189.070123
895.563780,2738.761985,-148.041188,-11108.384721
895.564100,2146.597232,0.000000,-10878.556072
895.564421,-296.082377,0.000000,-10265.679673
895.564741,74.020594,2442.679609,-11108.384721
895.565061,296.082377,2072.576638,-9882.631924
895.565381,370.102971,2072.576638,-11414.822920
895.565701,-444.123565,1776.494261,-10725.336972
895.566021,-1036.288319,518.144159,-10112.460574
895.566341,-1036.288319,-1110.308913,-9576.193725
895.566661,592.164754,-2516.700203,-9422.974625
895.566981,2294.638420,-1998.556043,-9193.145976
895.567301,2072.576638,-1850.514855,-9806.022374
895.567621,666.185348,-1702.473667,-9652.803275
895.567941,-2442.679609,1332.370696,-8733.488677
895.568261,-3404.947333,1776.494261,-9652.803275
895.568581,-1184.329507,1628.453072,-10035.851024
895.568901,0.000000,74.020594,-9652.803275
895.569221,-1480.411884,-1554.432478,-10035.851024
895.569541,-1702.473667,-2664.741391,-8886.707777
895.569861,-1554.432478,-2368.659014,-9729.412825
895.570181,296.082377,-1184.329507,-10418.898773
895.570501,-222.061783,1184.329507,-9882.631924
895.570821,-2294.638420,2220.617826,-10035.851024
895.571141,-1554.432478,2738.761985,-9269.755526
895.571461,0.000000,3701.029710,-10725.336972
895.571781,-518.144159,3330.926739,-11338.213370
895.572101,222.061783,1554.432478,-11031.775171
895.572421,2442.679609,-222.061783,-10418.898773
895.572741,1776.494261,0.000000,-10495.508323
895.573061,814.226536,888.247130,-10189.070123
895.573382,0.000000,2220.617826,-10955.165621
895.573702,888.247130,3256.906145,-10801.946522
895.574022,1332.370696,3034.844362,-9806.022374
895.574342,1702.473667,2146.597232,-10572.117872
895.574662,1036.288319,222.061783,-10112.460574
895.574982,1110.308913,-666.185348,-9729.412825
895.575302,1924.535449,296.082377,-10418.898773
895.575622,1998.556043,1258.350101,-9882.631924
895.575942,1850.514855,1110.308913,-9652.803275
895.576262,2368.659014,1776.494261,-10112.460574
895.576582,1406.391290,1776.494261,-9806.022374
895.576902,1554.432478,592.164754,-9806.022374
895.577222,1554.432478,962.267725,-10189.070123
895.577542,3108.864956,-666.185348,-9576.193725
895.577862,2738.761985,-1332.370696,-9576.193725
895.578182,2294.638420,-1850.514855,-9729.412825
895.578502,296.082377,-1258.350101,-8656.879127
895.578822,814.226536,-1258.350101,-9882.631924
895.579142,2590.720797,1110.308913,-9806.022374
895.579462,3034.844362,2368.659014,-9806.022374
895.579782,1702.473667,2368.659014,-10265.679673
895.580102,814.226536,1184.329507,-9806.022374
895.580422,74.020594,962.267725,-9806.022374
895.580742,1332.370696,-148.041188,-10725.336972
895.581062,1628.453072,-1702.473667,-9576.193725
895.581382,1258.350101,-1406.391290,-10265.679673
895.581702,-2220.617826,-740.205942,-10495.508323
895.582022,-3182.885551,-444.123565,-9806.022374
895.582343,-2812.782580,1480.411884,-10495.508323
895.582663,-518.144159,1554.432478,-10418.898773
895.582983,1924.535449,1406.391290,-10495.508323
895.583303,2146.597232,814.226536,-11031.775171
895.583623,888.247130,-444.123565,-10112.460574
895.583943,-222.061783,-1332.370696,-11644.651570
895.584263,-148.041188,-518.144159,-10801.946522
895.584583,74.020594,-1702.473667,-9959.241474
895.584903,296.082377,-592.164754,-9729.412825
895.585223,-518.144159,740.205942,-10648.727422
895.585543,-2738.761985,1628.453072,-10801.946522
895.585863,-2590.720797,962.267725,-10112.460574
895.586183,-1628.453072,-148.041188,-10035.851024
895.586503,-148.041188,-1406.391290,-9576.193725
895.586823,74.020594,-3627.009116,-9806.022374
895.587143,-1110.308913,-2516.700203,-9193.145976
895.587463,-1554.432478,-592.164754,-9422.974625
895.587783,518.144159,1036.288319,-10112.460574
895.588103,2220.617826,2442.679609,-9652.803275
895.588423,0.000000,1406.391290,-9882.631924
895.588743,-518.144159,-296.082377,-10572.117872
895.589063,-962.267725,-518.144159,-9422.974625
895.589383,-1702.473667,0.000000,-10418.898773
895.589703,-666.185348,0.000000,-10495.508323
895.590023,592.164754,-222.061783,-10112.460574
895.590343,-1332.370696,-444.123565,-10418.898773
895.590663,-962.267725,74.020594,-10035.851024
895.590983,-592.164754,2220.617826,-10189.070123
895.591303,666.185348,2960.823768,-11261.603821
895.591624,2368.659014,2516.700203,-10572.117872
895.591944,4071.132681,1554.432478,-10342.289223
895.592264,4885.359217,0.000000,-10801.946522
895.592584,1850.514855,-1628.453072,-9193.145976
895.592904,1628.453072,-1924.535449,-10112.460574
895.593224,1998.556043,-148.041188,-10955.165621
895.593544,1184.329507,2368.659014,-10342.289223
895.593864,-148.041188,3034.844362,-11644.651570
895.594184,-1184.329507,2886.803174,-11108.384721
895.594504,1332.370696,2072.576638,-10418.898773
895.594824,2590.720797,1036.288319,-11338.213370
895.595144,3256.906145,-1184.329507,-9729.412825
895.595464,2368.659014,-2294.638420,-10725.336972
895.595784,1480.411884,-1036.288319,-10112.460574
895.596104,962.267725,370.102971,-9576.193725
895.596424,2368.659014,2146.597232,-10189.070123
895.596744,2886.803174,2220.617826,-10112.460574
895.597064,2072.576638,1776.494261,-9806.022374
895.597384,1998.556043,518.144159,-10572.117872
895.597704,444.123565,-888.247130,-9576.193725
895.598024,0.000000,-296.082377,-10112.460574
895.598344,-962.267725,-444.123565,-9806.022374
895.598664,222.061783,370.102971,-9882.631924
895.598984,1406.391290,296.082377,-9729.412825
895.599304,0.000000,296.082377,-9959.241474
895.599624,-1110.308913,666.185348,-9652.803275
895.599944,-2368.659014,1480.411884,-9882.631924
895.600264,0.000000,1110.308913,-10495.508323
895.600585,2072.576638,1110.308913,-10035.851024
895.600905,1036.288319,296.082377,-10495.508323
895.601225,-740.205942,-148.041188,-10418.898773
895.601545,-1628.453072,-296.082377,-9729.412825
895.601865,-1702.473667,1924.535449,-10035.851024
895.602185,-814.226536,1628.453072,-10342.289223
895.602505,-296.082377,74.020594,-9959.241474
895.602825,-1850.514855,-2294.638420,-9959.241474
895.603145,-1184.329507,-2368.659014,-10189.070123
895.603465,-518.144159,-296.082377,-9652.803275
895.603785,-592.164754,666.185348,-11491.432470
895.604105,148.041188,1924.535449,-9806.022374
895.604425,-1036.288319,1628.453072,-10572.117872
895.604745,0.000000,1258.350101,-10725.336972
895.605065,148.041188,1332.370696,-9806.022374
895.605385,-296.082377,222.061783,-10189.070123
895.605705,222.061783,444.123565,-10189.070123
895.606025,592.164754,-296.082377,-9576.193725
895.606345,962.267725,-962.267725,-10572.117872
895.606665,-444.123565,-2368.659014,-9039.926876
895.606985,0.000000,-888.247130,-10265.679673
895.607305,74.020594,1258.350101,-10265.679673
895.607625,2146.597232,2738.761985,-10035.851024
895.607945,888.247130,4589.276840,-10112.460574
895.608265,1406.391290,3330.926739,-10495.508323
895.608585,1332.370696,962.267725,-9576.193725
895.608905,2368.659014,-222.061783,-10342.289223
895.609225,2738.761985,-2146.597232,-9576.193725
895.609546,3478.967927,-2812.782580,-9806.022374
895.609866,3256.906145,-1850.514855,-9729.412825
895.610186,962.267725,148.041188,-9499.584175
895.610506,0.000000,3034.844362,-9576.193725
895.610826,-296.082377,3404.947333,-10725.336972
895.611146,1036.288319,1924.535449,-10035.851024
895.611466,2368.659014,-740.205942,-9806.022374
895.611786,1036.288319,-2960.823768,-10189.070123
895.612106,814.226536,-3330.926739,-9193.145976
895.612426,2590.720797,-1554.432478,-10572.117872
895.612746,2960.823768,222.061783,-10648.727422
895.613066,1776.494261,2072.576638,-10265.679673
895.613386,0.000000,3034.844362,-10648.727422
895.613706,222.061783,2738.761985,-10725.336972
895.614026,-296.082377,2072.576638,-10112.460574
895.614346,-148.041188,0.000000,-10878.556072
895.614666,888.247130,-2294.638420,-10035.851024
895.614986,-370.102971,-3182.885551,-9576.193725
895.615306,-148.041188,-4071.132681,-9499.584175
895.615626,296.082377,-888.247130,-9346.365076
895.615946,-814.226536,2072.576638,-10112.460574
895.616266,-222.061783,4145.153275,-10801.946522
895.616586,296.082377,4145.153275,-10112.460574
895.616906,518.144159,666.185348,-10342.289223
895.617226,1554.432478,-2368.659014,-10035.851024
895.617546,370.102971,-3108.864956,-8963.317327
895.617866,-592.164754,-1332.370696,-10495.508323
895.618186,0.000000,888.247130,-9422.974625
895.618507,-296.082377,1924.535449,-9882.631924
895.618827,-1702.473667,2146.597232,-10801.946522
895.619147,-1628.453072,-592.164754,-9422.974625
895.619467,-1628.453072,-814.226536,-10878.556072
895.619787,-592.164754,-1110.308913,-9806.022374
895.620107,592.164754,-814.226536,-9882.631924
895.620427,148.041188,-1036.288319,-10418.898773
895.620747,0.000000,-1554.432478,-9576.193725
895.621067,-370.102971,1036.288319,-10648.727422
895.621387,-1998.556043,1184.329507,-10495.508323
895.621707,-592.164754,2368.659014,-10418.898773
895.622027,-3182.885551,1998.556043,-9806.022374
895.622347,-3256.906145,-444.123565,-10572.117872
895.622667,-1036.288319,-888.247130,-9729.412825
895.622987,1332.370696,-1554.432478,-9882.631924
895.623307,3552.988522,-1332.370696,-10801.946522
895.623627,2516.700203,74.020594,-9806.022374
895.623947,-740.205942,1036.288319,-9959.241474
895.624267,-740.205942,962.267725,-9652.803275
895.624587,-222.061783,-296.082377,-9193.145976
895.624907,666.185348,222.061783,-10572.117872
895.625227,1480.411884,370.102971,-9576.193725
895.625547,2146.597232,1480.411884,-10572.117872
895.625867,1924.535449,1036.288319,-10801.946522
895.626187,2738.761985,1036.288319,-10035.851024
895.626507,518.144159,1850.514855,-10265.679673
895.626827,0.000000,1110.308913,-10495.508323
895.627147,666.185348,1702.473667,-9499.584175
895.627468,518.144159,2072.576638,-10342.289223
895.627788,-1036.288319,518.144159,-10035.851024
895.628108,1036.288319,1036.288319,-9806.022374
895.628428,2146.597232,1702.473667,-9959.241474
895.628748,5107.421000,740.205942,-10189.070123
895.629068,5329.482782,1702.473667,-9652.803275
895.629388,5329.482782,1406.391290,-10418.898773
895.629708,4367.215058,1110.308913,-9193.145976
895.630028,3775.050304,296.082377,-9652.803275
895.630348,3478.967927,888.247130,-10189.070123
895.630668,3034.844362,-148.041188,-9499.584175
895.630988,1406.391290,-1406.391290,-9959.241474
895.631308,-1036.288319,222.061783,-10035.851024
895.631628,-1406.391290,1554.432478,-9652.803275
895.631948,-148.041188,888.247130,-10572.117872
895.632268,0.000000,74.020594,-10418.898773
895.632588,-296.082377,74.020594,-9652.803275
895.632908,518.144159,666.185348,-10495.508323
895.633228,74.020594,666.185348,-10189.070123
895.633548,-518.144159,444.123565,-10342.289223
895.633868,1554.432478,1036.288319,-11261.603821
895.634188,1480.411884,1036.288319,-9806.022374
895.634508,0.000000,1850.514855,-10955.165621
895.634828,-1406.391290,2146.597232,-10495.508323
895.635148,1480.411884,3034.844362,-9499.584175
895.635468,-2294.638420,962.267725,-11108.384721
895.635788,-1702.473667,-1924.535449,-9039.926876
895.636108,-3923.091493,-2590.720797,-9652.803275
895.636429,-3108.864956,-4219.173869,-9806.022374
895.636749,-2146.597232,-1998.556043,-8503.660028
895.637069,-666.185348,1332.370696,-10112.460574
895.637389,444.123565,3256.906145,-10112.460574
895.637709,1628.453072,2442.679609,-9652.803275
895.638029,888.247130,518.144159,-10495.508323
895.638349,-1628.453072,-1776.494261,-9652.803275
895.638669,-1110.308913,-3256.906145,-9116.536426
895.638989,-666.185348,-3256.906145,-9806.022374
895.639309,-1406.391290,-2812.782580,-9576.193725
895.639629,-888.247130,-1332.370696,-10189.070123
895.639949,-592.164754,-1110.308913,-9959.241474
895.640269,-1480.411884,-666.185348,-10112.460574
895.640589,-1184.329507,592.164754,-9882.631924
895.640909,1554.432478,740.205942,-10878.556072
895.641229,2368.659014,962.267725,-10572.117872
895.641549,2664.741391,0.000000,-10035.851024
895.641869,666.185348,-2516.700203,-10495.508323
895.642189,666.185348,-962.267725,-9652.803275
895.642509,814.226536,-1702.473667,-10342.289223
895.642829,1406.391290,222.061783,-11031.775171
895.643149,148.041188,2886.803174,-10189.070123
895.643469,-1258.350101,1998.556043,-11184.994271
895.643789,-962.267725,2072.576638,-9806.022374
895.644109,1480.411884,296.082377,-10265.679673
895.644429,1924.535449,-2516.700203,-10342.289223
895.644749,3552.988522,-2220.617826,-9806.022374
895.645069,3552.988522,-1332.370696,-9652.803275
895.645390,3256.906145,370.102971,-10035.851024
895.645710,2220.617826,1184.329507,-9422.974625
895.646030,2442.679609,2442.679609,-10878.556072
895.646350,2072.576638,2072.576638,-9806.022374
895.646670,2664.741391,1036.288319,-9959.241474
895.646990,2590.720797,666.185348,-10035.851024
895.647310,2812.782580,-1036.288319,-9806.022374
895.647630,148.041188,-1628.453072,-9269.755526
895.647950,0.000000,-1776.494261,-10878.556072
895.648270,296.082377,-222.061783,-9652.803275
895.648590,-296.082377,592.164754,-9882.631924
895.648910,592.164754,666.185348,-10112.460574
895.649230,1776.494261,2294.638420,-9499.584175
895.649550,1184.329507,888.247130,-10572.117872
895.649870,4737.318029,1332.370696,-10801.946522
895.650190,3701.029710,74.020594,-9422.974625
895.650510,1702.473667,222.061783,-10418.898773
895.650830,222.061783,222.061783,-9882.631924
895.651150,-1110.308913,148.041188,-9576.193725
895.651470,-814.226536,1998.556043,-10342.289223
895.651790,-962.267725,2590.720797,-9806.022374
895.652110,-888.247130,3034.844362,-10878.556072
895.652430,-296.082377,222.061783,-10801.946522
895.652750,592.164754,0.000000,-9269.755526
895.653070,-1628.453072,-370.102971,-10189.070123
895.653390,-1480.411884,-518.144159,-10035.851024
895.653710,-814.226536,962.267725,-10265.679673
895.654030,-962.267725,1480.411884,-10495.508323
895.654351,-962.267725,2220.617826,-9806.022374
895.654671,-370.102971,1258.350101,-9499.584175
895.654991,518.144159,1480.411884,-10801.946522
895.655311,962.267725,518.144159,-10189.070123
895.655631,1036.288319,-370.102971,-9652.803275
895.655951,-1628.453072,0.000000,-10189.070123
895.656271,-2590.720797,-222.061783,-9193.145976
895.656591,-1924.535449,-296.082377,-9959.241474
895.656911,222.061783,-518.144159,-10418.898773
895.657231,222.061783,666.185348,-9806.022374
895.657551,-1924.535449,1184.329507,-9959.241474
895.657871,-962.267725,1628.453072,-10418.898773
895.658191,370.102971,1036.288319,-10418.898773
895.658511,1110.308913,740.205942,-10572.117872
895.658831,1628.453072,-444.123565,-9806.022374
895.659151,444.123565,-1258.350101,-9806.022374
895.659471,-666.185348,-666.185348,-10342.289223
895.659791,-962.267725,0.000000,-10035.851024
895.660111,-962.267725,740.205942,-9806.022374
895.660431,1998.556043,814.226536,-10189.070123
895.660751,3182.885551,0.000000,-10265.679673
895.661071,2146.597232,-518.144159,-10572.117872
895.661391,2146.597232,592.164754,-10878.556072
895.661711,962.267725,0.000000,-10035.851024
895.662031,2072.576638,0.000000,-10495.508323
895.662351,2368.659014,444.123565,-10035.851024
895.662671,1406.391290,1776.494261,-9882.631924
895.662992,2960.823768,222.061783,-10955.165621
895.663312,3108.864956,-1110.308913,-9422.974625
895.663632,1406.391290,-2220.617826,-9959.241474
895.663952,814.226536,-2738.761985,-9729.412825
895.664272,1628.453072,-2368.659014,-9193.145976
895.664592,0.000000,296.082377,-9882.631924
895.664912,-370.102971,1036.288319,-9729.412825
895.665232,518.144159,296.082377,-8963.317327
895.665552,1554.432478,-444.123565,-10725.336972
895.665872,3775.050304,-1480.411884,-9193.145976
895.666192,3849.070898,592.164754,-9882.631924
895.666512,1406.391290,1258.350101,-10955.165621
895.666832,1554.432478,2220.617826,-10648.727422
895.667152,-370.102971,1480.411884,-9806.022374
895.667472,-740.205942,-740.205942,-10342.289223
895.667792,-1184.329507,-3627.009116,-9116.536426
895.668112,-2886.803174,-4663.297435,-9882.631924
895.668432,-3330.926739,-2664.741391,-10495.508323
895.668752,-2146.597232,370.102971,-9729.412825
895.669072,740.205942,3701.029710,-11414.822920
895.669392,2368.659014,2368.659014,-10342.289223
895.669712,2072.576638,222.061783,-10495.508323
895.670032,222.061783,0.000000,-10572.117872
895.670352,1184.329507,962.267725,-10955.165621
895.670672,0.000000,888.247130,-10418.898773
895.670992,2516.700203,888.247130,-11721.261119
895.671312,1702.473667,-814.226536,-10035.851024
895.671632,1776.494261,-1554.432478,-10189.070123
895.671953,-814.226536,0.000000,-10495.508323
895.672273,-3404.947333,1702.473667,-9652.803275
895.672593,-4293.194464,3552.988522,-10801.946522
895.672913,-1924.535449,2146.597232,-10342.289223
895.673233,0.000000,-666.185348,-9652.803275
895.673553,-1850.514855,-2294.638420,-9882.631924
895.673873,-2590.720797,-3552.988522,-8733.488677
895.674193,0.000000,-1628.453072,-9729.412825
895.674513,2442.679609,2146.597232,-10725.336972
895.674833,4219.173869,3182.885551,-9499.584175
895.675153,1332.370696,2590.720797,-10035.851024
895.675473,-888.247130,2738.761985,-10572.117872
895.675793,-962.267725,1480.411884,-9346.365076
895.676113,-444.123565,1406.391290,-10112.460574
895.676433,1776.494261,-1776.494261,-9806.022374
895.676753,2368.659014,-4293.194464,-9116.536426
895.677073,-1480.411884,-2220.617826,-9959.241474
895.677393,-2738.761985,-444.123565,-9269.755526
895.677713,-296.082377,2590.720797,-10112.460574
895.678033,74.020594,4589.276840,-11414.822920
895.678353,1924.535449,3997.112087,-10112.460574
895.678673,1480.411884,1850.514855,-10035.851024
895.678993,1924.535449,222.061783,-9959.241474
895.679313,2368.659014,-740.205942,-9116.536426
895.679633,2368.659014,-666.185348,-10418.898773
895.679953,2146.597232,-370.102971,-9959.241474
895.680273,2220.617826,444.123565,-9652.803275
895.680593,1332.370696,1036.288319,-10265.679673
895.680914,666.185348,2516.700203,-10418.898773
895.681234,0.000000,3552.988522,-10725.336972
895.681554,814.226536,2072.576638,-10725.336972
895.681874,2886.803174,370.102971,-9959.241474
895.682194,2220.617826,-518.144159,-10955.165621
895.682514,2442.679609,-1776.494261,-9882.631924
895.682834,1332.370696,222.061783,-9499.584175
895.683154,2442.679609,1184.329507,-10265.679673
895.683474,3330.926739,4219.173869,-11108.384721
895.683794,1036.288319,2072.576638,-9576.193725
895.684114,962.267725,2590.720797,-11261.603821
895.684434,-1924.535449,74.020594,-9193.145976
895.684754,-1258.350101,-962.267725,-10035.851024
895.685074,148.041188,-1998.556043,-9806.022374
895.685394,1258.350101,-2072.576638,-9576.193725
895.685714,1850.514855,-740.205942,-9882.631924
895.686034,1110.308913,74.020594,-10418.898773
895.686354,592.164754,518.144159,-9193.145976
895.686674,518.144159,2146.597232,-10955.165621
895.686994,2664.741391,814.226536,-9806.022374
895.687314,1554.432478,666.185348,-10342.289223
895.687634,296.082377,0.000000,-10495.508323
895.687954,-296.082377,592.164754,-10112.460574
895.688274,-1628.453072,-592.164754,-9729.412825
895.688594,-2442.679609,222.061783,-10495.508323
895.688914,-2664.741391,-222.061783,-9652.803275
895.689234,-2072.576638,-74.020594,-10342.289223
895.689554,-2146.597232,-1184.329507,-10189.070123
895.689875,148.041188,-740.205942,-10112.460574
895.690195,814.226536,-222.061783,-9959.241474
895.690515,2146.597232,-148.041188,-10572.117872
895.690835,888.247130,-592.164754,-9729.412825
895.691155,-1332.370696,-1110.308913,-10725.336972
895.691475,-296.082377,0.000000,-10035.851024
895.691795,666.185348,1850.514855,-10342.289223
895.692115,-370.102971,1998.556043,-11108.384721
895.692435,-1184.329507,222.061783,-10112.460574
895.692755,-1702.473667,-1406.391290,-10189.070123
895.693075,-2516.700203,-3552.988522,-10189.070123
895.693395,-962.267725,-3108.864956,-9422.974625
895.693715,-1036.288319,-1332.370696,-10112.460574
895.694035,-814.226536,296.082377,-10265.679673
895.694355,-1036.288319,666.185348,-9346.365076
895.694675,-666.185348,740.205942,-10801.946522
895.694995,0.000000,0.000000,-10648.727422
895.695315,1480.411884,-518.144159,-9346.365076
895.695635,2738.761985,-666.185348,-10342.289223
895.695955,5255.462188,148.041188,-9652.803275
895.696275,2664.741391,814.226536,-10189.070123
895.696595,-1332.370696,-666.185348,-10189.070123
895.696915,-1776.494261,-814.226536,-9422.974625
895.697235,-370.102971,-444.123565,-9806.022374
895.697555,1110.308913,-1776.494261,-9806.022374
895.697875,1998.556043,-1702.473667,-9806.022374
895.698195,444.123565,-518.144159,-9806.022374
895.698515,1110.308913,962.267725,-10112.460574
895.698836,1406.391290,2664.741391,-9806.022374
895.699156,1554.432478,2738.761985,-10572.117872
895.699476,2368.659014,1850.514855,-10648.727422
895.699796,3404.947333,222.061783,-9193.145976
895.700116,5107.421000,-222.061783,-10955.165621
895.700436,4663.297435,-1036.288319,-9882.631924
895.700756,1702.473667,-1036.288319,-9193.145976
895.701076,444.123565,888.247130,-10495.508323
895.701396,1702.473667,2886.803174,-10418.898773
895.701716,1924.535449,4219.173869,-11414.822920
895.702036,0.000000,2960.823768,-11031.775171
895.702356,-1184.329507,666.185348,-9806.022374
895.702676,0.000000,1036.288319,-10725.336972
895.702996,2886.803174,-518.144159,-10725.336972
895.703316,3478.967927,74.020594,-10189.070123
895.703636,1110.308913,1258.350101,-10342.289223
895.703956,1110.308913,1406.391290,-9806.022374
895.704276,1480.411884,1110.308913,-9959.241474
895.704596,1628.453072,2072.576638,-10418.898773
895.704916,74.020594,1184.329507,-9806.022374
895.705236,-1406.391290,962.267725,-9499.584175
895.705556,-2516.700203,0.000000,-9652.803275
895.705876,-2220.617826,0.000000,-9116.536426
895.706196,-1332.370696,-740.205942,-9806.022374
895.706516,-1332.370696,-1332.370696,-9576.193725
895.706836,222.061783,-1998.556043,-9499.584175
895.707156,592.164754,1036.288319,-10112.460574
895.707477,0.000000,3034.844362,-10035.851024
895.707797,0.000000,4293.194464,-9652.803275
895.708117,-444.123565,3404.947333,-9882.631924
895.708437,-888.247130,592.164754,-9652.803275
895.708757,-3256.906145,-1554.432478,-9346.365076
895.709077,-2072.576638,-2146.597232,-10495.508323
895.709397,-518.144159,-2812.782580,-10572.117872
895.709717,888.247130,-1850.514855,-10189.070123
895.710037,222.061783,74.020594,-10648.727422
895.710357,-2072.576638,666.185348,-9193.145976
895.710677,-2368.659014,2738.761985,-11108.384721
895.710997,-1924.535449,2738.761985,-10955.165621
895.711317,-296.082377,2368.659014,-10495.508323
895.711637,666.185348,-740.205942,-10725.336972
895.711957,3552.988522,-3256.906145,-10878.556072
895.712277,2368.659014,-2664.741391,-10112.460574
895.712597,1924.535449,-518.144159,-11031.775171
895.712917,666.185348,2664.741391,-10878.556072
895.713237,148.041188,4663.297435,-11568.042020
895.713557,1480.411884,3923.091493,-11491.432470
895.713877,1850.514855,2146.597232,-10112.460574
895.714197,962.267725,1406.391290,-11184.994271
895.714517,0.000000,-888.247130,-10265.679673
895.714837,1702.473667,-3478.967927,-9499.584175
895.715157,3330.926739,-3108.864956,-10112.460574
895.715477,4219.173869,-2368.659014,-9806.022374
895.715797,1332.370696,518.144159,-9882.631924
895.716117,-888.247130,2590.720797,-10725.336972
895.716438,888.247130,3775.050304,-9116.536426
895.716758,2812.782580,3923.091493,-9806.022374
895.717078,3552.988522,1850.514855,-9882.631924
895.717398,2886.803174,-1628.453072,-9269.755526
895.717718,1258.350101,-3627.009116,-9882.631924
895.718038,2516.700203,-4515.256246,-8427.050478
895.718358,2442.679609,-2664.741391,-8963.317327
895.718678,1332.370696,0.000000,-10189.070123
895.718998,74.020594,1406.391290,-9346.365076
895.719318,-1776.494261,3627.009116,-10035.851024
895.719638,-1850.514855,1924.535449,-10342.289223
895.719958,0.000000,0.000000,-9193.145976
895.720278,0.000000,-3108.864956,-9959.241474
895.720598,1184.329507,-3627.009116,-10112.460574
895.720918,814.226536,-1924.535449,-9882.631924
895.721238,592.164754,444.123565,-10801.946522
895.721558,0.000000,2368.659014,-10342.289223
895.721878,-1850.514855,2664.741391,-10495.508323
895.722198,-666.185348,1998.556043,-10801.946522
895.722518,-296.082377,1332.370696,-10342.289223
895.722838,370.102971,0.000000,-10725.336972
895.723158,814.226536,-1110.308913,-10801.946522
895.723478,-222.061783,-1850.514855,-9882.631924
895.723798,-148.041188,-592.164754,-10725.336972
895.724118,0.000000,296.082377,-10572.117872
895.724438,518.144159,1184.329507,-10112.460574
895.724758,-370.102971,2886.803174,-10725.336972
895.725078,-962.267725,2220.617826,-8656.879127
895.725399,-666.185348,1628.453072,-9959.241474
895.725719,-666.185348,-592.164754,-10572.117872
895.726039,518.144159,-2368.659014,-9576.193725
895.726359,296.082377,-2516.700203,-9882.631924
895.726679,-518.144159,-1480.411884,-9499.584175
895.726999,-296.082377,0.000000,-8886.707777
895.727319,-1332.370696,2220.617826,-9806.022374
895.727639,-518.144159,2294.638420,-10112.460574
895.727959,-148.041188,1628.453072,-9346.365076
895.728279,-518.144159,-1628.453072,-9729.412825
895.728599,-518.144159,-2368.659014,-9422.974625
895.728919,296.082377,-1332.370696,-9499.584175
895.729239,2664.741391,0.000000,-10342.289223
895.729559,3182.885551,666.185348,-9882.631924
895.729879,1184.329507,1554.432478,-9882.631924
895.730199,-1480.411884,2220.617826,-10495.508323
895.730519,-740.205942,1850.514855,-10342.289223
895.730839,1184.329507,1258.350101,-10189.070123
895.731159,2368.659014,1924.535449,-9806.022374
895.731479,2146.597232,814.226536,-10189.070123
895.731799,1332.370696,-962.267725,-10265.679673
895.732119,1258.350101,-2294.638420,-10265.679673
895.732439,1702.473667,-1776.494261,-9193.145976
895.732759,370.102971,444.123565,-11108.384721
895.733079,740.205942,2664.741391,-10725.336972
895.733398,1702.473667,3775.050304,-10189.070123
895.733718,962.267725,4071.132681,-10878.556072
895.734038,1924.535449,2516.700203,-9959.241474
895.734358,2442.679609,222.061783,-10495.508323
895.734678,2738.761985,-1776.494261,-10035.851024
895.734998,1998.556043,-148.041188,-9652.803275
895.735318,1184.329507,814.226536,-10342.289223
895.735638,296.082377,1332.370696,-9576.193725
895.735958,0.000000,1184.329507,-9576.193725
895.736278,1184.329507,1110.308913,-9806.022374
895.736598,1406.391290,740.205942,-9806.022374
895.736918,1998.556043,296.082377,-9959.241474
895.737238,518.144159,-518.144159,-9806.022374
895.737558,666.185348,-888.247130,-9499.584175
895.737878,1036.288319,-740.205942,-11108.384721
895.738198,0.000000,-148.041188,-10189.070123
895.738518,-1036.288319,592.164754,-9346.365076
895.738838,-1332.370696,2072.576638,-9652.803275
895.739158,370.102971,2220.617826,-10265.679673
895.739478,2146.597232,222.061783,-11184.994271
895.739798,1776.494261,-1110.308913,-10418.898773
895.740118,370.102971,-2960.823768,-10112.460574
895.740438,-518.144159,-2812.782580,-9269.755526
895.740758,-2442.679609,-888.247130,-10495.508323
895.741078,-3108.864956,2442.679609,-10418.898773
895.741398,-1480.411884,3701.029710,-10495.508323
895.741718,1036.288319,2294.638420,-11491.432470
895.742038,3034.844362,888.247130,-10878.556072
895.742358,1776.494261,-1480.411884,-10725.336972
895.742678,-518.144159,-444.123565,-10878.556072
895.742998,-1110.308913,296.082377,-10112.460574
895.743318,0.000000,2368.659014,-11261.603821
895.743638,0.000000,518.144159,-10495.508323
895.743958,-740.205942,-962.267725,-9806.022374
895.744278,-2368.659014,-1702.473667,-10648.727422
895.744598,-1184.329507,-444.123565,-9806.022374
895.744918,-444.123565,0.000000,-9882.631924
895.745238,-296.082377,-518.144159,-10342.289223
895.745558,-148.041188,-1924.535449,-9576.193725
895.745878,-1036.288319,-1258.350101,-9576.193725
895.746197,-666.185348,370.102971,-9806.022374
895.746517,-1184.329507,1998.556043,-9346.365076
895.746837,-370.102971,1258.350101,-10572.117872
895.747157,592.164754,-1406.391290,-9116.536426
895.747477,-222.061783,-2368.659014,-8810.098227
895.747797,-1924.535449,-1776.494261,-9576.193725
895.748117,-1776.494261,-1110.308913,-9729.412825
895.748437,-444.123565,-814.226536,-9652.803275
895.748757,1924.535449,-592.164754,-9729.412825
895.749077,3404.947333,-814.226536,-9269.755526
895.749397,2072.576638,-518.144159,-9652.803275
895.749717,2146.597232,222.061783,-10418.898773
895.750037,3182.885551,666.185348,-10189.070123
895.750357,3997.112087,1406.391290,-11031.775171
895.750677,3997.112087,-148.041188,-10342.289223
895.750997,1406.391290,370.102971,-9959.241474
895.751317,-444.123565,1702.473667,-11338.213370
895.751637,0.000000,1702.473667,-10648.727422
895.751957,2072.576638,1110.308913,-10572.117872
895.752277,2220.617826,666.185348,-10955.165621
895.752597,2220.617826,-370.102971,-10648.727422
895.752917,1776.494261,-1184.329507,-10648.727422
895.753237,222.061783,296.082377,-11491.432470
895.753557,-592.164754,1628.453072,-9959.241474
895.753877,666.185348,3034.844362,-10878.556072
895.754197,1332.370696,814.226536,-10265.679673
895.754517,3256.906145,888.247130,-10648.727422
895.754837,2442.679609,444.123565,-10878.556072
895.755157,2072.576638,296.082377,-10035.851024
895.755477,888.247130,1480.411884,-9652.803275
895.755797,2146.597232,1184.329507,-10265.679673
895.756117,2294.638420,592.164754,-9499.584175
895.756437,-518.144159,592.164754,-9346.365076
895.756757,-2368.659014,-814.226536,-9959.241474
895.757077,-2590.720797,148.041188,-8810.098227
895.757397,-1702.473667,1628.453072,-9729.412825
895.757717,1702.473667,962.267725,-10112.460574
895.758037,2516.700203,-888.247130,-8350.440928
895.758357,1036.288319,-296.082377,-10035.851024
895.758676,740.205942,222.061783,-8963.317327
895.758996,2220.617826,2738.761985,-10265.679673
895.759316,2368.659014,2442.679609,-9422.974625
895.759636,2294.638420,962.267725,-9269.755526
895.759956,-740.205942,-370.102971,-9422.974625
895.760276,-2664.741391,-1258.350101,-9959.241474
895.760596,-1998.556043,-444.123565,-9729.412825
895.760916,-814.226536,1406.391290,-10265.679673
895.761236,-666.185348,2294.638420,-10878.556072
895.761556,222.061783,1554.432478,-10265.679673
895.761876,-1628.453072,296.082377,-10495.508323
895.762196,-1924.535449,-518.144159,-10035.851024
895.762516,-592.164754,-148.041188,-9959.241474
895.762836,1110.308913,1258.350101,-11414.822920
895.763156,962.267725,444.123565,-10189.070123
895.763476,-296.082377,1480.411884,-10418.898773
895.763796,-222.061783,962.267725,-10572.117872
895.764116,74.020594,888.247130,-10572.117872
895.764436,-296.082377,1628.453072,-10648.727422
895.764756,-962.267725,592.164754,-10801.946522
895.765076,-1850.514855,740.205942,-9269.755526
895.765396,-888.247130,222.061783,-10801.946522
895.765716,-1332.370696,296.082377,-9806.022374
895.766036,-1998.556043,-148.041188,-9652.803275
895.766356,-148.041188,814.226536,-10112.460574
895.766676,1924.535449,-296.082377,-9652.803275
895.766996,2664.741391,-148.041188,-9729.412825
895.767316,740.205942,-370.102971,-9959.241474
895.767636,0.000000,-444.123565,-8886.707777
895.767956,814.226536,-370.102971,-9959.241474
895.768276,2368.659014,-740.205942,-9806.022374
895.768596,3997.112087,-962.267725,-9039.926876
895.768916,2590.720797,-814.226536,-10418.898773
895.769236,2368.659014,-148.041188,-8963.317327
895.769556,2146.597232,1480.411884,-9806.022374
895.769876,740.205942,2442.679609,-10878.556072
895.770196,1480.411884,592.164754,-10035.851024
895.770516,1110.308913,-1258.350101,-10112.460574
895.770836,-740.205942,-1702.473667,-10495.508323
895.771155,-1332.370696,-592.164754,-9346.365076
895.771475,444.123565,1110.308913,-10878.556072
895.771795,2516.700203,2368.659014,-10955.165621
895.772115,3923.091493,2368.659014,-11031.775171
895.772435,2368.659014,2072.576638,-10801.946522
895.772755,1998.556043,666.185348,-10801.946522
895.773075,1998.556043,296.082377,-10189.070123
895.773395,666.185348,666.185348,-11797.870669
895.773715,148.041188,666.185348,-10725.336972
895.774035,-296.082377,0.000000,-9652.803275
895.774355,-888.247130,-1184.329507,-10495.508323
895.774675,-370.102971,-1628.453072,-9882.631924
895.774995,0.000000,-666.185348,-10495.508323
895.775315,962.267725,888.247130,-10725.336972
895.775635,1924.535449,962.267725,-10035.851024
895.775955,2812.782580,1110.308913,-10572.117872
895.776275,1998.556043,-148.041188,-10265.679673
895.776595,962.267725,-370.102971,-9422.974625
895.776915,814.226536,0.000000,-10112.460574
895.777235,1332.370696,-962.267725,-9729.412825
895.777555,-296.082377,-1554.432478,-9193.145976
895.777875,-2442.679609,-1850.514855,-10035.851024
895.778195,-4663.297435,-1036.288319,-9193.145976
895.778515,-3923.091493,-222.061783,-9116.536426
895.778835,-2146.597232,0.000000,-9806.022374
895.779155,222.061783,-740.205942,-8810.098227
895.779475,962.267725,-740.205942,-9882.631924
895.779795,1406.391290,-1406.391290,-10035.851024
895.780115,1184.329507,-1110.308913,-9346.365076
895.780435,0.000000,814.226536,-10418.898773
895.780755,-666.185348,1998.556043,-8886.707777
895.781075,-1036.288319,2368.659014,-9806.022374
895.781395,-1258.350101,1036.288319,-10572.117872
895.781715,-1406.391290,-1332.370696,-10035.851024
895.782035,-1924.535449,-2738.761985,-9729.412825
895.782355,-518.144159,-1702.473667,-10648.727422
895.782675,1480.411884,370.102971,-10725.336972
895.782995,1110.308913,3404.947333,-10725.336972
895.783315,-814.226536,3256.906145,-11031.775171
895.783635,-1628.453072,3256.906145,-10035.851024
895.783954,-888.247130,1258.350101,-10955.165621
895.784274,1924.535449,962.267725,-10801.946522
895.784594,3849.070898,1036.288319,-10495.508323
895.784914,3034.844362,0.000000,-11338.213370
895.785234,1776.494261,1628.453072,-10265.679673
895.785554,0.000000,1258.350101,-10418.898773
895.785874,74.020594,2072.576638,-10572.117872
895.786194,74.020594,888.247130,-9652.803275
895.786514,0.000000,222.061783,-9882.631924
895.786834,1184.329507,74.020594,-9882.631924
895.787154,3182.885551,-444.123565,-9346.365076
895.787474,3997.112087,-1332.370696,-9729.412825
895.787794,2960.823768,-370.102971,-9422.974625
895.788114,2220.617826,2220.617826,-9499.584175
895.788434,1406.391290,4811.338623,-10725.336972
895.788754,1924.535449,4737.318029,-9959.241474
895.789074,1998.556043,2220.617826,-9576.193725
895.789394,1776.494261,518.144159,-9652.803275
895.789714,2220.617826,-2590.720797,-9422.974625
895.790034,1554.432478,-3627.009116,-9576.193725
895.790354,1184.329507,-1554.432478,-9806.022374
895.790674,1702.473667,444.123565,-9116.536426
895.790994,1776.494261,2590.720797,-10648.727422
895.791314,1776.494261,2886.803174,-10572.117872
895.791634,0.000000,1406.391290,-10342.289223
895.791954,-888.247130,1110.308913,-10572.117872
895.792274,0.000000,-444.123565,-10725.336972
895.792594,1184.329507,-1480.411884,-10265.679673
895.792914,1184.329507,296.082377,-10878.556072
895.793234,1628.453072,962.267725,-10648.727422
895.793554,74.020594,1850.514855,-10495.508323
895.793874,-148.041188,1628.453072,-11108.384721
895.794194,-370.102971,1258.350101,-10418.898773
895.794514,-1258.350101,740.205942,-10648.727422
895.794834,-1554.432478,0.000000,-10572.117872
895.795154,-962.267725,-1480.411884,-9652.803275
895.795474,-1406.391290,-1628.453072,-9806.022374
895.795794,-814.226536,-1702.473667,-9959.241474
895.796114,518.144159,-370.102971,-9499.584175
895.796433,1850.514855,1332.370696,-10572.117872
895.796753,1924.535449,1924.535449,-10035.851024
895.797073,1184.329507,1406.391290,-9806.022374
895.797393,-1406.391290,-74.020594,-10112.460574
895.797713,-2146.597232,-1036.288319,-8733.488677
895.798033,-2220.617826,-1776.494261,-9422.974625
895.798353,-1406.391290,-1850.514855,-9882.631924
895.798673,222.061783,-962.267725,-9652.803275
895.798993,518.144159,-444.123565,-10035.851024
895.799313,-1036.288319,1036.288319,-9882.631924
895.799633,-2146.597232,148.041188,-9576.193725
895.799953,-2516.700203,814.226536,-10189.070123
895.800273,-222.061783,-444.123565,-10112.460574
895.800593,2590.720797,-740.205942,-9346.365076
895.800913,1924.535449,-2072.576638,-10725.336972
895.801233,2072.576638,-2294.638420,-9576.193725
895.801553,814.226536,-1110.308913,-9806.022374
895.801873,1850.514855,2072.576638,-11797.870669
895.802193,1924.535449,4145.153275,-10265.679673
895.802513,962.267725,4885.359217,-11261.603821
895.802833,296.082377,3256.906145,-11491.432470
895.803153,-370.102971,-296.082377,-9806.022374
895.803473,-74.020594,-2442.679609,-10572.117872
895.803793,1850.514855,-3997.112087,-10035.851024
895.804113,3256.906145,-2294.638420,-9269.755526
895.804433,2590.720797,1184.329507,-11261.603821
895.804753,3182.885551,3182.885551,-10265.679673
895.805073,3478.967927,5625.565159,-10801.946522
895.805393,3701.029710,5107.421000,-11261.603821
895.805713,3627.009116,3108.864956,-9806.022374
895.806033,3997.112087,0.000000,-9959.241474
895.806353,3108.864956,-148.041188,-11491.432470
895.806673,2886.803174,148.041188,-9499.584175
895.806993,1036.288319,1998.556043,-9806.022374
895.807313,666.185348,3034.844362,-10265.679673
895.807633,2516.700203,3997.112087,-9652.803275
895.807953,4589.276840,4663.297435,-10572.117872
895.808273,5403.503377,4885.359217,-10035.851024
895.808593,3404.947333,2368.659014,-9499.584175
895.808912,2220.617826,444.123565,-9576.193725
895.809232,2368.659014,-814.226536,-9422.974625
895.809552,2960.823768,666.185348,-9269.755526
895.809872,4367.215058,2368.659014,-9422.974625
895.810192,3849.070898,3997.112087,-10955.165621
895.810512,2812.782580,3478.967927,-10035.851024
895.810832,1110.308913,3923.091493,-10112.460574
895.811152,1850.514855,4145.153275,-10495.508323
895.811472,2294.638420,2886.803174,-10035.851024
895.811792,2442.679609,1924.535449,-10265.679673
895.812112,1184.329507,1776.494261,-10572.117872
895.812432,1628.453072,2146.597232,-10189.070123
895.812752,1628.453072,4071.132681,-10572.117872
895.813072,2516.700203,5477.523971,-10418.898773
895.813392,4441.235652,5033.400406,-10265.679673
895.813712,4071.132681,4737.318029,-10878.556072
895.814032,2664.741391,4441.235652,-10418.898773
895.814352,1702.473667,3478.967927,-10189.070123
895.814672,222.061783,3108.864956,-9959.241474
895.814992,-962.267725,2220.617826,-9729.412825
895.815312,1036.288319,1924.535449,-9806.022374
895.815632,4367.215058,2146.597232,-9882.631924
895.815952,4071.132681,2442.679609,-9652.803275
895.816272,1628.453072,3404.947333,-9116.536426
895.816592,1332.370696,4663.297435,-10112.460574
895.816912,1184.329507,4885.359217,-9806.022374
895.817232,2886.803174,4589.276840,-9806.022374
895.817552,3404.947333,2368.659014,-9882.631924
895.817872,2886.803174,296.082377,-9652.803275
895.818192,2294.638420,-370.102971,-9806.022374
895.818512,1850.514855,1332.370696,-9116.536426
895.818832,1702.473667,3552.988522,-10035.851024
895.819152,740.205942,4737.318029,-9729.412825
895.819472,-740.205942,2368.659014,-9806.022374
895.819792,-1406.391290,1332.370696,-9729.412825
895.820112,74.020594,962.267725,-9882.631924
895.820432,2738.761985,444.123565,-10342.289223
895.820752,3775.050304,1332.370696,-10112.460574
895.821072,3923.091493,2368.659014,-10342.289223
895.821391,4885.359217,3923.091493,-10725.336972
895.821711,2886.803174,5551.544565,-11108.384721
895.822031,-740.205942,5477.523971,-10725.336972
895.822351,370.102971,3923.091493,-10418.898773
895.822671,2220.617826,1702.473667,-10955.165621
895.822991,3404.947333,74.020594,-10572.117872
895.823311,2590.720797,-444.123565,-10342.289223
895.823631,1406.391290,518.144159,-9806.022374
895.823951,2442.679609,2442.679609,-10418.898773
895.824271,4071.132681,4663.297435,-10955.165621
895.824591,3256.906145,5255.462188,-10725.336972
895.824911,962.267725,3849.070898,-10035.851024
895.825231,1332.370696,1258.350101,-10112.460574
895.825551,4885.359217,-296.082377,-10112.460574
895.825871,6291.750507,518.144159,-10342.289223
895.826191,4219.173869,2294.638420,-10495.508323
895.826511,3256.906145,3997.112087,-9729.412825
895.826831,3849.070898,4367.215058,-10035.851024
895.827151,3552.988522,4071.132681,-10648.727422
895.827471,1924.535449,2812.782580,-9806.022374
895.827791,814.226536,1776.494261,-9576.193725
895.828111,2072.576638,148.041188,-9729.412825
895.828431,3627.009116,-666.185348,-9193.145976
895.828751,3330.926739,222.061783,-10035.851024
895.829071,2220.617826,1776.494261,-9806.022374
895.829391,2368.659014,3182.885551,-9959.241474
895.829711,3849.070898,4293.194464,-9806.022374
895.830031,4811.338623,4367.215058,-10265.679673
895.830351,4441.235652,3478.967927,-10572.117872
895.830671,2368.659014,2738.761985,-10112.460574
895.830991,740.205942,1480.411884,-10189.070123
895.831311,-296.082377,592.164754,-9729.412825
895.831631,-222.061783,666.185348,-9806.022374
895.831951,1480.411884,518.144159,-10418.898773
895.832271,2960.823768,666.185348,-9882.631924
895.832591,1702.473667,1998.556043,-10495.508323
895.832911,-222.061783,2738.761985,-10572.117872
895.833231,-148.041188,4071.132681,-9959.241474
895.833551,1998.556043,3775.050304,-10878.556072
895.833871,4071.132681,3182.885551,-10495.508323
895.834191,3627.009116,1998.556043,-10342.289223
895.834511,1258.350101,1924.535449,-10725.336972
895.834832,-222.061783,2072.576638,-9882.631924
895.835152,-1480.411884,2516.700203,-9652.803275
895.835472,-592.164754,3034.844362,-10342.289223
895.835792,518.144159,1406.391290,-9652.803275
895.836112,1776.494261,592.164754,-9576.193725
895.836432,2442.679609,1406.391290,-10342.289223
895.836752,3256.906145,3108.864956,-10189.070123
895.837072,2516.700203,4885.359217,-10189.070123
895.837392,2294.638420,5551.544565,-9882.631924
895.837712,3923.091493,3552.988522,-10035.851024
895.838032,4959.379811,1850.514855,-10189.070123
895.838352,3256.906145,1110.308913,-10189.070123
895.838672,1184.329507,1702.473667,-9806.022374
895.838992,1406.391290,2960.823768,-9959.241474
895.839312,1628.453072,3849.070898,-10265.679673
895.839632,518.144159,3701.029710,-9959.241474
895.839952,592.164754,2368.659014,-9576.193725
895.840272,1924.535449,1110.308913,-9806.022374
895.840592,3849.070898,1036.288319,-10035.851024
895.840912,5255.462188,2220.617826,-10189.070123
895.841232,5551.544565,3775.050304,-10265.679673
895.841552,6587.832884,5181.441594,-9959.241474
895.841872,6291.750507,5847.626942,-9652.803275
895.842192,3923.091493,5255.462188,-10572.117872
895.842512,888.247130,3923.091493,-10265.679673
895.842832,444.123565,1406.391290,-9576.193725
895.843152,1702.473667,-740.205942,-9959.241474
895.843472,2886.803174,-1628.453072,-9269.755526
895.843792,2368.659014,-1036.288319,-9499.584175
895.844112,2220.617826,1998.556043,-9806.022374
895.844432,3330.926739,5181.441594,-10342.289223
895.844752,5255.462188,7772.162391,-10495.508323
895.845072,5995.668130,6957.935855,-10572.117872
895.845392,4737.318029,4737.318029,-10725.336972
895.845712,2590.720797,2220.617826,-10342.289223
895.846032,666.185348,666.185348,-9806.022374
895.846352,-1332.370696,444.123565,-9806.022374
895.846672,-1036.288319,296.082377,-9499.584175
895.846992,148.041188,666.185348,-9576.193725
895.847312,814.226536,962.267725,-9729.412825
895.847632,1110.308913,2146.597232,-9959.241474
895.847953,2738.761985,3849.070898,-10265.679673
895.848273,4737.318029,5107.421000,-10495.508323
895.848593,6069.688724,5403.503377,-10572.117872
895.848913,5625.565159,4737.318029,-10342.289223
895.849233,3701.029710,3108.864956,-10265.679673
895.849553,1480.411884,1998.556043,-10189.070123
895.849873,370.102971,2146.597232,-10189.070123
895.850193,-296.082377,2516.700203,-10189.070123
895.850513,-888.247130,2220.617826,-10035.851024
895.850833,-2072.576638,1110.308913,-9959.241474
895.851153,-2294.638420,0.000000,-9806.022374
895.851473,-888.247130,0.000000,-9806.022374
895.851793,1332.370696,592.164754,-9806.022374
895.852113,4589.276840,2072.576638,-9806.022374
895.852433,6513.812290,3701.029710,-10265.679673
895.852753,6957.935855,5033.400406,-10801.946522
895.853073,5699.585753,5551.544565,-10801.946522
895.853393,3775.050304,6217.729913,-10878.556072
895.853713,1924.535449,4737.318029,-10801.946522
895.854033,962.267725,2590.720797,-10418.898773
895.854353,296.082377,222.061783,-9882.631924
895.854673,-740.205942,-962.267725,-10112.460574
895.854993,-1776.494261,-962.267725,-9806.022374
895.855313,-1480.411884,148.041188,-9499.584175
895.855633,296.082377,2220.617826,-9729.412825
895.855953,2960.823768,3330.926739,-9882.631924
895.856273,5255.462188,4071.132681,-10189.070123
895.856593,6809.894666,3775.050304,-10112.460574
895.856913,6809.894666,3552.988522,-10495.508323
895.857233,5255.462188,2960.823768,-10342.289223
895.857553,3034.844362,2886.803174,-10112.460574
895.857873,370.102971,1332.370696,-10189.070123
895.858193,-962.267725,0.000000,-9652.803275
895.858513,-962.267725,-1258.350101,-9652.803275
895.858833,-814.226536,-1480.411884,-9806.022374
895.859153,-148.041188,-592.164754,-10725.336972
895.859473,814.226536,740.205942,-10035.851024
895.859793,2738.761985,2368.659014,-10418.898773
895.860113,4071.132681,3552.988522,-10418.898773
895.860433,4737.318029,3997.112087,-10265.679673
895.860753,3923.091493,4293.194464,-10725.336972
895.861073,3552.988522,3849.070898,-10648.727422
895.861394,3034.844362,3108.864956,-10725.336972
895.861714,2220.617826,2368.659014,-10418.898773
895.862034,1406.391290,296.082377,-10572.117872
895.862354,222.061783,740.205942,-10035.851024
895.862674,222.061783,740.205942,-9959.241474
895.862994,1332.370696,1776.494261,-10189.070123
895.863314,2516.700203,3034.844362,-10035.851024
895.863634,3552.988522,3034.844362,-10035.851024
895.863954,4589.276840,3775.050304,-9959.241474
895.864274,5921.647536,4219.173869,-10265.679673
895.864594,7328.038826,4737.318029,-10265.679673
895.864914,6957.935855,5625.565159,-10495.508323
895.865234,5625.565159,5625.565159,-10418.898773
895.865554,2960.823768,5033.400406,-10189.070123
895.865874,518.144159,3923.091493,-10189.070123
895.866194,-1036.288319,1184.329507,-9729.412825
895.866514,-1702.473667,0.000000,-9422.974625
895.866834,-370.102971,-518.144159,-9193.145976
895.867154,1406.391290,-222.061783,-9193.145976
895.867474,3182.885551,1406.391290,-9422.974625
895.867794,4293.194464,3923.091493,-9806.022374
895.868114,5329.482782,6661.853478,-9959.241474
895.868434,6217.729913,7920.203579,-10495.508323
895.868754,5847.626942,7698.141797,-10495.508323
895.869074,4885.359217,6143.709319,-10265.679673
895.869394,3552.988522,3849.070898,-10418.898773
895.869714,2442.679609,2220.617826,-10112.460574
895.870034,370.102971,1998.556043,-10189.070123
895.870354,-2368.659014,2590.720797,-9729.412825
895.870674,-3256.906145,3404.947333,-9959.241474
895.870994,-1998.556043,3404.947333,-9806.022374
895.871314,1258.350101,2590.720797,-10189.070123
895.871634,2960.823768,2220.617826,-10418.898773
895.871954,3775.050304,2516.700203,-9422.974625
895.872274,3552.988522,3849.070898,-9882.631924
895.872594,4441.235652,4959.379811,-10189.070123
895.872914,5773.606348,6069.688724,-10035.851024
895.873234,6291.750507,6291.750507,-10495.508323
895.873554,4663.297435,4663.297435,-10648.727422
895.873874,444.123565,3108.864956,-10189.070123
895.874194,-2664.741391,1554.432478,-9882.631924
895.874514,-2886.803174,370.102971,-9576.193725
895.874835,-1480.411884,0.000000,-9882.631924
895.875155,-740.205942,-1036.288319,-9116.536426
895.875475,296.082377,-666.185348,-9346.365076
895.875795,2590.720797,1554.432478,-9729.412825
895.876115,5847.626942,4367.215058,-11797.870669
895.876435,7698.141797,6365.771101,-10648.727422
895.876755,6957.935855,6661.853478,-10495.508323
895.877075,5329.482782,5403.503377,-10189.070123
895.877395,4219.173869,3034.844362,-10112.460574
895.877715,2516.700203,814.226536,-9806.022374
895.878035,740.205942,-370.102971,-9806.022374
895.878355,0.000000,-592.164754,-9882.631924
895.878675,-370.102971,-296.082377,-9882.631924
895.878995,-888.247130,1480.411884,-9499.584175
895.879315,-592.164754,2146.597232,-10035.851024
895.879635,1406.391290,2886.803174,-10342.289223
895.879955,4071.132681,2812.782580,-10648.727422
895.880275,5921.647536,2812.782580,-11414.822920
895.880595,7105.977043,2516.700203,-10648.727422
895.880915,5995.668130,3034.844362,-10801.946522
895.881235,4589.276840,3997.112087,-10801.946522
895.881555,2146.597232,4219.173869,-10648.727422
895.881875,518.144159,2590.720797,-10725.336972
895.882195,296.082377,518.144159,-10265.679673
895.882515,148.041188,-740.205942,-10035.851024
895.882835,0.000000,-1480.411884,-10342.289223
895.883155,-370.102971,-666.185348,-9346.365076
895.883475,0.000000,1110.308913,-10189.070123
895.883795,2442.679609,1850.514855,-9806.022374
895.884115,4811.338623,2664.741391,-9729.412825
895.884435,6143.709319,3330.926739,-10495.508323
895.884755,6439.791695,3330.926739,-11721.261119
895.885075,4885.359217,4367.215058,-10801.946522
895.885395,3034.844362,4663.297435,-10495.508323
895.885715,1850.514855,3404.947333,-9882.631924
895.886035,296.082377,2146.597232,-9269.755526
895.886355,-2146.597232,-518.144159,-10035.851024
895.886675,-4071.132681,-1480.411884,-8963.317327
895.886995,-4441.235652,-1776.494261,-9346.365076
895.887315,-1110.308913,-962.267725,-9039.926876
895.887635,4663.297435,-740.205942,-9346.365076
895.887956,6143.709319,2146.597232,-10189.070123
895.888276,5551.544565,3404.947333,-9882.631924
895.888596,4441.235652,5403.503377,-9652.803275
895.888916,4885.359217,6809.894666,-10342.289223
895.889236,6069.688724,5551.544565,-10725.336972
895.889556,4071.132681,4071.132681,-10878.556072
895.889876,888.247130,2072.576638,-10648.727422
895.890196,-1924.535449,962.267725,-9576.193725
895.890516,-2664.741391,814.226536,-10342.289223
895.890836,-1554.432478,1480.411884,-10342.289223
895.891156,-1258.350101,1702.473667,-9806.022374
895.891476,-814.226536,2072.576638,-10189.070123
895.891796,2960.823768,1998.556043,-9652.803275
895.892116,6365.771101,3256.906145,-10878.556072
895.892436,7550.100608,4737.318029,-11184.994271
895.892756,6587.832884,6661.853478,-10495.508323
895.893076,6587.832884,6217.729913,-10495.508323
895.893396,7402.059420,5329.482782,-11031.775171
895.893716,6365.771101,3701.029710,-10495.508323
895.894036,2960.823768,3330.926739,-10418.898773
895.894356,-666.185348,3182.885551,-10035.851024
895.894676,-1850.514855,3256.906145,-9806.022374
895.894996,-2664.741391,2368.659014,-10495.508323
895.895316,-2590.720797,1110.308913,-8886.707777
895.895636,74.020594,888.247130,-9039.926876
895.895956,4515.256246,1258.350101,-8656.879127
895.896276,7550.100608,2886.803174,-9576.193725
895.896596,7105.977043,5033.400406,-9882.631924
895.896916,6069.688724,7031.956449,-10035.851024
895.897236,6439.791695,7402.059420,-9806.022374
895.897556,4959.379811,6217.729913,-10189.070123
895.897876,2738.761985,4293.194464,-9269.755526
895.898196,0.000000,2294.638420,-9959.241474
895.898516,444.123565,518.144159,-9806.022374
895.898836,444.123565,74.020594,-9652.803275
895.899156,-1406.391290,-518.144159,-9576.193725
895.899476,-2442.679609,-370.102971,-9499.584175
895.899796,-1406.391290,962.267725,-9729.412825
895.900116,296.082377,2812.782580,-9882.631924
895.900436,1998.556043,5329.482782,-9959.241474
895.900756,4737.318029,6143.709319,-10725.336972
895.901076,5625.565159,6439.791695,-11031.775171
895.901397,4663.297435,4663.297435,-10955.165621
895.901717,4441.235652,2516.700203,-10801.946522
895.902037,1332.370696,1776.494261,-10265.679673
895.902357,-148.041188,1850.514855,-10112.460574
895.902677,-1924.535449,2294.638420,-10648.727422
895.902997,-1406.391290,1480.411884,-10495.508323
895.903317,-740.205942,888.247130,-9269.755526
895.903637,0.000000,962.267725,-10189.070123
895.903957,592.164754,1480.411884,-10035.851024
895.904277,3627.009116,2442.679609,-10955.165621
895.904597,5551.544565,3552.988522,-10265.679673
895.904917,6291.750507,4367.215058,-10265.679673
895.905237,6809.894666,4589.276840,-10648.727422
895.905557,5699.585753,4293.194464,-10342.289223
895.905877,3182.885551,2738.761985,-10265.679673
895.906197,1702.473667,1406.391290,-9499.584175
895.906517,1258.350101,962.267725,-8963.317327
895.906837,814.226536,-148.041188,-9499.584175
895.907157,-814.226536,-1480.411884,-9346.365076
895.907477,-962.267725,-1332.370696,-9422.974625
895.907797,1036.288319,-1184.329507,-9576.193725
895.908117,3182.885551,-222.061783,-9193.145976
895.908437,3034.844362,1776.494261,-9806.022374
895.908757,2220.617826,3701.029710,-11568.042020
895.909077,3997.112087,4145.153275,-11031.775171
895.909397,5255.462188,4737.318029,-10342.289223
895.909717,5033.400406,4145.153275,-10878.556072
895.910037,3034.844362,1702.473667,-10725.336972
895.910357,888.247130,-592.164754,-9806.022374
895.910677,0.000000,-2368.659014,-9806.022374
895.910997,-370.102971,-2812.782580,-9193.145976
895.911317,-1332.370696,-1110.308913,-9806.022374
895.911637,-1480.411884,1406.391290,-10725.336972
895.911957,-222.061783,2442.679609,-10495.508323
895.912277,1554.432478,3108.864956,-10418.898773
895.912597,2886.803174,2072.576638,-10878.556072
895.912917,3923.091493,-1110.308913,-10342.289223
895.913237,3627.009116,-1406.391290,-10112.460574
895.913557,1554.432478,-1258.350101,-10878.556072
895.913877,1924.535449,-222.061783,-9806.022374
895.914197,1036.288319,1702.473667,-10725.336972
895.914517,0.000000,2590.720797,-10495.508323
895.914838,-592.164754,1554.432478,-9729.412825
895.915158,-962.267725,0.000000,-10725.336972
895.915478,-2294.638420,-1998.556043,-9959.241474
895.915798,-1184.329507,-2886.803174,-8656.879127
895.916118,740.205942,-1332.370696,-9959.241474
895.916438,2220.617826,-296.082377,-10418.898773
895.916758,1702.473667,1110.308913,-9729.412825
895.917078,370.102971,1406.391290,-10572.117872
895.917398,888.247130,1480.411884,-9806.022374
895.917718,2442.679609,1628.453072,-9499.584175
895.918038,2220.617826,2590.720797,-10955.165621
895.918358,0.000000,1998.556043,-10035.851024
895.918678,-2220.617826,0.000000,-9729.412825
895.918998,-3923.091493,-1554.432478,-10265.679673
895.919318,-3256.906145,-3701.029710,-8963.317327
895.919638,-3404.947333,-2442.679609,-9652.803275
895.919958,-2812.782580,-666.185348,-9959.241474
895.920278,-1332.370696,592.164754,-9422.974625
895.920598,444.123565,2220.617826,-10342.289223
895.920918,2294.638420,1850.514855,-10342.289223
895.921238,2072.576638,1406.391290,-9576.193725
895.921558,0.000000,1110.308913,-10955.165621
895.921878,962.267725,444.123565,-10265.679673
895.922198,1332.370696,1480.411884,-9882.631924
895.922518,518.144159,1258.350101,-11338.213370
895.922838,0.000000,814.226536,-9959.241474
895.923158,-1184.329507,814.226536,-10342.289223
895.923478,-1036.288319,518.144159,-10725.336972
895.923798,0.000000,0.000000,-9576.193725
895.924118,-518.144159,0.000000,-10342.289223
895.924438,814.226536,-740.205942,-10035.851024
895.924758,1628.453072,-518.144159,-9422.974625
895.925078,3034.844362,1184.329507,-10878.556072
895.925398,3923.091493,3404.947333,-9959.241474
895.925718,3034.844362,5107.421000,-10572.117872
895.926038,1850.514855,4663.297435,-9959.241474
895.926358,2368.659014,1110.308913,-9499.584175
895.926678,148.041188,-1184.329507,-9806.022374
895.926998,-2368.659014,-3034.844362,-10112.460574
895.927318,-2442.679609,-3034.844362,-8503.660028
895.927638,-2146.597232,-814.226536,-9499.584175
895.927958,74.020594,1480.411884,-9576.193725
895.928279,2738.761985,2368.659014,-9652.803275
895.928599,3034.844362,2664.741391,-11108.384721
895.928919,3330.926739,1628.453072,-9882.631924
895.929239,2664.741391,666.185348,-9576.193725
895.929559,3108.864956,370.102971,-10648.727422
895.929879,4737.318029,0.000000,-9806.022374
895.930199,4071.132681,-222.061783,-9422.974625
895.930519,0.000000,0.000000,-10725.336972
895.930839,-1924.535449,0.000000,-9882.631924
895.931158,-2368.659014,592.164754,-10878.556072
895.931478,-1628.453072,1258.350101,-10572.117872
895.931798,518.144159,814.226536,-9806.022374
895.932118,1776.494261,296.082377,-10418.898773
895.932438,2812.782580,-1628.453072,-10955.165621
895.932758,2960.823768,-2664.741391,-10112.460574
895.933078,1332.370696,148.041188,-11184.994271
895.933398,1776.494261,2294.638420,-10418.898773
895.933718,2812.782580,5255.462188,-11031.775171
895.934038,3627.009116,5773.606348,-12027.699319
895.934358,1776.494261,2812.782580,-10418.898773
895.934678,-296.082377,-296.082377,-10648.727422
895.934998,-2072.576638,-3849.070898,-10189.070123
895.935318,-1628.453072,-5181.441594,-8503.660028
895.935638,-2960.823768,-3256.906145,-9652.803275
895.935958,-3701.029710,-1332.370696,-9806.022374
895.936278,-3775.050304,1406.391290,-9116.536426
895.936597,-2442.679609,3034.844362,-10418.898773
895.936917,1258.350101,1554.432478,-9346.365076
895.937237,4293.194464,592.164754,-9422.974625
895.937557,3923.091493,-370.102971,-10572.117872
895.937877,1258.350101,-1332.370696,-9269.755526
895.938197,-1258.350101,-1554.432478,-9346.365076
895.938517,-2072.576638,-2072.576638,-9882.631924
895.938837,-1702.473667,-1998.556043,-8656.879127
895.939157,-3478.967927,0.000000,-9652.803275
895.939477,-2590.720797,1850.514855,-9806.022374
895.939797,0.000000,1776.494261,-9499.584175
895.940117,1776.494261,370.102971,-10648.727422
895.940437,1554.432478,-1110.308913,-10265.679673
895.940757,-592.164754,-2146.597232,-9499.584175
895.941077,-1702.473667,-666.185348,-11031.775171
895.941397,-962.267725,0.000000,-9959.241474
895.941717,444.123565,1184.329507,-9882.631924
895.942036,888.247130,2664.741391,-11108.384721
895.942356,2368.659014,3034.844362,-10725.336972
895.942676,1850.514855,2738.761985,-11491.432470
895.942996,1554.432478,1776.494261,-11568.042020
895.943316,222.061783,1480.411884,-10572.117872
895.943636,-592.164754,222.061783,-10955.165621
895.943956,-444.123565,-814.226536,-9882.631924
895.944276,740.205942,-1036.288319,-9729.412825
895.944596,296.082377,-296.082377,-10648.727422
895.944916,2738.761985,-444.123565,-10418.898773
895.945236,3627.009116,1628.453072,-10495.508323
895.945556,3404.947333,3775.050304,-10418.898773
895.945876,4663.297435,3108.864956,-9652.803275
895.946196,2886.803174,1702.473667,-10955.165621
895.946516,1702.473667,-962.267725,-9806.022374
895.946836,74.020594,-2812.782580,-9039.926876
895.947156,-1776.494261,-2960.823768,-8963.317327
895.947475,0.000000,-2664.741391,-8733.488677
895.947795,1036.288319,-814.226536,-9193.145976
895.948115,1258.350101,0.000000,-10265.679673
895.948435,1406.391290,-1110.308913,-9346.365076
895.948755,222.061783,-962.267725,-9116.536426
895.949075,518.144159,-666.185348,-9806.022374
895.949395,3627.009116,-222.061783,-9269.755526
895.949715,3701.029710,296.082377,-10265.679673
895.950035,2886.803174,0.000000,-10189.070123
895.950355,148.041188,-148.041188,-9499.584175
895.950675,-1998.556043,296.082377,-10648.727422
895.950995,-740.205942,1332.370696,-10801.946522
895.951315,1480.411884,962.267725,-10265.679673
895.951635,1702.473667,296.082377,-10955.165621
895.951955,0.000000,-1628.453072,-10418.898773
895.952275,-1924.535449,-2220.617826,-9806.022374
895.952595,-2146.597232,-1332.370696,-10955.165621
895.952914,666.185348,740.205942,-10112.460574
895.953234,1850.514855,2442.679609,-11031.775171
895.953554,888.247130,2960.823768,-11644.651570
895.953874,-1036.288319,1998.556043,-10112.460574
895.954194,-1850.514855,1998.556043,-11261.603821
895.954514,0.000000,1998.556043,-10725.336972
895.954834,370.102971,444.123565,-9959.241474
895.955154,-296.082377,-1480.411884,-10648.727422
895.955474,-2738.761985,-2442.679609,-9729.412825
895.955794,-4071.132681,-1850.514855,-8197.221829
895.956114,-3775.050304,296.082377,-9806.022374
895.956434,666.185348,1184.329507,-9422.974625
895.956754,3108.864956,2146.597232,-10112.460574
895.957074,2738.761985,1776.494261,-10265.679673
895.957394,1998.556043,740.205942,-8810.098227
895.957714,-296.082377,518.144159,-9652.803275
895.958034,666.185348,0.000000,-9576.193725
895.958353,2146.597232,-370.102971,-9116.536426
895.958673,-592.164754,222.061783,-10265.679673
895.958993,-2812.782580,-592.164754,-9193.145976
895.959313,-3775.050304,0.000000,-8886.707777
895.959633,-1998.556043,1702.473667,-10342.289223
895.959953,1554.432478,888.247130,-9499.584175
895.960273,2220.617826,1184.329507,-9882.631924
895.960593,1332.370696,0.000000,-10495.508323
895.960913,444.123565,-592.164754,-9193.145976
895.961233,1110.308913,518.144159,-10572.117872
895.961553,3182.885551,2072.576638,-10801.946522
895.961873,4219.173869,2146.597232,-10035.851024
895.962193,2442.679609,1554.432478,-11031.775171
895.962513,2220.617826,-592.164754,-10572.117872
895.962833,1924.535449,-592.164754,-9806.022374
895.963153,296.082377,-222.061783,-11261.603821
895.963473,0.000000,-444.123565,-9882.631924
895.963792,-814.226536,370.102971,-10112.460574
