#time,accel_x,accel_y,accel_z
913.152601,814.226536,74.020594,-10342.289223
913.152921,518.144159,592.164754,-10112.460574
913.153241,444.123565,1258.350101,-9882.631924
913.153561,666.185348,592.164754,-10035.851024
913.153881,74.020594,666.185348,-10112.460574
913.154200,148.041188,74.020594,-10189.070123
913.154520,518.144159,-222.061783,-10112.460574
913.154840,222.061783,0.000000,-10112.460574
913.155160,592.164754,296.082377,-9806.022374
913.155480,444.123565,592.164754,-10265.679673
913.155800,666.185348,444.123565,-9959.241474
913.156120,148.041188,814.226536,-10189.070123
913.156440,666.185348,0.000000,-10189.070123
913.156760,518.144159,-222.061783,-9806.022374
913.157080,592.164754,-518.144159,-9882.631924
913.157400,0.000000,444.123565,-9576.193725
913.157720,0.000000,518.144159,-10342.289223
913.158039,370.102971,592.164754,-10189.070123
913.158359,148.041188,518.144159,-9806.022374
913.158679,444.123565,444.123565,-10112.460574
913.158999,1036.288319,-370.102971,-9882.631924
913.159319,888.247130,0.000000,-9882.631924
913.159639,962.267725,74.020594,-9806.022374
913.159959,740.205942,296.082377,-9729.412825
913.160279,740.205942,1036.288319,-9652.803275
913.160599,222.061783,370.102971,-9959.241474
913.160919,296.082377,74.020594,-10035.851024
913.161239,74.020594,148.041188,-10112.460574
913.161559,296.082377,222.061783,-9959.241474
913.161878,1184.329507,-592.164754,-9959.241474
913.162198,444.123565,222.061783,-9959.241474
913.162518,666.185348,592.164754,-10265.679673
913.162838,740.205942,74.020594,-10189.070123
913.163158,740.205942,592.164754,-9806.022374
913.163478,444.123565,296.082377,-9806.022374
913.163798,518.144159,370.102971,-10112.460574
913.164118,444.123565,74.020594,-10189.070123
913.164438,0.000000,74.020594,-10265.679673
913.164758,740.205942,370.102971,-9882.631924
913.165078,1184.329507,148.041188,-10189.070123
913.165398,222.061783,370.102971,-10189.070123
913.165717,74.020594,0.000000,-9959.241474
913.166037,74.020594,74.020594,-9729.412825
913.166357,814.226536,74.020594,-10342.289223
913.166677,444.123565,0.000000,-9806.022374
913.166997,518.144159,222.061783,-9882.631924
913.167317,814.226536,0.000000,-10035.851024
913.167637,888.247130,0.000000,-10035.851024
913.167957,518.144159,148.041188,-10189.070123
913.168277,0.000000,0.000000,-10265.679673
913.168597,0.000000,296.082377,-9882.631924
913.168917,666.185348,-370.102971,-9806.022374
913.169237,370.102971,74.020594,-10112.460574
913.169556,-222.061783,-222.061783,-9882.631924
913.169876,-444.123565,-666.185348,-10035.851024
913.170196,-296.082377,-296.082377,-9576.193725
913.170516,518.144159,-1184.329507,-9806.022374
913.170836,-222.061783,-148.041188,-10189.070123
913.171156,-666.185348,-518.144159,-9959.241474
913.171476,-148.041188,-592.164754,-10035.851024
913.171796,222.061783,-1258.350101,-10495.508323
913.172116,-888.247130,-1036.288319,-10035.851024
913.172436,-1480.411884,-1480.411884,-10035.851024
913.172756,-814.226536,-1554.432478,-9959.241474
913.173076,-444.123565,-1332.370696,-9269.755526
913.173395,-1036.288319,-1406.391290,-10035.851024
913.173715,-2072.576638,-1998.556043,-10112.460574
913.174035,-1628.453072,-1702.473667,-9806.022374
913.174355,-814.226536,-1924.535449,-10035.851024
913.174675,-666.185348,-1406.391290,-10878.556072
913.174995,-1480.411884,-1924.535449,-10342.289223
913.175315,-1480.411884,-2294.638420,-9959.241474
913.175635,-444.123565,-1850.514855,-9882.631924
913.175955,0.000000,-1850.514855,-9959.241474
913.176275,-1628.453072,-1554.432478,-10035.851024
913.176595,-2960.823768,-2590.720797,-10112.460574
913.176915,-3404.947333,-3034.844362,-9882.631924
913.177234,-2590.720797,-3330.926739,-10112.460574
913.177554,-2368.659014,-3182.885551,-9652.803275
913.177874,-3108.864956,-3478.967927,-10035.851024
913.178194,-2738.761985,-3256.906145,-10035.851024
913.178514,-1258.350101,-2590.720797,-10112.460574
913.178834,296.082377,-1998.556043,-10265.679673
913.179154,814.226536,-962.267725,-10342.289223
913.179474,148.041188,-962.267725,-10725.336972
913.179794,-1406.391290,-1258.350101,-10418.898773
913.180114,-2664.741391,-1924.535449,-10495.508323
913.180434,-4071.132681,-3034.844362,-10342.289223
913.180754,-5329.482782,-3627.009116,-9882.631924
913.181073,-5255.462188,-4515.256246,-9652.803275
913.181393,-3256.906145,-5033.400406,-9806.022374
913.181713,-814.226536,-4293.194464,-10189.070123
913.182033,444.123565,-2960.823768,-10112.460574
913.182353,1036.288319,-740.205942,-10418.898773
913.182673,1628.453072,962.267725,-10495.508323
913.182993,2294.638420,1702.473667,-9806.022374
913.183313,2294.638420,1406.391290,-10495.508323
913.183633,962.267725,0.000000,-10572.117872
913.183953,-592.164754,-2368.659014,-10035.851024
913.184273,-2738.761985,-3404.947333,-9959.241474
913.184593,-4589.276840,-3701.029710,-9422.974625
913.184912,-5699.585753,-4219.173869,-9116.536426
913.185232,-4959.379811,-4219.173869,-9346.365076
913.185552,-2368.659014,-4737.318029,-9269.755526
913.185872,222.061783,-3775.050304,-9806.022374
913.186192,1406.391290,-2072.576638,-9806.022374
913.186512,2220.617826,444.123565,-10189.070123
913.186832,3627.009116,2812.782580,-10265.679673
913.187152,3478.967927,3701.029710,-11108.384721
913.187472,1406.391290,3478.967927,-11031.775171
913.187792,-2886.803174,592.164754,-10495.508323
913.188112,-5847.626942,-2886.803174,-10035.851024
913.188432,-6217.729913,-5699.585753,-9729.412825
913.188751,-4811.338623,-7105.977043,-10955.165621
913.189071,-4441.235652,-6661.853478,-9576.193725
913.189391,-3849.070898,-4515.256246,-9499.584175
913.189711,-1184.329507,-1406.391290,-10112.460574
913.190031,1628.453072,1776.494261,-11184.994271
913.190351,2516.700203,4071.132681,-10955.165621
913.190671,2590.720797,3701.029710,-10801.946522
913.190991,2368.659014,1776.494261,-10878.556072
913.191311,1998.556043,-296.082377,-10572.117872
913.191631,-1258.350101,-1184.329507,-10572.117872
913.191951,-3404.947333,-1850.514855,-9959.241474
913.192271,-5107.421000,-2146.597232,-9652.803275
913.192590,-5921.647536,-3404.947333,-9882.631924
913.192910,-6735.874072,-4811.338623,-9422.974625
913.193230,-6735.874072,-5699.585753,-9193.145976
913.193550,-3330.926739,-5995.668130,-8963.317327
913.193870,1406.391290,-3997.112087,-9346.365076
913.194190,4367.215058,-962.267725,-9882.631924
913.194510,3627.009116,2072.576638,-10342.289223
913.194830,1998.556043,3330.926739,-10112.460574
913.195150,1406.391290,2960.823768,-10112.460574
913.195470,1776.494261,814.226536,-10265.679673
913.195790,1184.329507,-2220.617826,-10035.851024
913.196110,-2146.597232,-3997.112087,-10418.898773
913.196430,-5329.482782,-5181.441594,-9729.412825
913.196749,-8068.244768,-4589.276840,-9652.803275
913.197069,-8882.471304,-4367.215058,-9116.536426
913.197389,-6735.874072,-4811.338623,-9039.926876
913.197709,-1554.432478,-5329.482782,-9039.926876
913.198029,1776.494261,-4515.256246,-10112.460574
913.198349,3108.864956,-2294.638420,-10648.727422
913.198669,2368.659014,518.144159,-10725.336972
913.198989,2516.700203,2516.700203,-10878.556072
913.199309,2442.679609,4885.359217,-11031.775171
913.199629,1924.535449,3552.988522,-11338.213370
913.199949,-1184.329507,74.020594,-11031.775171
913.200269,-4663.297435,-3923.091493,-10189.070123
913.200588,-6735.874072,-6957.935855,-10189.070123
913.200908,-6735.874072,-7920.203579,-9499.584175
913.201228,-5255.462188,-8290.306550,-9116.536426
913.201548,-4589.276840,-7772.162391,-9269.755526
913.201868,-3330.926739,-5255.462188,-9039.926876
913.202188,-888.247130,-2146.597232,-9959.241474
913.202508,3256.906145,1184.329507,-10495.508323
913.202828,5699.585753,2960.823768,-11338.213370
913.203148,4219.173869,2516.700203,-11108.384721
913.203468,0.000000,1036.288319,-10648.727422
913.203788,-3330.926739,-666.185348,-10189.070123
913.204108,-4071.132681,-2146.597232,-9729.412825
913.204427,-3701.029710,-3775.050304,-9652.803275
913.204747,-5255.462188,-5847.626942,-9576.193725
913.205067,-6439.791695,-7328.038826,-8886.707777
913.205387,-4885.359217,-7994.224174,-8427.050478
913.205707,-2368.659014,-6439.791695,-9346.365076
913.206027,-296.082377,-3627.009116,-9806.022374
913.206347,-592.164754,-296.082377,-9882.631924
913.206667,-518.144159,1332.370696,-10189.070123
913.206987,2294.638420,1924.535449,-10112.460574
913.207307,4515.256246,1924.535449,-11261.603821
913.207627,3034.844362,888.247130,-11108.384721
913.207947,740.205942,-1332.370696,-10955.165621
913.208266,-2294.638420,-3627.009116,-10418.898773
913.208586,-3552.988522,-3552.988522,-10418.898773
913.208906,-4737.318029,-3701.029710,-10112.460574
913.209226,-6809.894666,-3627.009116,-10189.070123
913.209546,-3923.091493,-3701.029710,-9729.412825
913.209866,-1998.556043,-3701.029710,-10112.460574
913.210186,370.102971,-1702.473667,-10265.679673
913.210506,1554.432478,-1702.473667,-10189.070123
913.210826,3997.112087,-148.041188,-11031.775171
913.211146,3478.967927,592.164754,-10648.727422
913.211466,1184.329507,1036.288319,-10418.898773
913.211786,-148.041188,1702.473667,-10035.851024
913.212106,0.000000,888.247130,-10495.508323
913.212426,74.020594,-666.185348,-10342.289223
913.212746,-3404.947333,-2738.761985,-9882.631924
913.213066,-4959.379811,-4367.215058,-8963.317327
913.213387,-4885.359217,-4515.256246,-9576.193725
913.213707,-4293.194464,-4515.256246,-9422.974625
913.214027,-2664.741391,-3034.844362,-8886.707777
913.214347,-2442.679609,-2368.659014,-8580.269578
913.214668,-740.205942,-2590.720797,-8886.707777
913.214988,1998.556043,-1480.411884,-9806.022374
913.215308,4071.132681,888.247130,-10189.070123
913.215628,2442.679609,666.185348,-9959.241474
913.215949,2442.679609,1110.308913,-10495.508323
913.216269,0.000000,222.061783,-10495.508323
913.216589,-1332.370696,-888.247130,-9652.803275
913.216909,-4663.297435,-1628.453072,-10572.117872
913.217229,-6513.812290,-3627.009116,-9576.193725
913.217550,-5773.606348,-4071.132681,-9652.803275
913.217870,-6365.771101,-3923.091493,-10035.851024
913.218190,-4737.318029,-3182.885551,-9652.803275
913.218510,-666.185348,-2368.659014,-10572.117872
913.218831,592.164754,-1702.473667,-10112.460574
913.219151,592.164754,444.123565,-11108.384721
913.219471,2220.617826,518.144159,-11338.213370
913.219791,1036.288319,1850.514855,-11414.822920
913.220112,-148.041188,1628.453072,-10725.336972
913.220432,-222.061783,1332.370696,-10648.727422
913.220752,-444.123565,-148.041188,-10725.336972
913.221072,-962.267725,-3256.906145,-10418.898773
913.221392,-2146.597232,-5033.400406,-9422.974625
913.221713,-3627.009116,-6439.791695,-9116.536426
913.222033,-4663.297435,-4737.318029,-9729.412825
913.222353,-3627.009116,-2368.659014,-9193.145976
913.222673,-2368.659014,-2072.576638,-9806.022374
913.222994,74.020594,-814.226536,-9806.022374
913.223314,2516.700203,-1184.329507,-9652.803275
913.223634,1776.494261,-1036.288319,-10418.898773
913.223954,518.144159,0.000000,-9806.022374
913.224275,1776.494261,0.000000,-9882.631924
913.224595,2590.720797,-962.267725,-10112.460574
913.224915,222.061783,-1998.556043,-9959.241474
913.225235,-2812.782580,-4219.173869,-9652.803275
913.225556,-4441.235652,-5477.523971,-9499.584175
913.225876,-3923.091493,-3330.926739,-9652.803275
913.226196,-3182.885551,-1776.494261,-9882.631924
913.226516,-3478.967927,-148.041188,-10342.289223
913.226836,-1628.453072,-1406.391290,-10265.679673
913.227157,-222.061783,-2146.597232,-9806.022374
913.227477,-592.164754,-444.123565,-9806.022374
913.227797,-370.102971,1480.411884,-10725.336972
913.228117,1628.453072,666.185348,-10955.165621
913.228438,3330.926739,-1702.473667,-10572.117872
913.228758,296.082377,-1850.514855,-10878.556072
913.229078,-2146.597232,-1406.391290,-10418.898773
913.229398,-2738.761985,-148.041188,-10572.117872
913.229719,-1332.370696,296.082377,-10265.679673
913.230039,-888.247130,444.123565,-12180.918418
913.230359,-1702.473667,-1998.556043,-10572.117872
913.230679,-1258.350101,-4515.256246,-10342.289223
913.230999,-222.061783,-3997.112087,-9806.022374
913.231320,444.123565,-1480.411884,-9959.241474
913.231640,1998.556043,2886.803174,-10648.727422
913.231960,3182.885551,4145.153275,-11338.213370
913.232280,3478.967927,3849.070898,-10572.117872
913.232601,296.082377,740.205942,-10189.070123
913.232921,-1036.288319,-1924.535449,-9499.584175
913.233241,-222.061783,-2812.782580,-9346.365076
913.233561,-1036.288319,-3627.009116,-9346.365076
913.233882,-1036.288319,-2294.638420,-9576.193725
913.234202,-2146.597232,-1702.473667,-9959.241474
913.234522,-1850.514855,-1998.556043,-9729.412825
913.234842,3478.967927,74.020594,-9499.584175
913.235162,5033.400406,1924.535449,-10342.289223
913.235483,4145.153275,3701.029710,-10495.508323
913.235803,3849.070898,1480.411884,-11338.213370
913.236123,1480.411884,-518.144159,-9729.412825
913.236443,592.164754,0.000000,-10112.460574
913.236764,2220.617826,0.000000,-9806.022374
913.237084,3182.885551,-666.185348,-10572.117872
913.237404,2368.659014,-296.082377,-10112.460574
913.237724,-1332.370696,518.144159,-9576.193725
913.238045,-1924.535449,2442.679609,-10342.289223
913.238365,-444.123565,-888.247130,-10342.289223
913.238685,2886.803174,-1184.329507,-10648.727422
913.239005,2146.597232,-444.123565,-11338.213370
913.239325,518.144159,1554.432478,-10878.556072
913.239646,2072.576638,3404.947333,-10572.117872
913.239966,3034.844362,4959.379811,-10955.165621
913.240286,2442.679609,5181.441594,-11261.603821
913.240606,-592.164754,3627.009116,-11338.213370
913.240927,-1924.535449,370.102971,-10725.336972
913.241247,-2294.638420,-2368.659014,-9729.412825
913.241567,-1036.288319,-3330.926739,-10189.070123
913.241887,518.144159,-4663.297435,-9269.755526
913.242208,814.226536,-3997.112087,-9806.022374
913.242528,-1776.494261,-2294.638420,-9806.022374
913.242848,-1332.370696,666.185348,-9346.365076
913.243168,74.020594,2886.803174,-9269.755526
913.243489,2812.782580,4219.173869,-10648.727422
913.243809,4441.235652,3627.009116,-9346.365076
913.244129,740.205942,962.267725,-10572.117872
913.244449,1702.473667,-962.267725,-9806.022374
913.244769,1332.370696,-888.247130,-9193.145976
913.245090,1702.473667,814.226536,-10801.946522
913.245410,148.041188,1924.535449,-9193.145976
913.245730,-3627.009116,814.226536,-9806.022374
913.246050,-3552.988522,222.061783,-9576.193725
913.246371,-1924.535449,-370.102971,-9422.974625
913.246691,518.144159,592.164754,-10342.289223
913.247011,888.247130,666.185348,-10572.117872
913.247331,-2220.617826,592.164754,-9959.241474
913.247652,-2516.700203,1258.350101,-10572.117872
913.247972,-1184.329507,1702.473667,-9576.193725
913.248292,1554.432478,1554.432478,-10801.946522
913.248612,3627.009116,0.000000,-10955.165621
913.248932,666.185348,444.123565,-10495.508323
913.249253,-518.144159,740.205942,-10648.727422
913.249573,-1776.494261,74.020594,-9806.022374
913.249893,-1850.514855,-2072.576638,-9652.803275
913.250213,814.226536,-1332.370696,-9882.631924
913.250534,2368.659014,-962.267725,-10648.727422
913.250854,1850.514855,0.000000,-10035.851024
913.251174,666.185348,962.267725,-9959.241474
913.251494,-296.082377,1850.514855,-8810.098227
913.251815,2516.700203,1554.432478,-10418.898773
913.252135,3923.091493,814.226536,-10189.070123
913.252455,2442.679609,-740.205942,-10035.851024
913.252775,370.102971,-444.123565,-9346.365076
913.253095,-370.102971,296.082377,-9959.241474
913.253416,2368.659014,3478.967927,-10495.508323
913.253736,1998.556043,3849.070898,-11261.603821
913.254056,-296.082377,666.185348,-9806.022374
913.254376,-888.247130,-3849.070898,-9269.755526
913.254697,-1332.370696,-4885.359217,-8886.707777
913.255017,592.164754,-2442.679609,-9576.193725
913.255337,2664.741391,1184.329507,-10801.946522
913.255657,2442.679609,1850.514855,-10418.898773
913.255978,2886.803174,518.144159,-10878.556072
913.256298,1184.329507,592.164754,-9806.022374
913.256618,1850.514855,1110.308913,-10495.508323
913.256938,222.061783,444.123565,-10878.556072
913.257259,-2738.761985,-1850.514855,-9882.631924
913.257579,-1628.453072,-3627.009116,-10495.508323
913.257899,-962.267725,-888.247130,-10342.289223
913.258219,-740.205942,-148.041188,-10572.117872
913.258539,148.041188,-1554.432478,-10648.727422
913.258860,-1702.473667,-1184.329507,-9806.022374
913.259180,-1702.473667,-1406.391290,-9959.241474
913.259500,-370.102971,-1184.329507,-10112.460574
913.259820,-222.061783,148.041188,-9729.412825
913.260141,1036.288319,0.000000,-10955.165621
913.260461,1110.308913,-1036.288319,-9959.241474
913.260781,444.123565,444.123565,-10189.070123
913.261101,1924.535449,1628.453072,-10342.289223
913.261422,2146.597232,1332.370696,-10035.851024
913.261742,888.247130,1628.453072,-10342.289223
913.262062,-3108.864956,740.205942,-10265.679673
913.262382,-3923.091493,-2072.576638,-8733.488677
913.262702,-370.102971,-2590.720797,-9422.974625
913.263023,2294.638420,-2442.679609,-9346.365076
913.263343,3997.112087,-1184.329507,-10265.679673
913.263663,1554.432478,-444.123565,-9652.803275
913.263983,-2072.576638,518.144159,-9806.022374
913.264304,-1924.535449,3256.906145,-10418.898773
913.264624,444.123565,4219.173869,-9959.241474
913.264944,3330.926739,3182.885551,-10189.070123
913.265264,3701.029710,1332.370696,-9959.241474
913.265585,2368.659014,-2960.823768,-9576.193725
913.265905,1554.432478,-5107.421000,-9576.193725
913.266225,-222.061783,-3330.926739,-9346.365076
913.266545,740.205942,-222.061783,-9729.412825
913.266865,1480.411884,2220.617826,-10878.556072
913.267186,-222.061783,3330.926739,-10342.289223
913.267506,-740.205942,2072.576638,-10725.336972
913.267826,148.041188,0.000000,-10342.289223
913.268146,2590.720797,740.205942,-10418.898773
913.268467,3923.091493,962.267725,-10878.556072
913.268787,3627.009116,1184.329507,-11108.384721
913.269107,1406.391290,2072.576638,-10265.679673
913.269427,-518.144159,1554.432478,-10342.289223
913.269748,-296.082377,814.226536,-9806.022374
913.270068,0.000000,666.185348,-11184.994271
913.270388,518.144159,888.247130,-10189.070123
913.270708,0.000000,0.000000,-10189.070123
913.271028,-888.247130,-296.082377,-9806.022374
913.271349,-370.102971,1184.329507,-9652.803275
913.271669,1628.453072,296.082377,-10189.070123
913.271989,2664.741391,1480.411884,-10035.851024
913.272309,2368.659014,1480.411884,-9959.241474
913.272630,888.247130,2294.638420,-10112.460574
913.272950,444.123565,2664.741391,-10189.070123
913.273270,740.205942,1184.329507,-9652.803275
913.273590,-296.082377,-222.061783,-9959.241474
913.273911,-296.082377,-518.144159,-9576.193725
913.274231,666.185348,-148.041188,-10878.556072
913.274551,592.164754,-888.247130,-10112.460574
913.274871,296.082377,-1480.411884,-9652.803275
913.275192,-370.102971,-888.247130,-9806.022374
913.275512,-1480.411884,1258.350101,-9499.584175
913.275832,-1184.329507,1998.556043,-10648.727422
913.276152,-296.082377,888.247130,-10265.679673
913.276472,74.020594,-222.061783,-10035.851024
913.276793,2368.659014,-1184.329507,-10035.851024
913.277113,2146.597232,74.020594,-10035.851024
913.277433,-592.164754,3108.864956,-11261.603821
913.277753,-2368.659014,3034.844362,-10801.946522
913.278074,-2368.659014,1924.535449,-10495.508323
913.278394,-1036.288319,1036.288319,-10189.070123
913.278714,-1702.473667,1702.473667,-10112.460574
913.279034,-1998.556043,3108.864956,-10418.898773
913.279355,0.000000,4663.297435,-10648.727422
913.279675,1850.514855,2960.823768,-11491.432470
913.279995,4885.359217,-1480.411884,-11108.384721
913.280315,3849.070898,-2812.782580,-9422.974625
913.280635,444.123565,-222.061783,-9576.193725
913.280956,-370.102971,3701.029710,-10265.679673
913.281276,740.205942,7031.956449,-9806.022374
913.281596,3182.885551,6809.894666,-11261.603821
913.281916,3478.967927,2072.576638,-9806.022374
913.282237,3478.967927,-4219.173869,-9193.145976
913.282557,1554.432478,-9622.677246,-8656.879127
913.282877,666.185348,-9178.553681,-8120.612279
913.283197,-592.164754,-4441.235652,-8580.269578
913.283518,-888.247130,-740.205942,-9882.631924
913.283838,-1036.288319,592.164754,-9193.145976
913.284158,-1554.432478,0.000000,-9576.193725
913.284478,-962.267725,-1850.514855,-9499.584175
913.284798,74.020594,-962.267725,-9576.193725
913.285119,5255.462188,0.000000,-10572.117872
913.285439,7105.977043,-148.041188,-10418.898773
913.285759,4737.318029,-1850.514855,-9806.022374
913.286079,-444.123565,-666.185348,-9499.584175
913.286400,-2664.741391,1776.494261,-9806.022374
913.286720,-1110.308913,3404.947333,-10878.556072
913.287040,1406.391290,2886.803174,-10878.556072
913.287360,148.041188,444.123565,-10035.851024
913.287681,-814.226536,-2368.659014,-9882.631924
913.288001,0.000000,-1332.370696,-9576.193725
913.288321,1480.411884,-1184.329507,-10418.898773
913.288641,2294.638420,0.000000,-10878.556072
913.288961,0.000000,2886.803174,-10189.070123
913.289282,-370.102971,1702.473667,-10648.727422
913.289602,370.102971,296.082377,-9729.412825
913.289922,0.000000,-666.185348,-10112.460574
913.290242,1184.329507,0.000000,-11031.775171
913.290563,0.000000,1110.308913,-10189.070123
913.290883,-444.123565,-222.061783,-10878.556072
913.291203,740.205942,-740.205942,-10495.508323
913.291523,-1258.350101,-1406.391290,-9806.022374
913.291844,-1258.350101,-1702.473667,-11031.775171
913.292164,-3182.885551,-444.123565,-9729.412825
913.292484,-2812.782580,1036.288319,-10418.898773
913.292804,-888.247130,1554.432478,-10648.727422
913.293125,222.061783,1554.432478,-9269.755526
913.293445,2294.638420,592.164754,-10495.508323
913.293765,3404.947333,0.000000,-9959.241474
913.294085,1998.556043,666.185348,-9959.241474
913.294405,74.020594,814.226536,-9959.241474
913.294726,-1480.411884,814.226536,-9116.536426
913.295046,-2294.638420,444.123565,-9422.974625
913.295366,-1406.391290,1110.308913,-9729.412825
913.295686,-888.247130,888.247130,-8963.317327
913.296007,296.082377,740.205942,-10342.289223
913.296327,1776.494261,1184.329507,-9652.803275
913.296647,2960.823768,2146.597232,-9806.022374
913.296967,3256.906145,2072.576638,-8733.488677
913.297288,1184.329507,1554.432478,-9346.365076
913.297608,74.020594,1110.308913,-10418.898773
913.297928,1554.432478,1480.411884,-10265.679673
913.298248,3478.967927,2368.659014,-10265.679673
913.298568,5255.462188,2812.782580,-10495.508323
913.298889,5033.400406,1924.535449,-10189.070123
913.299209,2368.659014,1998.556043,-10878.556072
913.299529,-740.205942,814.226536,-10572.117872
913.299849,-1628.453072,-444.123565,-9806.022374
913.300170,148.041188,-740.205942,-10955.165621
913.300490,1184.329507,-222.061783,-10112.460574
913.300810,222.061783,-444.123565,-10342.289223
913.301130,592.164754,74.020594,-10418.898773
913.301451,1776.494261,1924.535449,-10112.460574
913.301771,3034.844362,2072.576638,-10878.556072
913.302091,2072.576638,2442.679609,-10495.508323
913.302411,-666.185348,962.267725,-10189.070123
913.302731,-148.041188,370.102971,-9576.193725
913.303052,740.205942,-740.205942,-9422.974625
913.303372,1258.350101,-1924.535449,-9652.803275
913.303692,444.123565,-962.267725,-9576.193725
913.304012,666.185348,0.000000,-9193.145976
913.304333,1850.514855,1184.329507,-10265.679673
913.304653,1628.453072,1628.453072,-9116.536426
913.304973,1480.411884,814.226536,-10189.070123
913.305293,-1036.288319,962.267725,-9422.974625
913.305614,-2664.741391,74.020594,-10878.556072
913.305934,-2516.700203,-888.247130,-10189.070123
913.306254,-1332.370696,-962.267725,-9116.536426
913.306574,444.123565,-1406.391290,-9806.022374
913.306895,148.041188,-1702.473667,-9882.631924
913.307215,-370.102971,-592.164754,-9959.241474
913.307535,-222.061783,888.247130,-10801.946522
913.307855,-1332.370696,814.226536,-9959.241474
913.308175,-1628.453072,1184.329507,-10265.679673
913.308496,0.000000,-518.144159,-10878.556072
913.308816,-1258.350101,-888.247130,-10418.898773
913.309136,-2220.617826,-1406.391290,-10801.946522
913.309456,-2812.782580,-1554.432478,-10265.679673
913.309777,-814.226536,-1406.391290,-10572.117872
913.310097,-148.041188,-888.247130,-11414.822920
913.310417,-1332.370696,-592.164754,-10418.898773
913.310737,-2368.659014,444.123565,-10418.898773
913.311058,-444.123565,1850.514855,-10955.165621
913.311378,962.267725,2960.823768,-10648.727422
913.311698,3627.009116,1628.453072,-11414.822920
913.312018,3923.091493,888.247130,-10342.289223
913.312338,2812.782580,370.102971,-10495.508323
913.312659,814.226536,-740.205942,-10878.556072
913.312979,-814.226536,0.000000,-9652.803275
913.313299,-888.247130,888.247130,-9806.022374
913.313619,148.041188,2442.679609,-10342.289223
913.313940,-222.061783,2220.617826,-9116.536426
913.314260,-444.123565,1406.391290,-11338.213370
913.314494,296.082377,-1702.473667,-8810.098227
913.314814,2960.823768,-2146.597232,-9269.755526
913.315135,4737.318029,-1184.329507,-9652.803275
913.315455,4219.173869,74.020594,-8963.317327
913.315775,3923.091493,740.205942,-12334.137518
913.316095,3108.864956,1406.391290,-9806.022374
913.316416,3775.050304,2146.597232,-9882.631924
913.316736,2590.720797,3775.050304,-10265.679673
913.317056,1554.432478,3701.029710,-10112.460574
913.317376,-814.226536,2294.638420,-11031.775171
913.317696,-296.082377,-740.205942,-10342.289223
913.318017,592.164754,-3849.070898,-9806.022374
913.318337,2220.617826,-4959.379811,-10189.070123
913.318657,2294.638420,-3627.009116,-9806.022374
913.318977,1184.329507,-814.226536,-10878.556072
913.319298,0.000000,2886.803174,-10495.508323
913.319618,-370.102971,5477.523971,-10112.460574
913.319938,814.226536,4145.153275,-10648.727422
913.320258,3404.947333,2442.679609,-10572.117872
913.320578,4515.256246,518.144159,-10878.556072
913.320899,2812.782580,-2220.617826,-10265.679673
913.321219,-1258.350101,-2294.638420,-9346.365076
913.321539,-3997.112087,-1628.453072,-9422.974625
913.321859,-3627.009116,1184.329507,-9422.974625
913.322180,-2590.720797,3997.112087,-9499.584175
913.322500,-962.267725,3552.988522,-10648.727422
913.322820,-888.247130,3330.926739,-8197.221829
913.323140,666.185348,-222.061783,-9652.803275
913.323460,2146.597232,-4367.215058,-9652.803275
913.323781,2220.617826,-3404.947333,-8350.440928
913.324101,814.226536,-1850.514855,-9652.803275
913.324421,-740.205942,1332.370696,-9499.584175
913.324741,-2960.823768,2072.576638,-9882.631924
913.325062,-2886.803174,2516.700203,-10342.289223
913.325382,-3256.906145,1850.514855,-10112.460574
913.325702,-1480.411884,1110.308913,-10648.727422
913.326022,444.123565,74.020594,-10342.289223
913.326342,2294.638420,-1702.473667,-10495.508323
913.326663,1554.432478,-1924.535449,-10955.165621
913.326983,-2368.659014,-1776.494261,-9039.926876
913.327303,-2442.679609,-1036.288319,-10035.851024
913.327623,-1850.514855,1406.391290,-10342.289223
913.327944,-1480.411884,3849.070898,-10495.508323
913.328264,444.123565,4071.132681,-11261.603821
913.328584,2442.679609,2738.761985,-10725.336972
913.328904,3182.885551,888.247130,-10572.117872
913.329224,3256.906145,888.247130,-11108.384721
913.329545,444.123565,-222.061783,-9576.193725
913.329865,-1998.556043,0.000000,-10035.851024
913.330185,-2294.638420,0.000000,-9576.193725
913.330505,-1258.350101,592.164754,-9806.022374
913.330826,-592.164754,-1184.329507,-10035.851024
913.331146,1258.350101,-1480.411884,-9116.536426
913.331466,1702.473667,370.102971,-9959.241474
913.331786,2072.576638,666.185348,-9806.022374
913.332106,3627.009116,1924.535449,-9959.241474
913.332427,3775.050304,1110.308913,-10189.070123
913.332747,2516.700203,740.205942,-9422.974625
913.333067,3330.926739,-592.164754,-9806.022374
913.333387,2368.659014,-1480.411884,-9806.022374
913.333708,1036.288319,-592.164754,-9806.022374
913.334028,1628.453072,-962.267725,-10035.851024
913.334348,1702.473667,0.000000,-9882.631924
913.334668,592.164754,-518.144159,-9806.022374
913.334988,1628.453072,-1628.453072,-10725.336972
913.335309,1110.308913,-1850.514855,-10725.336972
913.335629,888.247130,370.102971,-11108.384721
913.335949,-222.061783,1258.350101,-10955.165621
913.336269,1480.411884,2294.638420,-9652.803275
913.336590,3552.988522,1184.329507,-11108.384721
913.336910,5181.441594,370.102971,-10878.556072
913.337230,2220.617826,-814.226536,-11031.775171
913.337550,0.000000,592.164754,-11031.775171
913.337870,-888.247130,3108.864956,-10265.679673
913.338191,0.000000,2664.741391,-11184.994271
913.338511,-666.185348,2368.659014,-10495.508323
913.338831,-1998.556043,-962.267725,-10035.851024
913.339151,-2886.803174,-2664.741391,-9806.022374
913.339472,-2812.782580,-2368.659014,-9652.803275
913.339792,-370.102971,-148.041188,-11108.384721
913.340112,962.267725,1702.473667,-10648.727422
913.340432,1480.411884,1998.556043,-9652.803275
913.340752,148.041188,1480.411884,-10801.946522
913.341073,-1480.411884,888.247130,-9806.022374
913.341393,0.000000,-222.061783,-10265.679673
913.341713,1924.535449,-518.144159,-10418.898773
913.342033,0.000000,-370.102971,-9346.365076
913.342354,148.041188,-1776.494261,-9882.631924
913.342674,-1110.308913,-1480.411884,-9346.365076
913.342994,-2442.679609,-1332.370696,-9422.974625
913.343314,-2146.597232,-518.144159,-10725.336972
913.343634,-2368.659014,370.102971,-9193.145976
913.343955,-2664.741391,814.226536,-10342.289223
913.344275,-2072.576638,444.123565,-10878.556072
913.344595,-1184.329507,0.000000,-9422.974625
913.344915,1332.370696,222.061783,-10955.165621
913.345236,1776.494261,1332.370696,-9882.631924
913.345556,-222.061783,2368.659014,-9576.193725
913.345876,740.205942,2294.638420,-10955.165621
913.346196,-592.164754,1998.556043,-9806.022374
913.346516,1110.308913,444.123565,-10878.556072
913.346837,2294.638420,-222.061783,-10342.289223
913.347157,1628.453072,592.164754,-9806.022374
913.347477,370.102971,962.267725,-10878.556072
913.347797,222.061783,814.226536,-9576.193725
913.348118,1554.432478,518.144159,-10418.898773
913.348438,3775.050304,740.205942,-9576.193725
913.348758,3256.906145,962.267725,-10035.851024
913.349078,2960.823768,962.267725,-11491.432470
913.349398,1702.473667,2072.576638,-10725.336972
913.349719,3108.864956,2664.741391,-11031.775171
913.350039,2368.659014,3330.926739,-11338.213370
913.350359,-148.041188,3108.864956,-9729.412825
913.350679,296.082377,1998.556043,-10955.165621
913.351000,592.164754,0.000000,-9959.241474
913.351320,2146.597232,-3701.029710,-9806.022374
913.351640,1332.370696,-5107.421000,-9576.193725
913.351960,1480.411884,-3627.009116,-8810.098227
913.352280,2442.679609,-148.041188,-9652.803275
913.352601,2590.720797,3552.988522,-9959.241474
913.352921,3775.050304,3404.947333,-10035.851024
913.353241,2590.720797,1332.370696,-10418.898773
913.353561,1554.432478,518.144159,-9346.365076
913.353882,1036.288319,0.000000,-9576.193725
913.354202,-2516.700203,-740.205942,-9193.145976
913.354522,-2960.823768,-2812.782580,-8733.488677
913.354842,-666.185348,-3627.009116,-9652.803275
913.355162,444.123565,-2664.741391,-9116.536426
913.355483,0.000000,-814.226536,-9193.145976
913.355803,-518.144159,1110.308913,-10342.289223
913.356123,-1628.453072,3108.864956,-9039.926876
913.356443,-370.102971,2738.761985,-10572.117872
913.356764,1258.350101,296.082377,-9806.022374
913.357084,1184.329507,-1406.391290,-9959.241474
913.357404,-592.164754,-2368.659014,-11031.775171
913.357724,-2442.679609,-1702.473667,-9806.022374
913.358044,-2516.700203,-814.226536,-9346.365076
913.358365,444.123565,740.205942,-12257.527968
913.358685,-2442.679609,518.144159,-10648.727422
913.359005,-3478.967927,370.102971,-11338.213370
913.359325,-3997.112087,-962.267725,-10418.898773
913.359646,-1554.432478,-222.061783,-10725.336972
913.359966,74.020594,-888.247130,-12257.527968
913.360286,1332.370696,-148.041188,-10878.556072
913.360606,1184.329507,0.000000,-11184.994271
913.360926,2738.761985,518.144159,-10572.117872
913.361247,3108.864956,2368.659014,-11108.384721
913.361567,2294.638420,3552.988522,-11414.822920
913.361887,888.247130,4145.153275,-10725.336972
913.362207,-222.061783,1184.329507,-10572.117872
913.362527,-888.247130,-2220.617826,-9576.193725
913.362848,-1480.411884,-4293.194464,-8810.098227
913.363168,74.020594,-3923.091493,-9806.022374
913.363488,2368.659014,-1702.473667,-9576.193725
913.363808,2368.659014,592.164754,-10112.460574
913.364129,814.226536,1480.411884,-9806.022374
913.364449,1110.308913,370.102971,-9116.536426
913.364769,1332.370696,222.061783,-9346.365076
913.365089,2442.679609,1184.329507,-9806.022374
913.365409,3330.926739,2368.659014,-9269.755526
913.365730,2146.597232,1480.411884,-10265.679673
913.366050,1110.308913,148.041188,-9193.145976
913.366370,2442.679609,-962.267725,-9499.584175
913.366690,2960.823768,-1628.453072,-10342.289223
913.367011,296.082377,-2368.659014,-9576.193725
913.367331,-2516.700203,74.020594,-9882.631924
913.367651,-2590.720797,0.000000,-9499.584175
913.367971,1110.308913,370.102971,-9729.412825
913.368291,3849.070898,0.000000,-10648.727422
913.368612,3034.844362,0.000000,-9882.631924
913.368932,2590.720797,1258.350101,-11031.775171
913.369252,3034.844362,2738.761985,-10648.727422
913.369572,2516.700203,2960.823768,-10495.508323
913.369893,1924.535449,1776.494261,-10265.679673
913.370213,-1628.453072,74.020594,-10112.460574
913.370533,-3182.885551,-1554.432478,-10265.679673
913.370853,-1258.350101,-1480.411884,-11031.775171
913.371173,-1628.453072,962.267725,-9806.022374
913.371494,444.123565,2072.576638,-11108.384721
913.371814,1184.329507,2220.617826,-10955.165621
913.372134,-1036.288319,666.185348,-10035.851024
913.372454,-1998.556043,0.000000,-10648.727422
913.372775,-518.144159,296.082377,-9116.536426
913.373095,740.205942,666.185348,-10035.851024
913.373415,1554.432478,962.267725,-10572.117872
913.373735,1110.308913,1258.350101,-9806.022374
913.374055,-1036.288319,444.123565,-9806.022374
913.374376,-1110.308913,370.102971,-9116.536426
913.374696,0.000000,296.082377,-9422.974625
913.375016,888.247130,222.061783,-10342.289223
913.375336,-370.102971,0.000000,-9346.365076
913.375657,-3552.988522,-1850.514855,-9422.974625
913.375977,-4071.132681,-3552.988522,-8810.098227
913.376297,-2960.823768,-3330.926739,-8886.707777
913.376617,518.144159,-2664.741391,-9806.022374
913.376937,1406.391290,148.041188,-9422.974625
913.377258,1850.514855,2442.679609,-10878.556072
913.377578,2072.576638,3923.091493,-10878.556072
913.377898,1110.308913,4811.338623,-10955.165621
913.378218,888.247130,2368.659014,-10955.165621
913.378539,444.123565,666.185348,-10418.898773
913.378859,-2072.576638,-1258.350101,-10189.070123
913.379179,-2368.659014,-1628.453072,-10265.679673
913.379499,-1258.350101,-740.205942,-9729.412825
913.379819,3997.112087,1480.411884,-10342.289223
913.380140,6217.729913,3182.885551,-11491.432470
913.380460,3108.864956,2220.617826,-10495.508323
913.380780,74.020594,1480.411884,-10878.556072
913.381100,-370.102971,370.102971,-9806.022374
913.381421,2516.700203,-74.020594,-10342.289223
913.381741,2664.741391,74.020594,-10648.727422
913.382061,1184.329507,74.020594,-9806.022374
913.382381,1924.535449,518.144159,-10725.336972
913.382701,1924.535449,-370.102971,-9806.022374
913.383022,1480.411884,-740.205942,-10342.289223
913.383342,1036.288319,-888.247130,-10342.289223
913.383662,444.123565,-1332.370696,-9193.145976
913.383982,2220.617826,-1110.308913,-10418.898773
913.384303,1406.391290,148.041188,-9882.631924
913.384623,1110.308913,0.000000,-9882.631924
913.384943,3627.009116,-592.164754,-10801.946522
913.385263,5255.462188,-666.185348,-9652.803275
913.385583,4293.194464,1110.308913,-10418.898773
913.385904,2368.659014,1702.473667,-10495.508323
913.386224,814.226536,2960.823768,-9806.022374
913.386544,-148.041188,1998.556043,-10418.898773
913.386864,-296.082377,1036.288319,-9729.412825
913.387185,-2442.679609,-740.205942,-9806.022374
913.387505,-2516.700203,-2442.679609,-9652.803275
913.387825,-1332.370696,-2442.679609,-8427.050478
913.388145,1036.288319,-1702.473667,-9882.631924
913.388465,666.185348,666.185348,-9652.803275
913.388786,-1036.288319,1480.411884,-9806.022374
913.389106,-814.226536,1406.391290,-9806.022374
913.389426,-296.082377,1406.391290,-9346.365076
913.389746,592.164754,1628.453072,-10112.460574
913.390067,518.144159,-222.061783,-10112.460574
913.390387,-1406.391290,-1776.494261,-8963.317327
913.390707,-666.185348,-2590.720797,-10878.556072
913.391027,-370.102971,-2220.617826,-9499.584175
913.391347,-444.123565,148.041188,-9806.022374
913.391668,-2072.576638,2812.782580,-11491.432470
913.391988,-3849.070898,3256.906145,-9806.022374
913.392308,-4219.173869,2072.576638,-11338.213370
913.392628,-2220.617826,-1184.329507,-10189.070123
913.392949,74.020594,-3330.926739,-9882.631924
913.393269,2294.638420,-3627.009116,-11338.213370
913.393589,888.247130,-1184.329507,-10418.898773
913.393909,-518.144159,2516.700203,-10725.336972
913.394229,-1406.391290,5551.544565,-10955.165621
913.394550,-296.082377,7105.977043,-10801.946522
913.394870,592.164754,4441.235652,-11644.651570
913.395190,1850.514855,1332.370696,-10189.070123
913.395510,148.041188,-2590.720797,-9806.022374
913.395831,-888.247130,-4811.338623,-9576.193725
913.396151,74.020594,-3701.029710,-9116.536426
913.396471,666.185348,-1776.494261,-10189.070123
913.396791,1628.453072,1110.308913,-9882.631924
913.397111,518.144159,3775.050304,-10725.336972
913.397432,222.061783,4145.153275,-10342.289223
913.397752,370.102971,3701.029710,-9346.365076
913.398072,2516.700203,1258.350101,-9806.022374
913.398392,3330.926739,-740.205942,-9039.926876
913.398713,3478.967927,-3775.050304,-8886.707777
913.399033,2812.782580,-4145.153275,-9269.755526
913.399353,2516.700203,-3627.009116,-9269.755526
913.399673,2516.700203,0.000000,-9652.803275
913.399993,1628.453072,2812.782580,-10342.289223
913.400314,888.247130,5181.441594,-9806.022374
913.400634,148.041188,4293.194464,-10418.898773
913.400954,2516.700203,1036.288319,-10265.679673
913.401274,2738.761985,-1998.556043,-9422.974625
913.401595,2960.823768,-3997.112087,-10189.070123
913.401915,1110.308913,-3923.091493,-9422.974625
913.402235,888.247130,-1406.391290,-10418.898773
913.402555,1480.411884,370.102971,-10189.070123
913.402875,518.144159,4663.297435,-10725.336972
913.403196,1406.391290,5551.544565,-11338.213370
913.403516,2220.617826,4293.194464,-11261.603821
913.403836,1850.514855,1702.473667,-10342.289223
913.404156,1850.514855,-1480.411884,-10725.336972
913.404477,148.041188,-3182.885551,-10418.898773
913.404797,0.000000,-3182.885551,-10495.508323
913.405117,-1110.308913,-518.144159,-10418.898773
913.405437,-2664.741391,2146.597232,-9806.022374
913.405757,-1628.453072,4367.215058,-9882.631924
913.406078,518.144159,4737.318029,-10572.117872
913.406398,3330.926739,2886.803174,-10955.165621
913.406718,4145.153275,-740.205942,-10572.117872
913.407038,888.247130,-3404.947333,-9116.536426
913.407359,-2220.617826,-5107.421000,-9499.584175
913.407679,-740.205942,-3182.885551,-8733.488677
913.407999,-4589.276840,-518.144159,-10265.679673
913.408319,-3701.029710,1702.473667,-9269.755526
913.408639,-4145.153275,3849.070898,-9806.022374
913.408960,-740.205942,3552.988522,-10572.117872
913.409280,-148.041188,1332.370696,-9116.536426
913.409600,74.020594,-1924.535449,-10342.289223
913.409920,-592.164754,-5403.503377,-9039.926876
913.410241,-1924.535449,-6365.771101,-8503.660028
913.410561,-1702.473667,-3478.967927,-9422.974625
913.410881,-2516.700203,-444.123565,-8886.707777
913.411201,-1258.350101,4145.153275,-9882.631924
913.411521,2294.638420,4811.338623,-10878.556072
913.411842,4663.297435,4885.359217,-10572.117872
913.412162,2738.761985,2220.617826,-11031.775171
913.412482,74.020594,-1110.308913,-10572.117872
913.412802,-1998.556043,-2738.761985,-9959.241474
913.413122,-1998.556043,-2812.782580,-10495.508323
913.413443,-1258.350101,-1184.329507,-9959.241474
913.413763,-2442.679609,518.144159,-10495.508323
913.414083,-2886.803174,2146.597232,-11031.775171
913.414403,148.041188,2368.659014,-10112.460574
913.414723,3404.947333,3478.967927,-11568.042020
913.415043,5921.647536,2294.638420,-10878.556072
913.415364,5181.441594,2294.638420,-10265.679673
913.415684,2960.823768,1406.391290,-10955.165621
913.416004,2368.659014,-370.102971,-9499.584175
913.416324,962.267725,-1332.370696,-10495.508323
913.416644,2664.741391,-1480.411884,-11031.775171
913.416964,-518.144159,-1184.329507,-9499.584175
913.417285,444.123565,888.247130,-10801.946522
913.417605,2294.638420,2738.761985,-9959.241474
913.417925,1702.473667,2812.782580,-10265.679673
913.418245,2960.823768,1258.350101,-10955.165621
913.418565,1850.514855,-444.123565,-8963.317327
913.418885,3182.885551,-1702.473667,-9882.631924
913.419205,3034.844362,-1776.494261,-9729.412825
913.419526,2368.659014,-148.041188,-9039.926876
913.419846,2368.659014,1924.535449,-10572.117872
913.420166,2664.741391,3256.906145,-9729.412825
913.420486,2368.659014,3478.967927,-9882.631924
913.420806,962.267725,1480.411884,-10418.898773
913.421126,-296.082377,-666.185348,-8810.098227
913.421447,-518.144159,-1998.556043,-9346.365076
913.421767,-1554.432478,-2812.782580,-9422.974625
913.422087,-1258.350101,-1924.535449,-8810.098227
913.422407,-666.185348,-370.102971,-10189.070123
913.422727,1628.453072,1850.514855,-9193.145976
913.423047,3701.029710,3701.029710,-10725.336972
913.423368,3034.844362,3478.967927,-11261.603821
913.423688,962.267725,2442.679609,-10035.851024
913.424008,-1998.556043,740.205942,-10801.946522
913.424328,-3627.009116,0.000000,-9959.241474
913.424648,-3034.844362,-1110.308913,-9806.022374
913.424968,-1998.556043,-1924.535449,-11031.775171
913.425288,-2368.659014,-1554.432478,-9959.241474
913.425609,-3182.885551,0.000000,-10112.460574
913.425929,-2516.700203,1628.453072,-10418.898773
913.426249,-148.041188,2812.782580,-10648.727422
913.426569,2368.659014,1776.494261,-11568.042020
913.426889,222.061783,888.247130,-9346.365076
913.427209,-2072.576638,-962.267725,-10418.898773
913.427530,-1258.350101,-666.185348,-10035.851024
913.427850,-518.144159,1258.350101,-10342.289223
913.428170,1110.308913,2368.659014,-10495.508323
913.428490,814.226536,2220.617826,-10878.556072
913.428810,-1110.308913,1110.308913,-10342.289223
913.429130,-1924.535449,0.000000,-9806.022374
913.429450,-2368.659014,0.000000,-9729.412825
913.429771,-1258.350101,296.082377,-9959.241474
913.430091,-592.164754,74.020594,-9882.631924
913.430411,222.061783,-518.144159,-9346.365076
913.430731,740.205942,-1628.453072,-9422.974625
913.431051,2516.700203,-1702.473667,-9039.926876
913.431371,3552.988522,0.000000,-10112.460574
913.431692,4293.194464,2664.741391,-9882.631924
913.432012,2516.700203,3478.967927,-9806.022374
913.432332,2516.700203,1628.453072,-10035.851024
913.432652,3182.885551,-1184.329507,-9269.755526
913.432972,3404.947333,-3552.988522,-9422.974625
913.433292,2072.576638,-4663.297435,-9499.584175
913.433612,296.082377,-2886.803174,-8886.707777
913.433933,-370.102971,222.061783,-10418.898773
913.434253,2072.576638,1258.350101,-10035.851024
913.434573,3256.906145,2368.659014,-10418.898773
913.434893,2368.659014,2146.597232,-11108.384721
913.435213,0.000000,1110.308913,-9422.974625
913.435533,74.020594,1184.329507,-10878.556072
913.435854,2590.720797,0.000000,-10418.898773
913.436174,3775.050304,-962.267725,-10495.508323
913.436494,4589.276840,-1702.473667,-11721.261119
913.436814,3182.885551,-370.102971,-10648.727422
913.437134,444.123565,1850.514855,-11491.432470
913.437454,-740.205942,4515.256246,-11568.042020
913.437774,-1036.288319,5921.647536,-10955.165621
913.438095,0.000000,4071.132681,-11491.432470
913.438415,-962.267725,1258.350101,-10648.727422
913.438735,-2294.638420,-2516.700203,-9882.631924
913.439055,-1184.329507,-5181.441594,-9729.412825
913.439375,1702.473667,-4589.276840,-9422.974625
913.439695,2590.720797,-518.144159,-9806.022374
913.440016,-888.247130,2294.638420,-10265.679673
913.440336,-2294.638420,4293.194464,-9346.365076
913.440656,-2516.700203,4589.276840,-10342.289223
913.440976,-2294.638420,1628.453072,-10035.851024
913.441296,-1110.308913,-1110.308913,-8733.488677
913.441616,-296.082377,-4441.235652,-9193.145976
913.441936,-444.123565,-5551.544565,-8503.660028
913.442257,-1184.329507,-3923.091493,-9806.022374
913.442577,-2294.638420,-296.082377,-9422.974625
913.442897,-1332.370696,2812.782580,-9269.755526
913.443217,-592.164754,2886.803174,-10572.117872
913.443537,-740.205942,2812.782580,-9882.631924
913.443857,-370.102971,1332.370696,-10112.460574
913.444178,74.020594,444.123565,-9959.241474
913.444498,2146.597232,-592.164754,-10035.851024
913.444818,2368.659014,-1702.473667,-10801.946522
913.445138,296.082377,-814.226536,-9882.631924
913.445458,-3404.947333,962.267725,-10342.289223
913.445778,-4515.256246,2960.823768,-10648.727422
913.446098,-2220.617826,4441.235652,-10418.898773
913.446419,814.226536,3627.009116,-11874.480219
913.446739,2220.617826,1480.411884,-10955.165621
913.447059,2368.659014,-296.082377,-10495.508323
913.447379,1924.535449,-1628.453072,-10648.727422
913.447699,2812.782580,-444.123565,-9806.022374
913.448019,2590.720797,1332.370696,-11031.775171
913.448340,3478.967927,2294.638420,-10725.336972
913.448660,2738.761985,3478.967927,-10495.508323
913.448980,1924.535449,3256.906145,-10725.336972
913.449300,296.082377,2072.576638,-9959.241474
913.449620,1702.473667,296.082377,-9652.803275
913.449940,1554.432478,-1332.370696,-10112.460574
913.450260,1998.556043,-2294.638420,-9499.584175
913.450581,666.185348,-3034.844362,-9422.974625
913.450901,1258.350101,-3330.926739,-8810.098227
913.451221,1850.514855,-1554.432478,-9346.365076
913.451541,3701.029710,814.226536,-9882.631924
913.451861,2812.782580,3404.947333,-9576.193725
913.452181,2590.720797,4663.297435,-10189.070123
913.452502,2146.597232,2886.803174,-9576.193725
913.452822,3627.009116,1332.370696,-9959.241474
913.453142,3997.112087,-296.082377,-10572.117872
913.453462,1628.453072,-2368.659014,-9193.145976
913.453782,148.041188,-2294.638420,-9806.022374
913.454102,-148.041188,-1480.411884,-9346.365076
913.454422,-962.267725,296.082377,-9193.145976
913.454743,-1036.288319,1406.391290,-10572.117872
913.455063,-740.205942,1776.494261,-10495.508323
913.455383,-370.102971,444.123565,-9806.022374
913.455703,1554.432478,-444.123565,-10572.117872
913.456023,2516.700203,-592.164754,-10189.070123
913.456343,2072.576638,-148.041188,-10495.508323
913.456664,-222.061783,1258.350101,-10418.898773
913.456984,-1998.556043,1332.370696,-9806.022374
913.457304,-1776.494261,1184.329507,-10495.508323
913.457624,-518.144159,888.247130,-10342.289223
913.457944,-814.226536,-1110.308913,-10418.898773
913.458264,-1480.411884,-1110.308913,-10035.851024
913.458584,-2590.720797,-962.267725,-10342.289223
913.458905,-3034.844362,0.000000,-10648.727422
913.459225,-2664.741391,-296.082377,-9729.412825
913.459545,-1776.494261,222.061783,-9576.193725
913.459865,-592.164754,-666.185348,-10648.727422
913.460185,-1628.453072,74.020594,-9729.412825
913.460505,-1628.453072,518.144159,-9882.631924
913.460826,1258.350101,518.144159,-10112.460574
913.461146,1480.411884,0.000000,-9652.803275
913.461466,2886.803174,-1554.432478,-10648.727422
913.461786,-296.082377,-2368.659014,-9652.803275
913.462106,-3182.885551,740.205942,-10418.898773
913.462426,-3034.844362,2442.679609,-10418.898773
913.462747,-1036.288319,2960.823768,-9959.241474
913.463067,148.041188,1850.514855,-11108.384721
913.463387,-1036.288319,370.102971,-10265.679673
913.463707,-1998.556043,-1628.453072,-9729.412825
913.464027,-666.185348,-2146.597232,-9882.631924
913.464347,1184.329507,-2442.679609,-8886.707777
913.464667,4811.338623,-1258.350101,-10342.289223
913.464988,5033.400406,148.041188,-10418.898773
913.465308,2664.741391,1850.514855,-9882.631924
913.465628,148.041188,1628.453072,-10495.508323
913.465948,740.205942,1628.453072,-9729.412825
913.466268,1702.473667,1184.329507,-9806.022374
913.466588,2368.659014,-1406.391290,-10265.679673
913.466909,1184.329507,-2442.679609,-9576.193725
913.467229,666.185348,-3108.864956,-10265.679673
913.467549,-1184.329507,-3552.988522,-9346.365076
913.467869,222.061783,-1850.514855,-9346.365076
913.468189,1850.514855,444.123565,-9346.365076
913.468509,3182.885551,3182.885551,-9806.022374
913.468829,3478.967927,4441.235652,-11184.994271
913.469150,3034.844362,3478.967927,-10725.336972
913.469470,3108.864956,592.164754,-9882.631924
913.469790,3997.112087,-666.185348,-11031.775171
913.470110,3108.864956,-1036.288319,-9652.803275
913.470430,0.000000,-962.267725,-10035.851024
913.470750,-1554.432478,-370.102971,-10801.946522
913.471071,-962.267725,1258.350101,-10878.556072
913.471391,-296.082377,2368.659014,-10725.336972
913.471711,666.185348,1998.556043,-10112.460574
913.472031,296.082377,370.102971,-10112.460574
913.472351,962.267725,-592.164754,-10035.851024
913.472671,0.000000,-740.205942,-9193.145976
913.472991,444.123565,-444.123565,-10265.679673
913.473312,962.267725,148.041188,-10112.460574
913.473632,1036.288319,1258.350101,-10495.508323
913.473952,0.000000,2072.576638,-10648.727422
913.474272,-518.144159,3627.009116,-9806.022374
913.474592,-592.164754,3404.947333,-10189.070123
913.474912,-370.102971,1776.494261,-11184.994271
913.475233,-1184.329507,0.000000,-9806.022374
913.475553,-3552.988522,-2960.823768,-10189.070123
913.475873,-2960.823768,-4663.297435,-8810.098227
913.476193,-2072.576638,-2442.679609,-9116.536426
913.476513,0.000000,888.247130,-11031.775171
913.476833,1184.329507,4293.194464,-8963.317327
913.477153,518.144159,4515.256246,-10878.556072
913.477474,370.102971,2886.803174,-10648.727422
913.477794,0.000000,740.205942,-9806.022374
913.478114,666.185348,-1332.370696,-10495.508323
913.478434,518.144159,-666.185348,-9346.365076
913.478754,-962.267725,1110.308913,-9806.022374
913.479074,-1998.556043,1776.494261,-10342.289223
913.479395,-444.123565,1406.391290,-9806.022374
913.479715,1628.453072,1110.308913,-10342.289223
913.480035,2072.576638,0.000000,-9882.631924
913.480355,370.102971,888.247130,-9806.022374
913.480675,370.102971,1776.494261,-10035.851024
913.480995,1554.432478,2146.597232,-10878.556072
913.481315,3256.906145,740.205942,-10572.117872
913.481636,3182.885551,74.020594,-10112.460574
913.481956,2146.597232,518.144159,-9882.631924
913.482276,2442.679609,1184.329507,-10342.289223
913.482596,2960.823768,1776.494261,-10112.460574
913.482916,3552.988522,2516.700203,-10955.165621
913.483236,3404.947333,1258.350101,-10035.851024
913.483557,1110.308913,-740.205942,-10189.070123
913.483877,-1258.350101,-2368.659014,-9729.412825
913.484197,-1776.494261,-2220.617826,-9346.365076
913.484517,222.061783,-1036.288319,-10112.460574
913.484837,3404.947333,-148.041188,-10035.851024
913.485157,2738.761985,1258.350101,-9882.631924
913.485477,1628.453072,1776.494261,-10112.460574
913.485798,1332.370696,2294.638420,-10035.851024
913.486118,2294.638420,2590.720797,-10801.946522
913.486438,3404.947333,888.247130,-10725.336972
913.486758,2442.679609,-2294.638420,-9269.755526
913.487078,-148.041188,-3330.926739,-9729.412825
913.487398,-1332.370696,-3256.906145,-9806.022374
913.487719,-1924.535449,-444.123565,-9652.803275
913.488039,-444.123565,740.205942,-10648.727422
913.488359,1184.329507,1998.556043,-10342.289223
913.488679,-518.144159,888.247130,-10189.070123
913.488999,-2590.720797,-1776.494261,-10112.460574
913.489319,-1702.473667,-1702.473667,-9346.365076
913.489639,74.020594,-962.267725,-12640.575717
913.489960,1036.288319,296.082377,-10342.289223
913.490280,-592.164754,1184.329507,-10112.460574
913.490600,-1628.453072,1036.288319,-11184.994271
913.490920,-1184.329507,592.164754,-8963.317327
913.491240,-592.164754,148.041188,-11031.775171
913.491560,148.041188,-1480.411884,-10495.508323
913.491881,-1406.391290,-2072.576638,-10112.460574
913.492201,-3478.967927,-1702.473667,-10189.070123
913.492521,-3108.864956,-2664.741391,-9116.536426
913.492841,-2812.782580,-888.247130,-9806.022374
913.493161,-1036.288319,-666.185348,-10035.851024
913.493481,-1480.411884,74.020594,-9806.022374
913.493801,0.000000,1406.391290,-10265.679673
913.494122,1998.556043,1850.514855,-9806.022374
913.494442,1628.453072,1702.473667,-10342.289223
913.494762,1110.308913,592.164754,-10955.165621
913.495082,-1110.308913,-962.267725,-9499.584175
913.495402,-2368.659014,-1628.453072,-9806.022374
913.495722,-1184.329507,-1776.494261,-9729.412825
913.496043,1628.453072,-888.247130,-9806.022374
913.496363,2516.700203,222.061783,-10112.460574
913.496683,740.205942,814.226536,-10189.070123
913.497003,-2368.659014,3108.864956,-10035.851024
913.497323,-1332.370696,2812.782580,-10418.898773
913.497643,2812.782580,1924.535449,-9959.241474
913.497963,5995.668130,296.082377,-10878.556072
913.498284,5181.441594,-370.102971,-9806.022374
913.498604,2516.700203,-296.082377,-9806.022374
913.498924,2220.617826,1628.453072,-10418.898773
913.499244,3256.906145,1554.432478,-9959.241474
913.499564,2664.741391,1924.535449,-9652.803275
913.499884,2960.823768,0.000000,-10265.679673
913.500205,1776.494261,-518.144159,-9039.926876
913.500525,1110.308913,-518.144159,-10342.289223
913.500845,2072.576638,-740.205942,-9116.536426
913.501165,3256.906145,-888.247130,-9806.022374
913.501485,3330.926739,-592.164754,-9959.241474
913.501805,1850.514855,-444.123565,-9269.755526
913.502126,1998.556043,592.164754,-10035.851024
913.502446,2960.823768,2368.659014,-10725.336972
913.502766,3552.988522,3256.906145,-9806.022374
913.503086,4145.153275,2368.659014,-11031.775171
913.503406,2072.576638,740.205942,-9729.412825
913.503726,518.144159,0.000000,-10495.508323
913.504046,-1184.329507,-1702.473667,-10572.117872
913.504367,-1480.411884,-740.205942,-9652.803275
913.504687,-1184.329507,666.185348,-10495.508323
913.505007,0.000000,1480.411884,-9652.803275
913.505327,-518.144159,740.205942,-9959.241474
913.505647,-1850.514855,148.041188,-10418.898773
913.505967,-2146.597232,0.000000,-9882.631924
913.506288,-592.164754,370.102971,-10725.336972
913.506608,148.041188,592.164754,-10495.508323
913.506928,-1110.308913,0.000000,-10572.117872
913.507248,-2146.597232,74.020594,-10572.117872
913.507568,-3108.864956,814.226536,-9652.803275
913.507888,-3478.967927,2664.741391,-10878.556072
913.508208,-4737.318029,2886.803174,-10418.898773
913.508529,-3701.029710,2072.576638,-10265.679673
913.508849,-2812.782580,-1406.391290,-10495.508323
913.509169,-1258.350101,-4071.132681,-9422.974625
913.509489,-1480.411884,-4663.297435,-9652.803275
913.509809,-1998.556043,-2368.659014,-9882.631924
913.510129,-2146.597232,592.164754,-9652.803275
913.510450,-1998.556043,3256.906145,-11108.384721
913.510770,-1332.370696,2664.741391,-9729.412825
913.511090,-814.226536,592.164754,-10189.070123
913.511410,592.164754,-1776.494261,-10189.070123
913.511730,1258.350101,-1998.556043,-9499.584175
913.512050,1554.432478,-1480.411884,-10725.336972
913.512370,-148.041188,148.041188,-9806.022374
913.512691,-518.144159,666.185348,-9806.022374
913.513011,-296.082377,222.061783,-9882.631924
913.513331,2368.659014,-222.061783,-9729.412825
913.513651,2368.659014,0.000000,-10112.460574
913.513971,2442.679609,-370.102971,-9729.412825
913.514291,3701.029710,0.000000,-9576.193725
913.514612,4145.153275,518.144159,-10725.336972
913.514932,3034.844362,-370.102971,-10189.070123
913.515252,592.164754,740.205942,-9269.755526
913.515572,0.000000,1184.329507,-10572.117872
913.515892,3775.050304,518.144159,-9652.803275
913.516212,6883.915261,1554.432478,-10725.336972
913.516532,5847.626942,1332.370696,-11261.603821
913.516852,2960.823768,74.020594,-9652.803275
913.517172,1998.556043,-518.144159,-10495.508323
913.517492,740.205942,-592.164754,-9729.412825
913.517812,1036.288319,-1184.329507,-9806.022374
913.518132,1702.473667,-962.267725,-10265.679673
913.518452,1850.514855,296.082377,-9576.193725
913.518772,1036.288319,0.000000,-10418.898773
913.519092,3034.844362,296.082377,-9729.412825
913.519412,4293.194464,1702.473667,-10189.070123
913.519732,3552.988522,592.164754,-10725.336972
913.520052,1406.391290,370.102971,-9576.193725
913.520372,222.061783,74.020594,-9882.631924
913.520692,-296.082377,-1110.308913,-9882.631924
913.521012,148.041188,-518.144159,-9422.974625
913.521331,666.185348,296.082377,-11031.775171
913.521651,2294.638420,444.123565,-9959.241474
913.521971,-814.226536,0.000000,-9806.022374
913.522291,-2812.782580,0.000000,-10035.851024
913.522611,-4145.153275,-148.041188,-9346.365076
913.522931,-1628.453072,222.061783,-10418.898773
913.523251,-1554.432478,444.123565,-10265.679673
913.523571,-2146.597232,1258.350101,-9806.022374
913.523891,-2146.597232,1924.535449,-11031.775171
913.524211,-296.082377,1776.494261,-9652.803275
913.524531,-296.082377,1850.514855,-10572.117872
913.524851,-592.164754,888.247130,-10572.117872
913.525171,-1480.411884,740.205942,-9576.193725
913.525491,-1480.411884,-296.082377,-10878.556072
913.525811,-1480.411884,-962.267725,-9499.584175
913.526131,-2220.617826,-1184.329507,-9422.974625
913.526451,-2886.803174,0.000000,-11108.384721
913.526771,-1776.494261,1406.391290,-9499.584175
913.527091,-1628.453072,2738.761985,-10878.556072
913.527411,-888.247130,2442.679609,-9729.412825
913.527731,1406.391290,1554.432478,-9806.022374
913.528051,1480.411884,0.000000,-11031.775171
913.528371,1628.453072,-814.226536,-9116.536426
913.528691,-222.061783,370.102971,-9806.022374
913.529011,-1554.432478,148.041188,-9806.022374
913.529330,-444.123565,592.164754,-9576.193725
913.529650,2220.617826,1036.288319,-10035.851024
913.529970,1036.288319,1480.411884,-9729.412825
913.530290,-518.144159,1702.473667,-10112.460574
913.530610,222.061783,1332.370696,-10342.289223
913.530930,1850.514855,0.000000,-9729.412825
913.531250,3256.906145,-592.164754,-10112.460574
913.531570,3849.070898,-1924.535449,-9806.022374
913.531890,2072.576638,-962.267725,-9729.412825
913.532210,1480.411884,296.082377,-9882.631924
913.532530,2812.782580,3108.864956,-9959.241474
913.532850,4219.173869,1628.453072,-10878.556072
913.533170,3923.091493,-1036.288319,-10342.289223
913.533490,1406.391290,-1110.308913,-9422.974625
913.533810,-666.185348,-2220.617826,-9652.803275
913.534130,518.144159,-2220.617826,-9039.926876
913.534450,2812.782580,0.000000,-10035.851024
913.534770,3701.029710,-814.226536,-10572.117872
913.535090,1406.391290,-148.041188,-9116.536426
913.535410,1036.288319,370.102971,-9959.241474
913.535730,2146.597232,814.226536,-9806.022374
913.536050,3775.050304,1110.308913,-10265.679673
913.536370,3849.070898,740.205942,-10648.727422
913.536690,3552.988522,-518.144159,-9729.412825
913.537010,1332.370696,-296.082377,-10418.898773
913.537329,814.226536,-592.164754,-10418.898773
913.537649,592.164754,-222.061783,-9576.193725
913.537969,2516.700203,148.041188,-11108.384721
913.538289,1554.432478,1036.288319,-10035.851024
913.538609,-2368.659014,814.226536,-10955.165621
913.538929,-4071.132681,-444.123565,-10265.679673
913.539249,-2590.720797,-814.226536,-9499.584175
913.539569,-1258.350101,148.041188,-11108.384721
913.539889,-666.185348,-74.020594,-10648.727422
913.540209,-1480.411884,-1110.308913,-9806.022374
913.540529,-2072.576638,-3108.864956,-10495.508323
913.540849,-518.144159,-2146.597232,-9422.974625
913.541169,-518.144159,1480.411884,-10418.898773
913.541489,-518.144159,2960.823768,-10648.727422
913.541809,-1776.494261,3849.070898,-9959.241474
913.542129,-1628.453072,2738.761985,-11031.775171
913.542449,-1480.411884,-148.041188,-9882.631924
913.542769,-2294.638420,-2442.679609,-9729.412825
913.543089,-2294.638420,-3923.091493,-10112.460574
913.543409,-3256.906145,-3849.070898,-9116.536426
913.543729,-2886.803174,-1332.370696,-9806.022374
913.544049,-814.226536,370.102971,-9652.803275
913.544369,444.123565,2960.823768,-9882.631924
913.544689,1036.288319,3256.906145,-11108.384721
913.545009,0.000000,2368.659014,-9346.365076
913.545328,518.144159,1110.308913,-10035.851024
913.545648,1406.391290,444.123565,-9652.803275
913.545968,3108.864956,-222.061783,-9806.022374
913.546288,3701.029710,-370.102971,-11108.384721
913.546608,962.267725,-1036.288319,-9806.022374
913.546928,-1480.411884,-296.082377,-9882.631924
913.547248,-1776.494261,2146.597232,-9499.584175
913.547568,-592.164754,3552.988522,-9959.241474
913.547888,2590.720797,4589.276840,-11031.775171
913.548208,2220.617826,2368.659014,-10955.165621
913.548528,1850.514855,296.082377,-9652.803275
913.548848,2072.576638,-296.082377,-10342.289223
913.549168,2146.597232,296.082377,-8886.707777
913.549488,3923.091493,1998.556043,-10342.289223
913.549808,5995.668130,1554.432478,-10035.851024
913.550128,3256.906145,2812.782580,-9882.631924
913.550448,2442.679609,2368.659014,-11108.384721
913.550768,3775.050304,814.226536,-9422.974625
913.551088,5699.585753,1628.453072,-10342.289223
913.551408,3701.029710,962.267725,-10648.727422
913.551728,1480.411884,888.247130,-10112.460574
913.552048,-592.164754,814.226536,-9959.241474
913.552368,148.041188,0.000000,-9269.755526
913.552688,1998.556043,-518.144159,-9729.412825
913.553008,2960.823768,-296.082377,-10878.556072
913.553327,2146.597232,74.020594,-9499.584175
913.553647,1110.308913,2220.617826,-10189.070123
913.553967,-370.102971,3034.844362,-9652.803275
913.554287,-444.123565,2886.803174,-9576.193725
913.554607,1628.453072,0.000000,-10648.727422
913.554927,444.123565,-1776.494261,-9499.584175
913.555247,-2368.659014,-2368.659014,-9806.022374
913.555567,-4737.318029,-3330.926739,-9576.193725
913.555887,-2220.617826,-1702.473667,-8963.317327
913.556207,1406.391290,0.000000,-10189.070123
913.556527,2960.823768,370.102971,-10189.070123
913.556847,2146.597232,1702.473667,-10955.165621
913.557167,666.185348,888.247130,-10725.336972
913.557487,-1036.288319,2220.617826,-9193.145976
913.557807,-1184.329507,2294.638420,-10342.289223
913.558127,0.000000,962.267725,-11338.213370
913.558447,-444.123565,-1110.308913,-10418.898773
913.558767,-2738.761985,-2664.741391,-10189.070123
913.559087,-4071.132681,-2516.700203,-9346.365076
913.559407,-4367.215058,-740.205942,-9729.412825
913.559727,-1924.535449,518.144159,-10418.898773
913.560047,-1924.535449,888.247130,-9882.631924
913.560367,-3034.844362,370.102971,-10265.679673
913.560687,-1850.514855,-1702.473667,-9652.803275
913.561007,1258.350101,-2146.597232,-10265.679673
913.561326,3034.844362,-1110.308913,-10955.165621
913.561646,2368.659014,-592.164754,-10418.898773
913.561966,1406.391290,1406.391290,-10495.508323
913.562286,444.123565,2960.823768,-10878.556072
913.562606,74.020594,2368.659014,-10572.117872
913.562926,-370.102971,962.267725,-11338.213370
913.563246,-1850.514855,-1332.370696,-10801.946522
913.563566,-2294.638420,-3182.885551,-9652.803275
913.563886,-2294.638420,-2442.679609,-10265.679673
913.564206,0.000000,-962.267725,-9422.974625
913.564526,2516.700203,1702.473667,-10495.508323
913.564846,3404.947333,3775.050304,-10572.117872
913.565166,4145.153275,1702.473667,-10342.289223
913.565486,3182.885551,592.164754,-10342.289223
913.565806,2812.782580,-592.164754,-9499.584175
913.566126,2368.659014,-1554.432478,-9729.412825
913.566446,3108.864956,-2072.576638,-10189.070123
913.566766,2590.720797,666.185348,-9346.365076
913.567086,888.247130,1554.432478,-10342.289223
913.567406,-370.102971,370.102971,-9422.974625
913.567726,1628.453072,-1258.350101,-9652.803275
913.568046,2294.638420,-2146.597232,-9499.584175
913.568366,1924.535449,-2146.597232,-9116.536426
913.568686,3034.844362,-814.226536,-10035.851024
913.569006,4441.235652,-296.082377,-9346.365076
913.569325,5181.441594,1406.391290,-10112.460574
913.569645,2960.823768,2516.700203,-9576.193725
913.569965,-296.082377,4441.235652,-10265.679673
913.570285,0.000000,3849.070898,-10725.336972
913.570605,2516.700203,1258.350101,-10418.898773
913.570925,1776.494261,-1332.370696,-10342.289223
913.571245,0.000000,-3182.885551,-10189.070123
913.571565,-148.041188,-3108.864956,-9959.241474
913.571885,-1406.391290,-1628.453072,-10801.946522
913.572205,-2738.761985,666.185348,-10495.508323
913.572525,-1406.391290,4811.338623,-10648.727422
913.572845,1036.288319,4959.379811,-11184.994271
913.573165,3108.864956,4737.318029,-10801.946522
913.573485,1480.411884,2960.823768,-11184.994271
913.573805,-1332.370696,0.000000,-11414.822920
913.574125,-1702.473667,-1332.370696,-9806.022374
913.574445,0.000000,-592.164754,-10495.508323
913.574765,-148.041188,518.144159,-9882.631924
913.575085,-2590.720797,2072.576638,-9652.803275
913.575405,-3997.112087,2516.700203,-10495.508323
913.575725,-3701.029710,1332.370696,-8886.707777
913.576045,-2590.720797,74.020594,-9346.365076
913.576365,-148.041188,-2664.741391,-8963.317327
913.576685,-1110.308913,-2368.659014,-7814.174080
913.577005,-1628.453072,-1998.556043,-9576.193725
913.577324,-296.082377,-592.164754,-8733.488677
913.577644,370.102971,2294.638420,-9269.755526
913.577964,1110.308913,4219.173869,-11721.261119
913.578284,2072.576638,3775.050304,-9652.803275
913.578604,666.185348,3552.988522,-10801.946522
913.578924,-1258.350101,0.000000,-9652.803275
913.579244,-814.226536,-2146.597232,-9039.926876
913.579564,1554.432478,-3034.844362,-10189.070123
913.579884,1110.308913,-1924.535449,-10342.289223
913.580204,-888.247130,-1480.411884,-9882.631924
913.580524,-2072.576638,1258.350101,-10955.165621
913.580844,0.000000,3849.070898,-9806.022374
913.581164,4515.256246,5773.606348,-12257.527968
913.581484,5033.400406,4589.276840,-11644.651570
913.581804,2886.803174,2886.803174,-11184.994271
913.582124,2368.659014,888.247130,-10878.556072
913.582444,2738.761985,-1036.288319,-11184.994271
913.582764,3256.906145,-740.205942,-10418.898773
913.583084,3256.906145,-370.102971,-10725.336972
913.583404,814.226536,1036.288319,-9959.241474
913.583724,148.041188,1628.453072,-10189.070123
913.584044,0.000000,518.144159,-9806.022374
913.584364,148.041188,148.041188,-10189.070123
913.584684,1850.514855,-1036.288319,-10342.289223
913.585004,2516.700203,-1628.453072,-9116.536426
913.585323,2812.782580,-518.144159,-9806.022374
913.585643,1258.350101,0.000000,-9116.536426
913.585963,814.226536,0.000000,-9576.193725
913.586283,1258.350101,666.185348,-9959.241474
913.586603,1924.535449,-296.082377,-9499.584175
913.586923,1406.391290,-1850.514855,-9499.584175
913.587243,592.164754,-1628.453072,-10189.070123
913.587563,-296.082377,-1480.411884,-9269.755526
913.587883,-444.123565,-444.123565,-10418.898773
913.588203,-1258.350101,-518.144159,-10035.851024
913.588523,-1480.411884,-1036.288319,-10112.460574
913.588843,-370.102971,-2146.597232,-9422.974625
913.589163,148.041188,-296.082377,-9959.241474
913.589483,1998.556043,74.020594,-10878.556072
913.589803,1702.473667,222.061783,-10572.117872
913.590123,-814.226536,666.185348,-10418.898773
913.590443,-2368.659014,1628.453072,-11721.261119
913.590763,-2294.638420,1998.556043,-10418.898773
913.591083,-2516.700203,370.102971,-10265.679673
913.591403,-1776.494261,-666.185348,-10725.336972
913.591723,-3256.906145,-2072.576638,-10112.460574
913.592043,-2220.617826,-1776.494261,-10878.556072
913.592363,-3034.844362,-1776.494261,-9422.974625
913.592683,-1702.473667,-1184.329507,-10418.898773
913.593003,370.102971,518.144159,-10495.508323
913.593322,518.144159,1850.514855,-9959.241474
913.593642,1924.535449,1628.453072,-10495.508323
913.593962,1110.308913,1480.411884,-10189.070123
913.594282,0.000000,518.144159,-9652.803275
913.594602,1924.535449,-1036.288319,-10495.508323
913.594922,1554.432478,-1480.411884,-9039.926876
913.595242,370.102971,0.000000,-11951.089769
913.595562,-962.267725,148.041188,-9729.412825
913.595882,814.226536,1628.453072,-9806.022374
913.596202,148.041188,1110.308913,-10035.851024
913.596522,-814.226536,-444.123565,-9116.536426
913.596842,-1480.411884,-1406.391290,-9576.193725
913.597162,-814.226536,-1480.411884,-9652.803275
913.597482,4515.256246,-592.164754,-8656.879127
913.597802,5847.626942,2146.597232,-10572.117872
913.598122,5477.523971,3478.967927,-9806.022374
913.598442,3478.967927,4663.297435,-10955.165621
913.598762,2516.700203,2146.597232,-10418.898773
913.599082,3627.009116,1110.308913,-9959.241474
913.599402,1850.514855,-666.185348,-9576.193725
913.599722,1554.432478,-2220.617826,-9959.241474
913.600042,1184.329507,-296.082377,-9806.022374
913.600362,0.000000,1258.350101,-11184.994271
913.600682,814.226536,1554.432478,-9882.631924
913.601002,962.267725,2220.617826,-10572.117872
913.601322,3775.050304,2294.638420,-10801.946522
913.601641,2960.823768,1258.350101,-10035.851024
913.601961,1332.370696,1776.494261,-10801.946522
913.602281,2220.617826,2442.679609,-10418.898773
913.602601,2220.617826,1998.556043,-10112.460574
913.602921,1480.411884,2072.576638,-11108.384721
913.603241,296.082377,666.185348,-9652.803275
913.603561,-1184.329507,0.000000,-10265.679673
913.603881,-1258.350101,-740.205942,-9882.631924
913.604201,0.000000,0.000000,-9576.193725
913.604521,1628.453072,-1332.370696,-10572.117872
913.604841,740.205942,-1850.514855,-9576.193725
913.605161,-1628.453072,-1110.308913,-9499.584175
913.605481,-1110.308913,888.247130,-10265.679673
913.605801,-1850.514855,1998.556043,-9729.412825
913.606121,-222.061783,1776.494261,-10342.289223
913.606441,2368.659014,3182.885551,-10112.460574
913.606761,518.144159,1554.432478,-9499.584175
913.607081,-1110.308913,962.267725,-10342.289223
913.607401,-3775.050304,-740.205942,-9193.145976
913.607721,-3997.112087,-1480.411884,-10189.070123
913.608041,-3478.967927,-1554.432478,-8963.317327
913.608361,-2886.803174,-3849.070898,-8580.269578
913.608681,-2960.823768,-1110.308913,-9806.022374
913.609001,-4219.173869,-592.164754,-9576.193725
913.609321,888.247130,1258.350101,-10801.946522
913.609640,1406.391290,888.247130,-10035.851024
913.609960,0.000000,518.144159,-9652.803275
913.610280,-296.082377,-666.185348,-10112.460574
913.610600,1702.473667,-1850.514855,-9882.631924
913.610920,740.205942,-1702.473667,-9652.803275
913.611240,444.123565,-370.102971,-10112.460574
913.611560,-814.226536,814.226536,-10189.070123
913.611880,-1406.391290,1110.308913,-10495.508323
913.612200,-370.102971,-518.144159,-10418.898773
913.612520,0.000000,-1554.432478,-9882.631924
913.612840,1110.308913,-1924.535449,-10801.946522
913.613160,592.164754,-1628.453072,-9806.022374
913.613480,2886.803174,1110.308913,-10801.946522
913.613800,2812.782580,1406.391290,-10495.508323
913.614120,4737.318029,1776.494261,-10035.851024
913.614440,5995.668130,2664.741391,-11108.384721
913.614760,4071.132681,2072.576638,-11184.994271
913.615080,2812.782580,888.247130,-10189.070123
913.615400,1110.308913,666.185348,-10418.898773
913.615720,814.226536,0.000000,-9576.193725
913.616040,1628.453072,-444.123565,-9806.022374
913.616360,1628.453072,-1332.370696,-9806.022374
913.616680,888.247130,-814.226536,-9499.584175
913.616999,1036.288319,-1406.391290,-9882.631924
913.617319,1110.308913,-1258.350101,-8656.879127
913.617639,518.144159,1110.308913,-9806.022374
913.617959,1998.556043,2368.659014,-10189.070123
913.618279,3923.091493,1850.514855,-10035.851024
913.618599,3108.864956,0.000000,-9882.631924
913.618919,4441.235652,518.144159,-10035.851024
913.619239,2442.679609,444.123565,-9499.584175
913.619559,2072.576638,0.000000,-10648.727422
913.619879,222.061783,518.144159,-9576.193725
913.620199,-1258.350101,-1110.308913,-10189.070123
913.620519,-2368.659014,-1554.432478,-9039.926876
913.620839,-962.267725,-1036.288319,-9806.022374
913.621159,74.020594,148.041188,-10878.556072
913.621479,1110.308913,222.061783,-10342.289223
913.621799,0.000000,1036.288319,-10112.460574
913.622119,-1998.556043,888.247130,-10035.851024
913.622439,-1258.350101,2738.761985,-10035.851024
913.622758,-962.267725,3701.029710,-11721.261119
913.623078,0.000000,1332.370696,-10418.898773
913.623398,-1332.370696,1480.411884,-10112.460574
913.623718,-2960.823768,1110.308913,-10342.289223
913.624038,-2368.659014,0.000000,-9652.803275
913.624358,-2368.659014,-666.185348,-10572.117872
913.624678,-3256.906145,-518.144159,-9959.241474
913.624998,-3478.967927,-148.041188,-9116.536426
913.625318,-1776.494261,666.185348,-10189.070123
913.625638,222.061783,0.000000,-9806.022374
913.625958,814.226536,2146.597232,-10112.460574
913.626278,1628.453072,518.144159,-10878.556072
913.626598,518.144159,1258.350101,-9422.974625
913.626918,740.205942,2812.782580,-10112.460574
913.627238,1850.514855,3478.967927,-10265.679673
913.627558,2368.659014,1110.308913,-9882.631924
913.627878,296.082377,-740.205942,-9652.803275
913.628198,-2590.720797,-1850.514855,-8886.707777
913.628517,-3034.844362,-1406.391290,-9422.974625
913.628837,-740.205942,-2664.741391,-9422.974625
913.629157,2072.576638,-370.102971,-10035.851024
913.629477,1702.473667,1332.370696,-9959.241474
913.629797,74.020594,2516.700203,-10035.851024
913.630117,1110.308913,2664.741391,-10112.460574
913.630437,3997.112087,296.082377,-10878.556072
913.630757,4293.194464,1110.308913,-9499.584175
913.631077,2812.782580,-222.061783,-10801.946522
913.631397,1998.556043,-444.123565,-10035.851024
913.631717,0.000000,-1184.329507,-9346.365076
913.632037,592.164754,962.267725,-11491.432470
913.632357,-444.123565,2516.700203,-9806.022374
913.632677,1850.514855,1776.494261,-10801.946522
913.632997,3256.906145,740.205942,-10495.508323
913.633317,3256.906145,222.061783,-9806.022374
913.633637,3182.885551,518.144159,-10648.727422
913.633956,1184.329507,-962.267725,-9193.145976
913.634276,2886.803174,0.000000,-10342.289223
913.634596,3256.906145,-1998.556043,-10342.289223
913.634916,1776.494261,-1036.288319,-8963.317327
913.635236,-518.144159,-740.205942,-10725.336972
913.635556,222.061783,370.102971,-9652.803275
913.635876,1480.411884,1480.411884,-10342.289223
913.636196,666.185348,-222.061783,-10418.898773
913.636516,740.205942,-1184.329507,-10418.898773
913.636836,-444.123565,-518.144159,-10495.508323
913.637156,-814.226536,-1036.288319,-9806.022374
913.637476,0.000000,1036.288319,-10035.851024
913.637796,518.144159,370.102971,-11261.603821
913.638116,1480.411884,-666.185348,-10265.679673
913.638436,1332.370696,-148.041188,-10801.946522
913.638756,296.082377,1406.391290,-11031.775171
913.639076,-814.226536,1258.350101,-10112.460574
913.639396,-1554.432478,1258.350101,-11491.432470
913.639715,-2516.700203,0.000000,-10112.460574
913.640035,-2294.638420,-1184.329507,-10112.460574
913.640355,-2664.741391,-74.020594,-10418.898773
913.640675,-3182.885551,-222.061783,-10342.289223
913.640995,-2368.659014,222.061783,-10418.898773
913.641315,666.185348,370.102971,-10342.289223
913.641635,444.123565,74.020594,-9652.803275
913.641955,-814.226536,-2146.597232,-10418.898773
913.642275,0.000000,-1184.329507,-9499.584175
913.642595,74.020594,-962.267725,-9882.631924
913.642915,740.205942,74.020594,-10418.898773
913.643235,-1036.288319,1184.329507,-8963.317327
913.643555,-2072.576638,1924.535449,-10955.165621
913.643875,-1628.453072,1110.308913,-9422.974625
913.644195,0.000000,0.000000,-10189.070123
913.644515,0.000000,-518.144159,-10572.117872
913.644835,-1184.329507,-592.164754,-9882.631924
913.645155,592.164754,0.000000,-9729.412825
913.645474,1184.329507,-666.185348,-10495.508323
913.645794,1776.494261,518.144159,-9116.536426
913.646114,-444.123565,740.205942,-11031.775171
913.646434,1554.432478,370.102971,-7660.954980
913.646754,5329.482782,4293.194464,-11184.994271
913.647074,4071.132681,4737.318029,-11184.994271
913.647394,4293.194464,1554.432478,-10265.679673
913.647714,5255.462188,-296.082377,-11568.042020
913.648034,1406.391290,-1628.453072,-9499.584175
913.648354,-444.123565,-962.267725,-9882.631924
913.648674,-1776.494261,1554.432478,-10035.851024
913.648994,222.061783,4219.173869,-9959.241474
913.649314,2960.823768,3182.885551,-10112.460574
913.649634,4959.379811,0.000000,-10418.898773
913.649954,4071.132681,-1554.432478,-10112.460574
913.650274,2664.741391,0.000000,-10342.289223
913.650594,1406.391290,1184.329507,-9193.145976
913.650914,2886.803174,1258.350101,-9959.241474
913.651233,2368.659014,1776.494261,-9806.022374
913.651553,962.267725,740.205942,-9806.022374
913.651873,2072.576638,74.020594,-10265.679673
913.652193,2294.638420,-888.247130,-8963.317327
913.652513,2146.597232,370.102971,-10418.898773
913.652833,1480.411884,814.226536,-10418.898773
913.653153,0.000000,962.267725,-9116.536426
913.653473,-962.267725,666.185348,-9652.803275
913.653793,-2146.597232,-296.082377,-9729.412825
913.654113,-1110.308913,0.000000,-9806.022374
913.654433,-962.267725,-296.082377,-10495.508323
913.654753,1850.514855,1998.556043,-9652.803275
913.655073,962.267725,1628.453072,-9576.193725
913.655393,592.164754,0.000000,-10265.679673
913.655713,-1776.494261,-888.247130,-9269.755526
913.656033,-3478.967927,-1628.453072,-10878.556072
913.656353,-2072.576638,-2220.617826,-8656.879127
913.656673,-2072.576638,-2368.659014,-10112.460574
913.656992,-3627.009116,0.000000,-10342.289223
913.657312,-2368.659014,74.020594,-9729.412825
913.657632,222.061783,222.061783,-11031.775171
913.657952,-296.082377,740.205942,-10572.117872
913.658272,-1406.391290,962.267725,-10572.117872
913.658592,-1554.432478,814.226536,-10495.508323
913.658912,-1480.411884,148.041188,-10189.070123
913.659232,592.164754,222.061783,-11568.042020
913.659552,-592.164754,-1406.391290,-10801.946522
913.659872,-3330.926739,-2294.638420,-9422.974625
913.660192,-3256.906145,-1480.411884,-10878.556072
913.660512,-2516.700203,74.020594,-9729.412825
913.660832,-666.185348,1850.514855,-10955.165621
913.661152,1110.308913,1036.288319,-10572.117872
913.661472,222.061783,1036.288319,-10189.070123
913.661792,0.000000,-518.144159,-10725.336972
913.662112,1998.556043,-1258.350101,-9806.022374
913.662432,3552.988522,-2294.638420,-9806.022374
913.662751,4589.276840,-592.164754,-10342.289223
913.663071,3775.050304,1258.350101,-9576.193725
913.663391,4367.215058,2368.659014,-10572.117872
913.663711,4441.235652,2960.823768,-10878.556072
913.664031,2590.720797,1702.473667,-9882.631924
913.664351,-222.061783,222.061783,-10495.508323
913.664671,-740.205942,-1998.556043,-8886.707777
913.664991,1184.329507,-2664.741391,-9422.974625
913.665311,2516.700203,-2590.720797,-10342.289223
913.665631,2664.741391,-1702.473667,-9269.755526
913.665951,3849.070898,0.000000,-10418.898773
913.666271,4737.318029,1850.514855,-9729.412825
913.666591,3627.009116,2220.617826,-10265.679673
913.666911,1258.350101,2664.741391,-11108.384721
913.667231,370.102971,2886.803174,-9959.241474
913.667551,1406.391290,2812.782580,-11184.994271
913.667871,3182.885551,-74.020594,-9806.022374
913.668191,2960.823768,-1184.329507,-10035.851024
913.668510,148.041188,-1628.453072,-10035.851024
913.668830,-222.061783,-148.041188,-10265.679673
913.669150,296.082377,444.123565,-11031.775171
913.669470,1258.350101,1480.411884,-10572.117872
913.669790,-1110.308913,2590.720797,-10035.851024
913.670110,-1850.514855,2368.659014,-10112.460574
913.670430,222.061783,2368.659014,-10495.508323
913.670750,2516.700203,1924.535449,-11721.261119
913.671070,1554.432478,888.247130,-11184.994271
913.671390,-666.185348,-370.102971,-9806.022374
913.671710,-1036.288319,296.082377,-9959.241474
913.672030,-962.267725,0.000000,-9806.022374
913.672350,-888.247130,592.164754,-10112.460574
913.672670,-2664.741391,444.123565,-10342.289223
913.672990,-3775.050304,-888.247130,-9652.803275
913.673310,-3330.926739,-296.082377,-8886.707777
913.673630,-888.247130,-962.267725,-10035.851024
913.673950,222.061783,-740.205942,-9806.022374
913.674269,-518.144159,592.164754,-10342.289223
913.674589,-1776.494261,2664.741391,-10112.460574
913.674909,-2220.617826,4441.235652,-9269.755526
913.675229,-444.123565,4441.235652,-10801.946522
913.675549,740.205942,0.000000,-9729.412825
913.675869,740.205942,-3330.926739,-9576.193725
913.676189,1406.391290,-5329.482782,-9422.974625
913.676509,814.226536,-4441.235652,-8886.707777
913.676829,74.020594,-740.205942,-9959.241474
913.677149,-2072.576638,2664.741391,-9806.022374
913.677469,-1332.370696,5329.482782,-10495.508323
913.677789,444.123565,3775.050304,-10878.556072
913.678109,1184.329507,1184.329507,-10189.070123
913.678429,0.000000,-1184.329507,-10725.336972
913.678749,222.061783,-2072.576638,-9806.022374
913.679069,2960.823768,-888.247130,-10342.289223
913.679389,4589.276840,370.102971,-10801.946522
913.679709,1332.370696,1850.514855,-10495.508323
913.680028,-518.144159,2664.741391,-11414.822920
913.680348,1702.473667,1554.432478,-11108.384721
913.680668,4367.215058,1110.308913,-9959.241474
913.680988,3775.050304,370.102971,-10572.117872
913.681308,2072.576638,-814.226536,-10265.679673
913.681628,2146.597232,-1332.370696,-10648.727422
913.681948,3182.885551,-592.164754,-10801.946522
913.682268,3701.029710,-370.102971,-9499.584175
913.682588,3034.844362,1702.473667,-11184.994271
913.682908,1628.453072,1924.535449,-10112.460574
913.683228,888.247130,2590.720797,-10035.851024
913.683548,1258.350101,2220.617826,-9729.412825
913.683868,1110.308913,-962.267725,-9422.974625
913.684188,1480.411884,-3627.009116,-9193.145976
913.684508,222.061783,-4515.256246,-9806.022374
913.684828,-1480.411884,-3256.906145,-8120.612279
913.685148,-1258.350101,-296.082377,-9959.241474
913.685468,1036.288319,1036.288319,-9346.365076
913.685787,2738.761985,1998.556043,-10189.070123
913.686107,2664.741391,2072.576638,-10801.946522
913.686427,1332.370696,1628.453072,-8963.317327
913.686747,814.226536,1110.308913,-10342.289223
913.687067,0.000000,-592.164754,-9499.584175
913.687387,222.061783,-592.164754,-10035.851024
913.687707,0.000000,-2442.679609,-10112.460574
913.688027,-296.082377,-3108.864956,-9576.193725
913.688347,-2516.700203,-1850.514855,-10418.898773
913.688667,-3701.029710,-148.041188,-9959.241474
913.688987,-3775.050304,2590.720797,-9959.241474
913.689307,-2442.679609,2886.803174,-11261.603821
913.689627,-1406.391290,962.267725,-10189.070123
913.689947,-1702.473667,-370.102971,-10878.556072
913.690267,-1406.391290,-814.226536,-10725.336972
913.690587,222.061783,-1184.329507,-8963.317327
913.690907,592.164754,444.123565,-11031.775171
913.691227,-666.185348,1258.350101,-10725.336972
913.691546,-2072.576638,1628.453072,-10189.070123
913.691866,-3404.947333,518.144159,-10189.070123
913.692186,-2738.761985,370.102971,-9882.631924
913.692506,-148.041188,0.000000,-11108.384721
913.692826,148.041188,-1554.432478,-10035.851024
913.693146,-1554.432478,-740.205942,-9806.022374
913.693466,-2072.576638,-962.267725,-10342.289223
913.693786,1332.370696,74.020594,-9422.974625
913.694106,3404.947333,2072.576638,-10189.070123
913.694426,3552.988522,3923.091493,-10648.727422
913.694746,3034.844362,4219.173869,-10035.851024
913.695066,1776.494261,2590.720797,-10648.727422
913.695386,1998.556043,0.000000,-9729.412825
913.695706,1406.391290,0.000000,-9729.412825
913.696026,1998.556043,-1554.432478,-9882.631924
913.696346,3775.050304,-222.061783,-8733.488677
913.696666,2146.597232,518.144159,-9499.584175
913.696986,1036.288319,1406.391290,-9499.584175
913.697305,1480.411884,1036.288319,-9193.145976
913.697625,3552.988522,-962.267725,-10342.289223
913.697945,3627.009116,-222.061783,-9652.803275
913.698265,1998.556043,888.247130,-9729.412825
913.698585,2368.659014,2960.823768,-9959.241474
913.698905,3404.947333,2886.803174,-9576.193725
913.699225,3923.091493,1332.370696,-11108.384721
913.699545,1998.556043,-1554.432478,-10495.508323
913.699865,370.102971,-1554.432478,-9576.193725
913.700185,-370.102971,-814.226536,-11184.994271
913.700505,2072.576638,1776.494261,-10112.460574
913.700825,2590.720797,1554.432478,-10572.117872
913.701145,1036.288319,1184.329507,-10955.165621
913.701465,-148.041188,296.082377,-9959.241474
913.701785,-1332.370696,592.164754,-10955.165621
913.702105,1036.288319,1554.432478,-10495.508323
913.702425,2960.823768,2368.659014,-10648.727422
913.702745,3478.967927,1998.556043,-11108.384721
913.703064,1406.391290,962.267725,-9576.193725
913.703384,-1628.453072,74.020594,-10265.679673
913.703704,-740.205942,444.123565,-9806.022374
913.704024,592.164754,1036.288319,-10112.460574
913.704344,296.082377,592.164754,-10572.117872
913.704664,-2812.782580,74.020594,-9576.193725
913.704984,-5921.647536,-1702.473667,-8810.098227
913.705304,-6217.729913,-2664.741391,-9116.536426
913.705624,-2812.782580,-2294.638420,-9346.365076
913.705944,1036.288319,-1406.391290,-10418.898773
913.706264,1702.473667,-1406.391290,-9422.974625
913.706584,444.123565,74.020594,-9806.022374
913.706904,-888.247130,1332.370696,-10342.289223
913.707224,-518.144159,2960.823768,-9806.022374
913.707544,-592.164754,2590.720797,-10572.117872
913.707864,-666.185348,1258.350101,-9882.631924
913.708184,-2516.700203,-1702.473667,-10189.070123
913.708504,-3404.947333,-3478.967927,-10265.679673
913.708823,-1776.494261,-4071.132681,-9806.022374
913.709143,-222.061783,-1332.370696,-10418.898773
913.709463,-1110.308913,222.061783,-10112.460574
913.709783,-2738.761985,1998.556043,-9806.022374
913.710103,-2812.782580,2368.659014,-10725.336972
913.710423,592.164754,1332.370696,-10265.679673
913.710743,3627.009116,1480.411884,-10878.556072
913.711063,3330.926739,-1184.329507,-10955.165621
913.711383,3256.906145,-2146.597232,-9652.803275
913.711703,3182.885551,-1554.432478,-9959.241474
913.712023,2368.659014,444.123565,-10572.117872
913.712343,1332.370696,2886.803174,-10878.556072
913.712663,296.082377,962.267725,-10648.727422
913.712983,962.267725,-740.205942,-9729.412825
913.713303,74.020594,-1850.514855,-9882.631924
913.713623,-1184.329507,-2072.576638,-9652.803275
913.713943,1480.411884,-1480.411884,-9039.926876
913.714263,2294.638420,-740.205942,-10725.336972
913.714582,3849.070898,1110.308913,-9652.803275
913.714902,4071.132681,1554.432478,-10648.727422
913.715222,4441.235652,2368.659014,-10495.508323
913.715542,3923.091493,1776.494261,-10035.851024
913.715862,2664.741391,2220.617826,-11108.384721
913.716182,1036.288319,74.020594,-10112.460574
913.716502,-740.205942,-444.123565,-9882.631924
913.716822,-740.205942,-1332.370696,-10265.679673
913.717142,1036.288319,-1628.453072,-9576.193725
913.717462,2072.576638,-740.205942,-10725.336972
913.717782,1850.514855,222.061783,-10189.070123
913.718102,444.123565,1184.329507,-9422.974625
913.718422,-444.123565,888.247130,-10801.946522
913.718742,1554.432478,1998.556043,-9499.584175
913.719062,4367.215058,1258.350101,-10801.946522
913.719382,5921.647536,1110.308913,-10265.679673
913.719702,3627.009116,888.247130,-9806.022374
913.720022,0.000000,1702.473667,-11031.775171
913.720342,-1258.350101,1998.556043,-10112.460574
913.720662,-1628.453072,2220.617826,-10035.851024
913.720982,74.020594,962.267725,-10495.508323
913.721302,-888.247130,296.082377,-9346.365076
913.721622,-3478.967927,-2516.700203,-9499.584175
913.721942,-3997.112087,-2146.597232,-9882.631924
913.722262,-1628.453072,-370.102971,-8350.440928
913.722582,1702.473667,1332.370696,-10495.508323
913.722902,74.020594,2368.659014,-10035.851024
913.723222,0.000000,1850.514855,-9576.193725
913.723542,-888.247130,2886.803174,-11644.651570
913.723862,962.267725,2960.823768,-9576.193725
913.724182,1776.494261,1776.494261,-10648.727422
913.724501,444.123565,-148.041188,-10189.070123
913.724821,-1258.350101,-1702.473667,-9422.974625
913.725141,-1850.514855,-1850.514855,-11184.994271
913.725461,-1480.411884,-740.205942,-8963.317327
913.725781,-2146.597232,0.000000,-10189.070123
913.726101,-3552.988522,1036.288319,-10189.070123
913.726421,-3923.091493,1184.329507,-10189.070123
913.726741,-2516.700203,1850.514855,-10112.460574
913.727061,740.205942,666.185348,-9959.241474
913.727381,1406.391290,666.185348,-10265.679673
913.727701,3478.967927,-148.041188,-11031.775171
913.728021,2368.659014,-296.082377,-10648.727422
913.728341,666.185348,1258.350101,-10648.727422
913.728661,0.000000,740.205942,-9806.022374
913.728981,0.000000,1554.432478,-10035.851024
913.729301,1406.391290,1110.308913,-10725.336972
913.729621,1776.494261,1406.391290,-9882.631924
913.729941,666.185348,962.267725,-10265.679673
913.730261,-222.061783,-592.164754,-9806.022374
913.730581,814.226536,148.041188,-10112.460574
913.730901,2442.679609,148.041188,-10725.336972
913.731221,4515.256246,370.102971,-10418.898773
913.731541,3330.926739,444.123565,-10418.898773
913.731861,2368.659014,1406.391290,-10265.679673
913.732181,2664.741391,1850.514855,-9729.412825
913.732501,2294.638420,962.267725,-10418.898773
913.732821,2368.659014,370.102971,-9346.365076
913.733141,2072.576638,-1332.370696,-9499.584175
913.733461,1776.494261,-2442.679609,-9729.412825
913.733781,1258.350101,-1702.473667,-9576.193725
913.734101,148.041188,-222.061783,-9652.803275
913.734421,0.000000,370.102971,-9499.584175
913.734741,518.144159,-666.185348,-9039.926876
913.735061,1184.329507,-2294.638420,-9882.631924
913.735381,444.123565,-2960.823768,-8886.707777
913.735701,888.247130,-666.185348,-10265.679673
913.736021,1628.453072,888.247130,-10418.898773
913.736341,592.164754,2516.700203,-9346.365076
913.736661,-1702.473667,2368.659014,-10495.508323
913.736981,-1776.494261,1702.473667,-10342.289223
913.737301,1110.308913,0.000000,-10495.508323
913.737621,3404.947333,-2220.617826,-10189.070123
913.737941,3108.864956,-1406.391290,-9806.022374
913.738261,888.247130,444.123565,-10801.946522
913.738581,-370.102971,888.247130,-10495.508323
913.738901,-1776.494261,1184.329507,-9882.631924
913.739221,-962.267725,74.020594,-10495.508323
913.739541,296.082377,-592.164754,-10495.508323
913.739861,0.000000,-1406.391290,-10495.508323
913.740180,-2146.597232,-1258.350101,-10418.898773
913.740500,-1480.411884,370.102971,-9959.241474
913.740820,1406.391290,1776.494261,-11414.822920
913.741140,148.041188,1184.329507,-10955.165621
913.741460,-2664.741391,1554.432478,-10265.679673
913.741780,-5551.544565,74.020594,-10265.679673
913.742100,-3997.112087,-1184.329507,-9039.926876
913.742420,-1628.453072,-2442.679609,-9652.803275
913.742740,370.102971,-2664.741391,-10035.851024
913.743060,1184.329507,-1406.391290,-9652.803275
913.743380,370.102971,-444.123565,-10725.336972
913.743700,666.185348,1184.329507,-9652.803275
913.744020,1554.432478,3256.906145,-10648.727422
913.744340,2072.576638,3627.009116,-10725.336972
913.744660,1702.473667,3478.967927,-9729.412825
913.744980,666.185348,1998.556043,-9729.412825
913.745300,-222.061783,370.102971,-9806.022374
913.745620,74.020594,-296.082377,-9806.022374
913.745940,1850.514855,-1110.308913,-10495.508323
913.746260,1850.514855,-444.123565,-9193.145976
913.746580,814.226536,1406.391290,-9729.412825
913.746900,-1406.391290,1850.514855,-10342.289223
913.747220,222.061783,1480.411884,-8886.707777
913.747540,2960.823768,592.164754,-9806.022374
913.747860,5181.441594,-666.185348,-9576.193725
913.748180,5625.565159,-74.020594,-10112.460574
913.748500,4219.173869,1628.453072,-10572.117872
913.748820,3330.926739,2960.823768,-9576.193725
913.749140,2738.761985,5551.544565,-11184.994271
913.749460,2738.761985,4441.235652,-10955.165621
913.749780,1184.329507,1258.350101,-9882.631924
913.750100,-518.144159,-2220.617826,-10265.679673
913.750420,-1184.329507,-3627.009116,-8963.317327
913.750740,-666.185348,-1998.556043,-9959.241474
913.751060,592.164754,-2072.576638,-10572.117872
913.751380,1110.308913,-296.082377,-9576.193725
913.751700,1554.432478,2664.741391,-11184.994271
913.752020,2294.638420,4071.132681,-10112.460574
913.752340,3182.885551,5255.462188,-10878.556072
913.752660,3330.926739,3849.070898,-11414.822920
913.752980,1554.432478,1184.329507,-10112.460574
913.753300,0.000000,-444.123565,-10648.727422
913.753620,-962.267725,-1998.556043,-9729.412825
913.753940,-962.267725,-1776.494261,-9499.584175
913.754260,0.000000,222.061783,-10495.508323
913.754580,222.061783,2146.597232,-9959.241474
913.754900,-962.267725,2664.741391,-9422.974625
913.755220,-2146.597232,1776.494261,-10189.070123
913.755539,-2294.638420,1110.308913,-9499.584175
913.755859,-888.247130,-592.164754,-10035.851024
913.756179,0.000000,-1406.391290,-9269.755526
913.756499,518.144159,-1258.350101,-9729.412825
913.756819,518.144159,222.061783,-9959.241474
913.757139,1702.473667,962.267725,-10035.851024
913.757459,2072.576638,2072.576638,-10572.117872
913.757779,1702.473667,2220.617826,-11721.261119
913.758099,-1480.411884,1258.350101,-9806.022374
913.758419,-5551.544565,592.164754,-10648.727422
913.758739,-6291.750507,-1258.350101,-9039.926876
913.759059,-3034.844362,-1184.329507,-9882.631924
913.759379,2072.576638,-814.226536,-10955.165621
913.759699,3182.885551,-888.247130,-9729.412825
913.760019,1628.453072,0.000000,-10495.508323
913.760339,2368.659014,1554.432478,-10265.679673
913.760659,2220.617826,3775.050304,-9499.584175
913.760979,2664.741391,5033.400406,-11414.822920
913.761299,-222.061783,3552.988522,-10112.460574
913.761619,-222.061783,1480.411884,-10495.508323
913.761939,2738.761985,-666.185348,-10418.898773
913.762259,5847.626942,-2368.659014,-9422.974625
913.762579,3923.091493,0.000000,-10955.165621
913.762899,1998.556043,1554.432478,-10189.070123
913.763219,1998.556043,3108.864956,-9576.193725
913.763539,3108.864956,4145.153275,-11261.603821
913.763859,4367.215058,3997.112087,-9729.412825
913.764179,3775.050304,2738.761985,-10878.556072
913.764499,4071.132681,592.164754,-10342.289223
913.764819,5847.626942,296.082377,-9346.365076
913.765139,5625.565159,1702.473667,-10572.117872
913.765459,4367.215058,2220.617826,-9806.022374
913.765779,2738.761985,2516.700203,-9959.241474
913.766099,3552.988522,2960.823768,-10725.336972
913.766419,3997.112087,2294.638420,-9422.974625
913.766739,3256.906145,2442.679609,-9882.631924
913.767059,2146.597232,1628.453072,-10112.460574
913.767379,2886.803174,222.061783,-9422.974625
913.767699,4071.132681,1332.370696,-9959.241474
913.768019,5255.462188,2368.659014,-10265.679673
913.768339,5403.503377,3256.906145,-9499.584175
913.768659,2812.782580,4219.173869,-10112.460574
913.768979,1554.432478,5403.503377,-10801.946522
913.769299,1850.514855,5773.606348,-10418.898773
913.769619,3034.844362,3478.967927,-10418.898773
913.769939,2960.823768,1110.308913,-10189.070123
913.770259,1480.411884,296.082377,-9269.755526
913.770579,222.061783,2294.638420,-10112.460574
913.770899,1110.308913,2886.803174,-10035.851024
913.771218,2516.700203,4293.194464,-10648.727422
913.771538,2368.659014,4663.297435,-10418.898773
913.771858,2738.761985,4811.338623,-10648.727422
913.772178,3627.009116,3701.029710,-10495.508323
913.772498,2738.761985,3404.947333,-10189.070123
913.772818,2294.638420,3108.864956,-9882.631924
913.773138,2294.638420,3701.029710,-10418.898773
913.773458,2072.576638,2960.823768,-10955.165621
913.773778,296.082377,1998.556043,-9729.412825
913.774098,-518.144159,1924.535449,-9729.412825
913.774418,666.185348,2072.576638,-9806.022374
913.774738,1702.473667,2664.741391,-9959.241474
913.775058,1924.535449,3256.906145,-9806.022374
913.775378,1702.473667,3849.070898,-10035.851024
913.775698,814.226536,3775.050304,-9959.241474
913.776018,1036.288319,3701.029710,-9806.022374
913.776338,1702.473667,2812.782580,-9959.241474
913.776658,2368.659014,2368.659014,-10189.070123
913.776978,1998.556043,1480.411884,-9652.803275
913.777298,1110.308913,1184.329507,-9729.412825
913.777618,0.000000,814.226536,-10112.460574
913.777938,-1184.329507,1924.535449,-9499.584175
913.778258,-1332.370696,3849.070898,-10035.851024
913.778578,666.185348,4145.153275,-9499.584175
913.778898,2516.700203,3849.070898,-10418.898773
913.779218,3182.885551,1184.329507,-9806.022374
913.779538,2664.741391,-222.061783,-10112.460574
913.779858,3108.864956,0.000000,-9882.631924
913.780178,5255.462188,1480.411884,-10189.070123
913.780498,5181.441594,3849.070898,-10648.727422
913.780818,2738.761985,5255.462188,-10801.946522
913.781138,962.267725,5033.400406,-10035.851024
913.781458,1702.473667,3108.864956,-10495.508323
913.781778,2442.679609,1036.288319,-10189.070123
913.782098,2220.617826,0.000000,-10189.070123
913.782418,2220.617826,370.102971,-9806.022374
913.782738,3404.947333,1850.514855,-10189.070123
913.783058,4959.379811,3478.967927,-10265.679673
913.783378,4737.318029,4515.256246,-10495.508323
913.783698,4293.194464,4663.297435,-10112.460574
913.784018,5033.400406,3552.988522,-10572.117872
913.784338,6365.771101,2812.782580,-10725.336972
913.784658,6513.812290,2516.700203,-9959.241474
913.784978,3404.947333,2294.638420,-10189.070123
913.785298,1998.556043,1998.556043,-9652.803275
913.785618,2220.617826,1924.535449,-9882.631924
913.785938,3034.844362,2368.659014,-10265.679673
913.786258,1924.535449,3404.947333,-9729.412825
913.786578,444.123565,2886.803174,-9652.803275
913.786897,2072.576638,2072.576638,-9422.974625
913.787217,4145.153275,888.247130,-9652.803275
913.787537,4737.318029,740.205942,-10035.851024
913.787857,3552.988522,740.205942,-9806.022374
913.788177,2146.597232,2738.761985,-9806.022374
913.788497,2590.720797,3997.112087,-10418.898773
913.788817,3701.029710,4367.215058,-10495.508323
913.789137,3627.009116,3775.050304,-10418.898773
913.789457,1776.494261,2738.761985,-10572.117872
913.789777,-888.247130,2368.659014,-10725.336972
913.790097,-2146.597232,1628.453072,-9806.022374
913.790417,-1554.432478,1998.556043,-9806.022374
913.790737,518.144159,1628.453072,-10189.070123
913.791057,2812.782580,1036.288319,-10035.851024
913.791377,2368.659014,1702.473667,-10342.289223
913.791697,148.041188,2294.638420,-10342.289223
913.792017,-148.041188,3478.967927,-9806.022374
913.792337,1406.391290,4145.153275,-10418.898773
913.792657,4145.153275,2960.823768,-10112.460574
913.792977,3552.988522,1480.411884,-9959.241474
913.793297,888.247130,962.267725,-10648.727422
913.793617,-1702.473667,962.267725,-9806.022374
913.793937,-2072.576638,1702.473667,-9729.412825
913.794257,-148.041188,1924.535449,-10112.460574
913.794577,2072.576638,592.164754,-9806.022374
913.794897,2812.782580,1036.288319,-10955.165621
913.795217,3108.864956,1702.473667,-10265.679673
913.795537,3182.885551,4071.132681,-10342.289223
913.795857,2590.720797,5995.668130,-10648.727422
913.796177,2516.700203,5773.606348,-9882.631924
913.796497,3849.070898,3182.885551,-9882.631924
913.796817,4145.153275,518.144159,-10112.460574
913.797137,3108.864956,-296.082377,-9729.412825
913.797457,1924.535449,814.226536,-9882.631924
913.797777,1924.535449,3256.906145,-10035.851024
913.798097,2368.659014,4663.297435,-9882.631924
913.798417,1924.535449,3997.112087,-9806.022374
913.798737,1776.494261,1702.473667,-9499.584175
913.799057,4071.132681,592.164754,-9882.631924
913.799377,5699.585753,370.102971,-9959.241474
913.799697,6143.709319,2146.597232,-9959.241474
913.800017,6661.853478,3701.029710,-10035.851024
913.800337,6661.853478,4737.318029,-10189.070123
913.800657,5773.606348,4885.359217,-10189.070123
913.800977,2664.741391,4589.276840,-10801.946522
913.801297,-148.041188,3478.967927,-10035.851024
913.801617,-592.164754,1110.308913,-10035.851024
913.801937,962.267725,-962.267725,-9806.022374
913.802256,2368.659014,-2146.597232,-9729.412825
913.802576,2442.679609,-1184.329507,-9499.584175
913.802896,2590.720797,2220.617826,-9806.022374
913.803216,4145.153275,5551.544565,-10342.289223
913.803536,5329.482782,8068.244768,-11031.775171
913.803856,5921.647536,8068.244768,-11184.994271
913.804176,4515.256246,5551.544565,-11031.775171
913.804496,1702.473667,2294.638420,-10342.289223
913.804816,0.000000,-518.144159,-9806.022374
913.805136,-1998.556043,-444.123565,-9806.022374
913.805456,-1998.556043,0.000000,-9576.193725
913.805776,-592.164754,740.205942,-9576.193725
913.806096,148.041188,1406.391290,-9806.022374
913.806416,1258.350101,2590.720797,-10265.679673
913.806736,2812.782580,4145.153275,-10342.289223
913.807056,4367.215058,5921.647536,-10495.508323
913.807376,5995.668130,6069.688724,-10648.727422
913.807696,5921.647536,5551.544565,-10572.117872
913.808016,3404.947333,3627.009116,-10112.460574
913.808336,1258.350101,2220.617826,-10035.851024
913.808656,-296.082377,2072.576638,-10342.289223
913.808976,-1258.350101,2146.597232,-9806.022374
913.809296,-1628.453072,2072.576638,-9806.022374
913.809616,-2368.659014,1184.329507,-9652.803275
913.809936,-2072.576638,370.102971,-9422.974625
913.810256,-148.041188,222.061783,-9576.193725
913.810576,2516.700203,1406.391290,-9806.022374
913.810896,5477.523971,2886.803174,-10112.460574
913.811216,7179.997637,4515.256246,-10495.508323
913.811536,7550.100608,5403.503377,-10418.898773
913.811856,6291.750507,5921.647536,-10342.289223
913.812176,3701.029710,5477.523971,-10955.165621
913.812496,2072.576638,4367.215058,-10648.727422
913.812816,962.267725,2442.679609,-10418.898773
913.813136,148.041188,814.226536,-9806.022374
913.813456,0.000000,-962.267725,-9652.803275
913.813776,-814.226536,-444.123565,-9499.584175
913.814096,-296.082377,592.164754,-9499.584175
913.814416,1702.473667,2146.597232,-9806.022374
913.814736,4219.173869,4071.132681,-9806.022374
913.815056,6735.874072,3701.029710,-10035.851024
913.815376,7402.059420,3182.885551,-10035.851024
913.815696,6513.812290,2812.782580,-9806.022374
913.816016,4441.235652,2294.638420,-10418.898773
913.816336,2516.700203,1998.556043,-10035.851024
913.816656,222.061783,1332.370696,-9959.241474
913.816976,-1776.494261,370.102971,-9806.022374
913.817296,-1702.473667,-296.082377,-9806.022374
913.817616,-1036.288319,-296.082377,-9806.022374
913.817936,-148.041188,-296.082377,-9806.022374
913.818256,1036.288319,666.185348,-9882.631924
913.818576,2664.741391,2294.638420,-10112.460574
913.818896,4441.235652,3775.050304,-10878.556072
913.819216,4811.338623,4663.297435,-10572.117872
913.819536,3923.091493,4515.256246,-10725.336972
913.819856,3108.864956,4219.173869,-10801.946522
913.820176,2368.659014,2812.782580,-10725.336972
913.820496,1702.473667,962.267725,-10648.727422
913.820816,0.000000,518.144159,-10035.851024
913.821136,-444.123565,444.123565,-9959.241474
913.821456,148.041188,962.267725,-9882.631924
913.821776,1332.370696,1628.453072,-10189.070123
913.822096,2294.638420,2590.720797,-10189.070123
913.822416,3701.029710,3182.885551,-10112.460574
913.822736,4811.338623,3775.050304,-10189.070123
913.823056,6587.832884,4145.153275,-10495.508323
913.823376,7698.141797,4737.318029,-10418.898773
913.823696,6883.915261,5255.462188,-10648.727422
913.824016,5033.400406,5403.503377,-10725.336972
913.824336,2590.720797,4885.359217,-10112.460574
913.824656,0.000000,3552.988522,-10035.851024
913.824976,-1406.391290,1332.370696,-9422.974625
913.825296,-1406.391290,0.000000,-9269.755526
913.825616,0.000000,-666.185348,-9576.193725
913.825936,1850.514855,-296.082377,-8810.098227
913.826256,3256.906145,2368.659014,-9269.755526
913.826576,4293.194464,4441.235652,-9882.631924
913.826896,5921.647536,6735.874072,-9882.631924
913.827216,6661.853478,7624.121203,-10572.117872
913.827536,6217.729913,7105.977043,-10418.898773
913.827856,4589.276840,5329.482782,-10725.336972
913.828176,3478.967927,3552.988522,-10418.898773
913.828496,2516.700203,2146.597232,-10418.898773
913.828816,444.123565,2220.617826,-9959.241474
913.829136,-2368.659014,2442.679609,-9499.584175
913.829456,-3108.864956,3034.844362,-9576.193725
913.829776,-1554.432478,2812.782580,-9806.022374
913.830096,1406.391290,2442.679609,-10342.289223
913.830416,2738.761985,2368.659014,-10189.070123
913.830736,2960.823768,2738.761985,-9959.241474
913.831056,3478.967927,4071.132681,-10035.851024
913.831376,4441.235652,5033.400406,-9959.241474
913.831696,5847.626942,5921.647536,-10189.070123
913.832016,6439.791695,5773.606348,-9882.631924
913.832336,3849.070898,4737.318029,-10955.165621
913.832656,-222.061783,3552.988522,-10189.070123
913.832976,-2886.803174,2368.659014,-9882.631924
913.833296,-2590.720797,1406.391290,-9729.412825
913.833616,-1184.329507,518.144159,-9269.755526
913.833936,-592.164754,0.000000,-9422.974625
913.834256,740.205942,444.123565,-9346.365076
913.834576,3330.926739,1924.535449,-9729.412825
913.834896,6217.729913,5033.400406,-9806.022374
913.835216,6883.915261,6217.729913,-10648.727422
913.835536,5995.668130,6143.709319,-10265.679673
913.835856,4885.359217,4959.379811,-10035.851024
913.836176,3108.864956,2738.761985,-10342.289223
913.836496,2072.576638,888.247130,-9652.803275
913.836816,518.144159,-222.061783,-9806.022374
913.837136,1036.288319,-814.226536,-9806.022374
913.837456,592.164754,-296.082377,-9729.412825
913.837776,148.041188,0.000000,-9806.022374
913.838096,-296.082377,1998.556043,-9959.241474
913.838416,1998.556043,2960.823768,-10112.460574
913.838736,4589.276840,3256.906145,-10725.336972
913.839056,6809.894666,3330.926739,-10189.070123
913.839376,7254.018232,3034.844362,-10648.727422
913.839696,6217.729913,3330.926739,-10955.165621
913.840016,4367.215058,3849.070898,-10725.336972
913.840337,1850.514855,3923.091493,-10878.556072
913.840657,222.061783,2590.720797,-10342.289223
913.840977,0.000000,444.123565,-10265.679673
913.841297,148.041188,-1406.391290,-10418.898773
913.841617,0.000000,-1702.473667,-10342.289223
913.841937,-740.205942,-592.164754,-9806.022374
913.842257,222.061783,592.164754,-10035.851024
913.842577,2812.782580,1776.494261,-10035.851024
913.842897,4737.318029,3034.844362,-9806.022374
913.843217,5255.462188,4145.153275,-10648.727422
913.843537,5847.626942,4071.132681,-10265.679673
913.843857,4737.318029,4515.256246,-10572.117872
913.844177,3627.009116,4219.173869,-10572.117872
913.844497,2442.679609,2664.741391,-9576.193725
913.844817,740.205942,1110.308913,-10035.851024
913.845137,-1480.411884,0.000000,-10035.851024
913.845457,-3034.844362,-666.185348,-9422.974625
913.845777,-4219.173869,0.000000,-9652.803275
913.846097,-1332.370696,148.041188,-9422.974625
913.846417,2738.761985,370.102971,-9652.803275
913.846737,4737.318029,1998.556043,-10418.898773
913.847057,4737.318029,3552.988522,-9959.241474
913.847377,3923.091493,5477.523971,-10112.460574
913.847697,5477.523971,6291.750507,-10725.336972
913.848017,6217.729913,5995.668130,-10648.727422
913.848337,4737.318029,3627.009116,-10801.946522
913.848657,1406.391290,1480.411884,-10189.070123
913.848977,-1184.329507,-148.041188,-9269.755526
913.849297,-1406.391290,-666.185348,-9806.022374
913.849617,-592.164754,296.082377,-9806.022374
913.849937,-592.164754,962.267725,-9729.412825
913.850257,148.041188,2220.617826,-9729.412825
913.850577,2146.597232,2664.741391,-9882.631924
913.850897,4589.276840,3701.029710,-9806.022374
913.851217,6217.729913,4737.318029,-10648.727422
913.851537,6143.709319,6069.688724,-9806.022374
913.851857,6735.874072,5699.585753,-10418.898773
913.852177,6587.832884,5329.482782,-10572.117872
913.852497,5921.647536,4071.132681,-10342.289223
913.852817,1850.514855,3849.070898,-10265.679673
913.853137,-518.144159,3256.906145,-9806.022374
913.853457,296.082377,3256.906145,-10418.898773
913.853777,0.000000,2960.823768,-10342.289223
913.854097,-1924.535449,1924.535449,-9346.365076
913.854417,-962.267725,962.267725,-9346.365076
913.854737,3552.988522,370.102971,-8350.440928
913.855057,6069.688724,2220.617826,-9882.631924
913.855377,5255.462188,4737.318029,-9882.631924
913.855697,5181.441594,6883.915261,-10189.070123
913.856017,6883.915261,7698.141797,-10955.165621
913.856337,6957.935855,6735.874072,-9806.022374
913.856657,3923.091493,4737.318029,-9882.631924
913.856977,518.144159,2738.761985,-10035.851024
913.857297,0.000000,962.267725,-10112.460574
913.857617,-444.123565,444.123565,-9039.926876
913.857937,-1776.494261,-444.123565,-9346.365076
913.858257,-2294.638420,0.000000,-9422.974625
913.858577,0.000000,592.164754,-10265.679673
913.858897,2516.700203,3330.926739,-10112.460574
913.859217,4145.153275,5551.544565,-10189.070123
913.859537,5329.482782,6809.894666,-10265.679673
913.859857,6291.750507,6217.729913,-10801.946522
913.860177,5551.544565,5033.400406,-10495.508323
913.860497,3256.906145,3182.885551,-10801.946522
913.860817,296.082377,2368.659014,-9959.241474
913.861137,-2072.576638,1110.308913,-9806.022374
913.861457,-2146.597232,1406.391290,-9806.022374
913.861777,-1184.329507,1110.308913,-10418.898773
913.862097,-1258.350101,888.247130,-8963.317327
913.862417,0.000000,888.247130,-9652.803275
913.862737,888.247130,1628.453072,-9882.631924
913.863057,2368.659014,2590.720797,-10035.851024
913.863377,4367.215058,3182.885551,-10495.508323
913.863697,6143.709319,2738.761985,-10801.946522
913.864017,7328.038826,2664.741391,-9959.241474
913.864337,6217.729913,3552.988522,-10342.289223
913.864657,3775.050304,5477.523971,-11338.213370
913.864977,2072.576638,5477.523971,-10725.336972
913.865297,592.164754,4071.132681,-10035.851024
913.865618,370.102971,1406.391290,-10265.679673
913.865938,-222.061783,-592.164754,-9193.145976
913.866258,-1998.556043,-1258.350101,-9269.755526
913.866578,-370.102971,-1480.411884,-9806.022374
913.866898,2812.782580,0.000000,-9346.365076
913.867218,4663.297435,2368.659014,-10189.070123
913.867538,6217.729913,3701.029710,-11108.384721
913.867858,6439.791695,3701.029710,-10801.946522
913.868178,5033.400406,4441.235652,-10418.898773
913.868498,2516.700203,3997.112087,-10878.556072
913.868818,1998.556043,2664.741391,-9806.022374
913.869138,1480.411884,1480.411884,-11797.870669
913.869458,962.267725,-1258.350101,-10035.851024
913.869778,296.082377,-2664.741391,-9729.412825
913.870098,-1480.411884,-2368.659014,-9729.412825
913.870418,-962.267725,-1332.370696,-9346.365076
913.870738,-444.123565,1184.329507,-9422.974625
913.871058,2294.638420,2960.823768,-10648.727422
913.871378,5551.544565,2886.803174,-10648.727422
913.871698,5699.585753,1998.556043,-9806.022374
913.872018,4959.379811,1184.329507,-10648.727422
913.872338,3849.070898,1258.350101,-10648.727422
913.872658,3923.091493,1998.556043,-9652.803275
913.872978,1702.473667,2886.803174,-11108.384721
913.873298,-222.061783,1850.514855,-10265.679673
913.873618,-2368.659014,962.267725,-9576.193725
913.873938,-4071.132681,-444.123565,-10572.117872
913.874258,-2368.659014,-1998.556043,-9039.926876
913.874578,74.020594,-1554.432478,-9499.584175
913.874898,2664.741391,-444.123565,-10725.336972
913.875218,4145.153275,592.164754,-9806.022374
913.875538,2368.659014,1406.391290,-10418.898773
913.875858,1036.288319,2738.761985,-10418.898773
913.876178,2072.576638,3256.906145,-9806.022374
913.876498,2516.700203,3478.967927,-10725.336972
913.876818,1628.453072,1850.514855,-10342.289223
913.877138,-518.144159,-296.082377,-9729.412825
913.877458,-2886.803174,-2072.576638,-10189.070123
913.877778,-2368.659014,-3108.864956,-9039.926876
913.878098,-3182.885551,-1850.514855,-9806.022374
913.878418,-3478.967927,-370.102971,-10572.117872
913.878738,-2442.679609,444.123565,-9193.145976
913.879058,-2590.720797,1554.432478,-9652.803275
913.879378,296.082377,1776.494261,-9806.022374
913.879698,2442.679609,1406.391290,-9652.803275
913.880018,3923.091493,1332.370696,-11721.261119
913.880338,4219.173869,740.205942,-9422.974625
913.880658,0.000000,1184.329507,-9806.022374
913.880978,-592.164754,1998.556043,-10648.727422
913.881298,962.267725,2442.679609,-9729.412825
913.881618,666.185348,2590.720797,-11261.603821
913.881938,-814.226536,2442.679609,-10801.946522
913.882258,-4071.132681,74.020594,-9806.022374
913.882578,-3775.050304,-2442.679609,-10418.898773
913.882898,-888.247130,-3108.864956,-9422.974625
913.883218,740.205942,-962.267725,-9576.193725
913.883538,1110.308913,1406.391290,-10572.117872
913.883858,1628.453072,3108.864956,-9806.022374
913.884178,2960.823768,3182.885551,-11338.213370
913.884498,2812.782580,2294.638420,-10035.851024
913.884818,2664.741391,814.226536,-9959.241474
913.885138,1554.432478,74.020594,-11108.384721
913.885458,518.144159,148.041188,-9576.193725
913.885778,-888.247130,1036.288319,-10342.289223
913.886098,-444.123565,592.164754,-10725.336972
913.886418,444.123565,-740.205942,-9499.584175
913.886738,0.000000,-2294.638420,-10495.508323
913.887058,-814.226536,-2146.597232,-8580.269578
913.887378,0.000000,74.020594,-10112.460574
913.887698,3552.988522,1332.370696,-10342.289223
913.888018,4885.359217,2294.638420,-9499.584175
913.888338,2886.803174,2590.720797,-10495.508323
913.888658,1924.535449,1258.350101,-9882.631924
913.888978,2368.659014,370.102971,-9499.584175
913.889298,3182.885551,-370.102971,-11338.213370
913.889618,2368.659014,-370.102971,-9346.365076
913.889938,-296.082377,444.123565,-10725.336972
913.890258,-1924.535449,-666.185348,-9806.022374
913.890578,-1924.535449,-370.102971,-9193.145976
913.890898,74.020594,0.000000,-10342.289223
913.891219,3701.029710,370.102971,-10112.460574
913.891539,4811.338623,1258.350101,-10725.336972
913.891859,5403.503377,1110.308913,-10955.165621
913.892179,5847.626942,1184.329507,-9806.022374
913.892499,2738.761985,740.205942,-11491.432470
913.892819,-1036.288319,666.185348,-10189.070123
913.893139,-3404.947333,1554.432478,-9882.631924
913.893459,-2442.679609,1776.494261,-10648.727422
913.893779,-1924.535449,1554.432478,-10035.851024
913.894099,-2738.761985,-148.041188,-10342.289223
913.894419,-2220.617826,-2146.597232,-10418.898773
913.894739,-592.164754,-3108.864956,-8503.660028
913.895059,-2368.659014,-1702.473667,-9806.022374
913.895379,-4071.132681,74.020594,-9499.584175
913.895699,-3627.009116,2516.700203,-9422.974625
913.896019,296.082377,3627.009116,-10342.289223
913.896339,3775.050304,2146.597232,-9269.755526
913.896659,3256.906145,148.041188,-10265.679673
913.896979,1480.411884,-740.205942,-9806.022374
913.897299,-740.205942,-962.267725,-9269.755526
913.897619,-1110.308913,0.000000,-10189.070123
913.897939,-1850.514855,814.226536,-9806.022374
913.898259,-3330.926739,444.123565,-9346.365076
913.898579,-4737.318029,222.061783,-9806.022374
913.898899,-3108.864956,370.102971,-9576.193725
913.899219,-370.102971,592.164754,-10495.508323
913.899539,1924.535449,0.000000,-10342.289223
913.899859,3775.050304,666.185348,-10495.508323
913.900179,4515.256246,592.164754,-10878.556072
913.900499,3775.050304,888.247130,-9882.631924
913.900819,2516.700203,1110.308913,-10572.117872
913.901139,1406.391290,814.226536,-10265.679673
913.901459,666.185348,1480.411884,-10189.070123
913.901779,444.123565,1184.329507,-10495.508323
913.902099,888.247130,518.144159,-9882.631924
913.902419,1332.370696,0.000000,-10418.898773
913.902739,1924.535449,-2072.576638,-10112.460574
913.903059,2442.679609,-1924.535449,-9882.631924
913.903379,2146.597232,-592.164754,-10801.946522
913.903699,740.205942,-592.164754,-9882.631924
913.904019,-444.123565,-148.041188,-9729.412825
913.904339,1184.329507,0.000000,-10418.898773
913.904659,3478.967927,1850.514855,-9959.241474
913.904979,4441.235652,1406.391290,-10878.556072
913.905299,4145.153275,2072.576638,-10648.727422
913.905619,1776.494261,1702.473667,-9806.022374
913.905939,666.185348,666.185348,-10189.070123
913.906259,1998.556043,-2146.597232,-9652.803275
913.906579,888.247130,-4071.132681,-9652.803275
913.906899,-814.226536,-3108.864956,-9729.412825
913.907219,-1998.556043,-740.205942,-9346.365076
913.907539,222.061783,2146.597232,-10265.679673
913.907859,2220.617826,2886.803174,-9729.412825
913.908179,2960.823768,2442.679609,-10648.727422
913.908499,2590.720797,666.185348,-10801.946522
913.908819,1554.432478,-1628.453072,-9346.365076
913.909139,-888.247130,-1332.370696,-9806.022374
913.909459,-1702.473667,-962.267725,-9652.803275
913.909779,-2516.700203,-518.144159,-9806.022374
913.910099,-2516.700203,-1258.350101,-10342.289223
913.910419,-4145.153275,-1406.391290,-9039.926876
913.910739,-3108.864956,-296.082377,-10801.946522
913.911059,-1184.329507,444.123565,-9959.241474
913.911379,0.000000,518.144159,-10189.070123
913.911699,-518.144159,370.102971,-10189.070123
913.912019,-2220.617826,0.000000,-9806.022374
913.912339,-2072.576638,74.020594,-10035.851024
913.912659,-148.041188,-370.102971,-10265.679673
913.912979,962.267725,740.205942,-9959.241474
913.913299,74.020594,1776.494261,-10572.117872
913.913619,370.102971,2146.597232,-10342.289223
913.913939,-518.144159,1406.391290,-10342.289223
913.914259,-2294.638420,222.061783,-10572.117872
913.914579,-1628.453072,74.020594,-9576.193725
913.914899,-1776.494261,74.020594,-10035.851024
913.915219,-444.123565,518.144159,-10495.508323
913.915539,0.000000,518.144159,-9959.241474
913.915859,148.041188,888.247130,-10265.679673
913.916179,1480.411884,740.205942,-9576.193725
913.916500,1998.556043,1258.350101,-10112.460574
913.916820,2442.679609,2072.576638,-10648.727422
913.917140,2664.741391,2516.700203,-9882.631924
913.917460,2738.761985,2812.782580,-10725.336972
913.917780,3034.844362,1258.350101,-9959.241474
913.918100,444.123565,296.082377,-9346.365076
913.918420,-370.102971,-1480.411884,-10112.460574
913.918740,296.082377,-2368.659014,-9039.926876
913.919060,148.041188,-2072.576638,-10265.679673
913.919380,1332.370696,-740.205942,-9806.022374
913.919699,2146.597232,740.205942,-9806.022374
913.920019,3552.988522,2590.720797,-11721.261119
913.920339,3775.050304,2812.782580,-10801.946522
913.920659,1258.350101,3701.029710,-10418.898773
913.920979,888.247130,2738.761985,-10572.117872
913.921299,3775.050304,1332.370696,-9422.974625
913.921619,5403.503377,0.000000,-11338.213370
913.921939,2442.679609,-1036.288319,-11031.775171
913.922259,-592.164754,-1184.329507,-9806.022374
913.922579,-1480.411884,-740.205942,-10189.070123
913.922899,2516.700203,814.226536,-9959.241474
913.923219,1702.473667,1406.391290,-10801.946522
913.923539,444.123565,1332.370696,-11184.994271
913.923859,-888.247130,-296.082377,-8963.317327
913.924178,-592.164754,-888.247130,-10342.289223
913.924498,2072.576638,-2442.679609,-9652.803275
913.924818,2738.761985,-1332.370696,-9806.022374
913.925138,3256.906145,148.041188,-10189.070123
913.925458,2294.638420,2220.617826,-9729.412825
913.925778,296.082377,3404.947333,-10418.898773
913.926098,-666.185348,1850.514855,-10648.727422
913.926418,-1480.411884,-1776.494261,-8886.707777
913.926738,-1776.494261,-2886.803174,-10572.117872
913.927058,-2368.659014,-2886.803174,-9193.145976
913.927378,-2812.782580,-1924.535449,-9576.193725
913.927698,-1850.514855,-592.164754,-9806.022374
913.928018,-518.144159,222.061783,-10265.679673
913.928338,370.102971,-518.144159,-10572.117872
913.928657,444.123565,-518.144159,-9806.022374
913.928977,-888.247130,518.144159,-9806.022374
913.929297,-370.102971,1702.473667,-10725.336972
913.929617,666.185348,2442.679609,-10495.508323
913.929937,1480.411884,1406.391290,-10878.556072
913.930257,-666.185348,-1036.288319,-9729.412825
913.930577,-3923.091493,-2294.638420,-9652.803275
913.930897,-4367.215058,-2442.679609,-10035.851024
913.931217,-1628.453072,-1036.288319,-10265.679673
913.931537,-370.102971,666.185348,-10955.165621
913.931857,-2146.597232,1036.288319,-10342.289223
913.932177,-4737.318029,666.185348,-9346.365076
913.932497,-3034.844362,444.123565,-10648.727422
913.932817,740.205942,222.061783,-9499.584175
913.933136,4441.235652,-518.144159,-10418.898773
913.933456,5403.503377,-222.061783,-11031.775171
913.933776,4737.318029,-666.185348,-9729.412825
913.934096,2220.617826,-222.061783,-10418.898773
913.934416,1332.370696,0.000000,-10265.679673
913.934736,-370.102971,222.061783,-9039.926876
913.935056,-592.164754,-666.185348,-10189.070123
913.935376,-2146.597232,-740.205942,-9346.365076
913.935696,-2220.617826,-444.123565,-9729.412825
913.936016,222.061783,-1258.350101,-9806.022374
913.936336,2886.803174,-1998.556043,-9269.755526
913.936656,4663.297435,-2294.638420,-10342.289223
913.936976,4589.276840,-1702.473667,-9652.803275
913.937296,2960.823768,1258.350101,-10112.460574
913.937615,2590.720797,2664.741391,-10189.070123
913.937935,2738.761985,2368.659014,-9806.022374
913.938255,2664.741391,1406.391290,-11108.384721
913.938575,2072.576638,296.082377,-9806.022374
913.938895,296.082377,-518.144159,-10265.679673
913.939215,-518.144159,-518.144159,-10572.117872
913.939535,666.185348,-666.185348,-9652.803275
913.939855,2146.597232,148.041188,-11108.384721
913.940175,3182.885551,1850.514855,-10955.165621
913.940495,518.144159,3182.885551,-10495.508323
913.940815,0.000000,3775.050304,-11108.384721
913.941135,2072.576638,3775.050304,-10418.898773
913.941455,3478.967927,2886.803174,-10801.946522
913.941775,3034.844362,370.102971,-10955.165621
913.942094,888.247130,-1406.391290,-9422.974625
913.942414,-1036.288319,-1480.411884,-10112.460574
913.942734,592.164754,0.000000,-9499.584175
913.943054,296.082377,1554.432478,-9959.241474
913.943374,-1702.473667,814.226536,-10418.898773
913.943694,-3701.029710,74.020594,-8427.050478
913.944014,-3775.050304,74.020594,-9729.412825
913.944334,0.000000,-814.226536,-9269.755526
913.944654,1776.494261,0.000000,-9039.926876
913.944974,3108.864956,-222.061783,-10035.851024
913.945294,1554.432478,888.247130,-9806.022374
913.945614,-1036.288319,1998.556043,-9269.755526
913.945934,-2146.597232,2072.576638,-9882.631924
