#time,accel_x,accel_y,accel_z
930.445786,592.164754,296.082377,-10112.460574
930.446106,888.247130,0.000000,-10342.289223
930.446426,444.123565,296.082377,-10342.289223
930.446747,666.185348,0.000000,-10572.117872
930.447067,518.144159,518.144159,-9806.022374
930.447387,370.102971,444.123565,-10112.460574
930.447707,370.102971,444.123565,-10189.070123
930.448027,518.144159,74.020594,-9882.631924
930.448348,888.247130,74.020594,-9959.241474
930.448668,666.185348,-148.041188,-9882.631924
930.448988,592.164754,148.041188,-10189.070123
930.449308,962.267725,296.082377,-10112.460574
930.449628,1036.288319,592.164754,-10265.679673
930.449948,1110.308913,444.123565,-10035.851024
930.450269,370.102971,148.041188,-10418.898773
930.450589,-296.082377,-296.082377,-9806.022374
930.450909,-148.041188,0.000000,-9729.412825
930.451229,518.144159,0.000000,-10112.460574
930.451549,222.061783,296.082377,-10189.070123
930.451870,-518.144159,296.082377,-10112.460574
930.452190,0.000000,222.061783,-10035.851024
930.452510,1110.308913,592.164754,-10342.289223
930.452830,1258.350101,370.102971,-10342.289223
930.453150,222.061783,0.000000,-10189.070123
930.453471,-222.061783,-370.102971,-9959.241474
930.453791,296.082377,-666.185348,-9806.022374
930.454111,592.164754,-592.164754,-9959.241474
930.454431,-592.164754,-592.164754,-9882.631924
930.454751,-962.267725,-518.144159,-10112.460574
930.455071,-444.123565,-444.123565,-10112.460574
930.455392,-962.267725,-148.041188,-9959.241474
930.455712,-666.185348,-148.041188,-10035.851024
930.456032,-518.144159,-814.226536,-9806.022374
930.456352,74.020594,-814.226536,-10342.289223
930.456672,0.000000,-1036.288319,-9882.631924
930.456993,-888.247130,-1406.391290,-9959.241474
930.457313,-1036.288319,-1702.473667,-9806.022374
930.457633,-666.185348,-2072.576638,-9729.412825
930.457953,-592.164754,-1850.514855,-10035.851024
930.458273,-1628.453072,-1998.556043,-9959.241474
930.458594,-2294.638420,-2146.597232,-9806.022374
930.458914,-1258.350101,-2368.659014,-9806.022374
930.459234,-518.144159,-1332.370696,-9959.241474
930.459554,-740.205942,-1258.350101,-9882.631924
930.459874,-1628.453072,-1184.329507,-9806.022374
930.460194,-1036.288319,-1554.432478,-9959.241474
930.460515,0.000000,-1406.391290,-10265.679673
930.460835,-222.061783,-1110.308913,-10189.070123
930.461155,-1702.473667,-1480.411884,-10265.679673
930.461475,-2738.761985,-2590.720797,-10035.851024
930.461795,-2960.823768,-3034.844362,-9882.631924
930.462116,-2590.720797,-2590.720797,-10418.898773
930.462436,-2442.679609,-2294.638420,-11031.775171
930.462756,-2738.761985,-2442.679609,-10112.460574
930.463076,-2220.617826,-2442.679609,-10035.851024
930.463396,-518.144159,-2146.597232,-10112.460574
930.463716,1110.308913,-1628.453072,-10418.898773
930.464037,296.082377,-1184.329507,-10342.289223
930.464357,-888.247130,-740.205942,-10572.117872
930.464677,-2072.576638,-962.267725,-10265.679673
930.464997,-3256.906145,-1702.473667,-10265.679673
930.465317,-4071.132681,-3330.926739,-9959.241474
930.465638,-5625.565159,-4219.173869,-9806.022374
930.465958,-4737.318029,-5107.421000,-9576.193725
930.466278,-2812.782580,-5181.441594,-9422.974625
930.466598,-370.102971,-4071.132681,-9729.412825
930.466918,740.205942,-2072.576638,-10265.679673
930.467239,1184.329507,222.061783,-10035.851024
930.467559,2146.597232,1850.514855,-10265.679673
930.467879,2664.741391,2072.576638,-10495.508323
930.468199,2516.700203,962.267725,-11414.822920
930.468519,296.082377,-1036.288319,-10112.460574
930.468839,-2146.597232,-3108.864956,-9959.241474
930.469160,-4145.153275,-3849.070898,-9806.022374
930.469480,-5551.544565,-4145.153275,-9422.974625
930.469800,-5773.606348,-4515.256246,-9806.022374
930.470120,-4219.173869,-5033.400406,-9269.755526
930.470440,-1332.370696,-4811.338623,-9652.803275
930.470761,1184.329507,-3182.885551,-9882.631924
930.471081,2368.659014,-518.144159,-10189.070123
930.471401,3923.091493,2294.638420,-10265.679673
930.471721,4737.318029,3923.091493,-11184.994271
930.472041,3923.091493,3997.112087,-11491.432470
930.472362,296.082377,1628.453072,-10878.556072
930.472682,-3997.112087,-1628.453072,-10112.460574
930.473002,-6069.688724,-4219.173869,-9806.022374
930.473322,-6143.709319,-6513.812290,-9729.412825
930.473642,-5181.441594,-6809.894666,-9346.365076
930.473962,-4515.256246,-5773.606348,-9652.803275
930.474283,-3034.844362,-4145.153275,-9422.974625
930.474603,296.082377,-962.267725,-9806.022374
930.474923,2442.679609,1924.535449,-10725.336972
930.475243,2516.700203,3775.050304,-10648.727422
930.475563,2664.741391,2812.782580,-10342.289223
930.475884,2664.741391,1480.411884,-10495.508323
930.476204,1406.391290,0.000000,-10342.289223
930.476524,-1628.453072,-1850.514855,-10112.460574
930.476844,-3923.091493,-2516.700203,-9346.365076
930.477164,-5255.462188,-3478.967927,-9346.365076
930.477485,-6513.812290,-4515.256246,-9346.365076
930.477805,-7254.018232,-5995.668130,-8886.707777
930.478125,-5995.668130,-7105.977043,-7507.735880
930.478445,-2294.638420,-5699.585753,-8733.488677
930.478765,1406.391290,-2368.659014,-10035.851024
930.479085,3627.009116,1480.411884,-10495.508323
930.479406,2516.700203,4145.153275,-10725.336972
930.479726,1480.411884,4589.276840,-10418.898773
930.480046,1258.350101,3108.864956,-10955.165621
930.480366,1332.370696,0.000000,-10572.117872
930.480686,-592.164754,-2590.720797,-10955.165621
930.481007,-3849.070898,-4367.215058,-10342.289223
930.481327,-6957.935855,-4515.256246,-10189.070123
930.481647,-8882.471304,-4219.173869,-9729.412825
930.481967,-8364.327145,-3701.029710,-9346.365076
930.482287,-5181.441594,-4071.132681,-9116.536426
930.482607,-888.247130,-4367.215058,-9959.241474
930.482928,2220.617826,-3108.864956,-10725.336972
930.483248,3997.112087,-1480.411884,-10725.336972
930.483568,4367.215058,740.205942,-10801.946522
930.483888,4515.256246,2294.638420,-10955.165621
930.484208,3701.029710,3552.988522,-11031.775171
930.484529,814.226536,2294.638420,-11184.994271
930.484849,-3108.864956,-296.082377,-10725.336972
930.485169,-5847.626942,-4589.276840,-9959.241474
930.485489,-6587.832884,-7920.203579,-9806.022374
930.485809,-5847.626942,-9474.636058,-8810.098227
930.486130,-5477.523971,-8808.450710,-8963.317327
930.486450,-4885.359217,-6957.935855,-9116.536426
930.486770,-2368.659014,-4737.318029,-9193.145976
930.487090,592.164754,-1628.453072,-10035.851024
930.487410,4589.276840,1110.308913,-10265.679673
930.487730,5921.647536,2220.617826,-10955.165621
930.488051,2886.803174,2294.638420,-10878.556072
930.488371,-370.102971,666.185348,-10572.117872
930.488691,-1850.514855,-666.185348,-10035.851024
930.489011,-3182.885551,-2442.679609,-9959.241474
930.489331,-3775.050304,-4367.215058,-9882.631924
930.489652,-6439.791695,-6513.812290,-9652.803275
930.489972,-7254.018232,-7624.121203,-9116.536426
930.490292,-5403.503377,-6883.915261,-9346.365076
930.490612,-1554.432478,-4737.318029,-10035.851024
930.490932,-222.061783,-1628.453072,-9882.631924
930.491253,-1628.453072,1110.308913,-10342.289223
930.491573,-518.144159,2960.823768,-10342.289223
930.491893,3330.926739,2664.741391,-10878.556072
930.492213,5329.482782,1110.308913,-11338.213370
930.492533,3330.926739,-962.267725,-11031.775171
930.492853,-148.041188,-2368.659014,-10418.898773
930.493174,-3182.885551,-3775.050304,-10648.727422
930.493494,-4737.318029,-3404.947333,-9806.022374
930.493814,-6143.709319,-3478.967927,-9729.412825
930.494134,-7105.977043,-2960.823768,-9576.193725
930.494454,-4663.297435,-3552.988522,-9652.803275
930.494775,-1480.411884,-3330.926739,-10112.460574
930.495095,1036.288319,-2664.741391,-9499.584175
930.495415,3478.967927,-1554.432478,-10112.460574
930.495735,4737.318029,518.144159,-10648.727422
930.496055,3478.967927,1258.350101,-10265.679673
930.496376,1110.308913,2146.597232,-10189.070123
930.496696,74.020594,0.000000,-9806.022374
930.497016,0.000000,-814.226536,-10189.070123
930.497336,-1332.370696,-1628.453072,-9729.412825
930.497656,-3775.050304,-3997.112087,-9576.193725
930.497976,-4811.338623,-3330.926739,-9269.755526
930.498297,-6291.750507,-4589.276840,-9652.803275
930.498617,-5403.503377,-3923.091493,-8886.707777
930.498937,-2516.700203,-3182.885551,-9193.145976
930.499257,-888.247130,-2812.782580,-9806.022374
930.499577,1258.350101,-2368.659014,-9959.241474
930.499898,2590.720797,0.000000,-10265.679673
930.500218,2960.823768,2590.720797,-10878.556072
930.500538,1998.556043,4515.256246,-10801.946522
930.500858,888.247130,3627.009116,-11108.384721
930.501178,74.020594,-962.267725,-10418.898773
930.501498,-1184.329507,-3997.112087,-9729.412825
930.501818,-3775.050304,-7550.100608,-9882.631924
930.502138,-5847.626942,-6809.894666,-9269.755526
930.502459,-5625.565159,-4737.318029,-9499.584175
930.502779,-6069.688724,-2664.741391,-9576.193725
930.503099,-3478.967927,-592.164754,-10035.851024
930.503419,-296.082377,148.041188,-10495.508323
930.503739,2886.803174,0.000000,-10112.460574
930.504059,3256.906145,-666.185348,-10955.165621
930.504379,2812.782580,370.102971,-10572.117872
930.504699,1332.370696,296.082377,-10342.289223
930.505019,-444.123565,0.000000,-10189.070123
930.505339,-74.020594,-1924.535449,-10265.679673
930.505659,-1480.411884,-2886.803174,-10265.679673
930.505980,-2294.638420,-4293.194464,-10189.070123
930.506300,-4441.235652,-4071.132681,-9576.193725
930.506620,-4589.276840,-4811.338623,-8733.488677
930.506940,-2738.761985,-3552.988522,-9806.022374
930.507260,-2442.679609,-1702.473667,-9806.022374
930.507580,-1258.350101,-962.267725,-9806.022374
930.507900,1406.391290,-1110.308913,-10418.898773
930.508220,1110.308913,-814.226536,-10572.117872
930.508540,1850.514855,-1702.473667,-10418.898773
930.508860,666.185348,-1184.329507,-10189.070123
930.509181,666.185348,-2072.576638,-10035.851024
930.509501,-1554.432478,-3552.988522,-10189.070123
930.509821,-3701.029710,-2516.700203,-9806.022374
930.510141,-5921.647536,-2812.782580,-10189.070123
930.510461,-6291.750507,-4071.132681,-9959.241474
930.510781,-2812.782580,-2664.741391,-9422.974625
930.511101,-1554.432478,-3034.844362,-10342.289223
930.511421,-1776.494261,-3701.029710,-10189.070123
930.511741,-2886.803174,-3330.926739,-9959.241474
930.512061,-3256.906145,-2516.700203,-10035.851024
930.512381,-2368.659014,-148.041188,-9652.803275
930.512702,-222.061783,2442.679609,-10955.165621
930.513022,2590.720797,888.247130,-10878.556072
930.513342,2812.782580,-1554.432478,-10801.946522
930.513662,1036.288319,-2294.638420,-10035.851024
930.513982,-2368.659014,-2590.720797,-10572.117872
930.514302,-4219.173869,-1998.556043,-9806.022374
930.514622,-4219.173869,-370.102971,-10189.070123
930.514942,-3256.906145,-148.041188,-10418.898773
930.515262,-2738.761985,-1924.535449,-9806.022374
930.515582,-3256.906145,-2960.823768,-10112.460574
930.515902,-1924.535449,-4145.153275,-9652.803275
930.516223,2294.638420,-4219.173869,-9576.193725
930.516543,4589.276840,222.061783,-10112.460574
930.516863,2664.741391,2442.679609,-10725.336972
930.517183,740.205942,1110.308913,-10342.289223
930.517503,-222.061783,1036.288319,-10112.460574
930.517823,814.226536,-1628.453072,-9882.631924
930.518143,444.123565,-3108.864956,-9729.412825
930.518463,-444.123565,-1480.411884,-9959.241474
930.518783,-740.205942,-3849.070898,-9193.145976
930.519103,370.102971,-2442.679609,-9499.584175
930.519424,1998.556043,74.020594,-10112.460574
930.519744,1702.473667,592.164754,-10725.336972
930.520064,1332.370696,1258.350101,-9806.022374
930.520384,1332.370696,1480.411884,-9959.241474
930.520704,2664.741391,2590.720797,-10112.460574
930.521024,1702.473667,1406.391290,-10955.165621
930.521344,2442.679609,0.000000,-10725.336972
930.521664,3034.844362,-2072.576638,-10035.851024
930.521984,1850.514855,-666.185348,-10648.727422
930.522304,-2812.782580,-222.061783,-10035.851024
930.522624,888.247130,-444.123565,-9959.241474
930.522945,1628.453072,-296.082377,-10112.460574
930.523265,592.164754,-296.082377,-9806.022374
930.523585,962.267725,222.061783,-10418.898773
930.523905,1998.556043,-1258.350101,-10418.898773
930.524225,2516.700203,-666.185348,-9499.584175
930.524545,3404.947333,592.164754,-10955.165621
930.524865,1628.453072,2368.659014,-10189.070123
930.525185,370.102971,3849.070898,-9499.584175
930.525505,-1036.288319,5255.462188,-11184.994271
930.525825,0.000000,2960.823768,-10265.679673
930.526146,814.226536,-2368.659014,-10342.289223
930.526466,-814.226536,-3627.009116,-9346.365076
930.526786,-3034.844362,-3404.947333,-8886.707777
930.527106,-2368.659014,-1184.329507,-10265.679673
930.527426,-370.102971,1258.350101,-9346.365076
930.527746,296.082377,2516.700203,-10495.508323
930.528066,-1184.329507,2368.659014,-10265.679673
930.528386,-1998.556043,888.247130,-9806.022374
930.528706,-962.267725,1184.329507,-10418.898773
930.529026,888.247130,1480.411884,-10342.289223
930.529346,0.000000,3923.091493,-11414.822920
930.529667,-2294.638420,3404.947333,-10342.289223
930.529987,-2812.782580,1554.432478,-10112.460574
930.530307,-1258.350101,-888.247130,-10342.289223
930.530627,-2072.576638,-1924.535449,-9806.022374
930.530947,-1850.514855,-1924.535449,-10495.508323
930.531267,-2368.659014,-1110.308913,-9422.974625
930.531587,-1628.453072,0.000000,-9882.631924
930.531907,-1036.288319,0.000000,-9882.631924
930.532227,740.205942,-740.205942,-9346.365076
930.532547,1628.453072,148.041188,-10648.727422
930.532868,1110.308913,2368.659014,-10112.460574
930.533188,1406.391290,2516.700203,-10648.727422
930.533508,2220.617826,1998.556043,-10035.851024
930.533828,3478.967927,666.185348,-9269.755526
930.534148,2442.679609,740.205942,-10112.460574
930.534468,0.000000,-962.267725,-10035.851024
930.534788,-148.041188,-1924.535449,-9652.803275
930.535108,-444.123565,-2368.659014,-9269.755526
930.535428,888.247130,-962.267725,-9652.803275
930.535748,1554.432478,-1776.494261,-9422.974625
930.536068,2738.761985,-1110.308913,-9652.803275
930.536389,3034.844362,666.185348,-9806.022374
930.536709,4145.153275,2368.659014,-10112.460574
930.537029,5847.626942,2886.803174,-10265.679673
930.537349,4071.132681,3404.947333,-10572.117872
930.537669,3330.926739,-222.061783,-9729.412825
930.537989,1554.432478,-1850.514855,-9806.022374
930.538309,1924.535449,-2368.659014,-9652.803275
930.538629,1036.288319,-1480.411884,-9959.241474
930.538949,296.082377,-518.144159,-10725.336972
930.539269,-888.247130,370.102971,-10495.508323
930.539590,-740.205942,666.185348,-10342.289223
930.539910,1110.308913,0.000000,-9806.022374
930.540230,2146.597232,-1036.288319,-10725.336972
930.540550,1998.556043,-370.102971,-10878.556072
930.540870,740.205942,-814.226536,-9576.193725
930.541190,-1184.329507,666.185348,-10955.165621
930.541510,1036.288319,1480.411884,-10495.508323
930.541830,2368.659014,1850.514855,-11261.603821
930.542150,3108.864956,2368.659014,-11414.822920
930.542470,-962.267725,-222.061783,-10265.679673
930.542790,-4219.173869,-1406.391290,-10801.946522
930.543111,-4959.379811,-3849.070898,-8810.098227
930.543431,-2886.803174,-4293.194464,-9806.022374
930.543751,-2442.679609,-2146.597232,-9576.193725
930.544071,-1036.288319,-518.144159,-9729.412825
930.544391,0.000000,222.061783,-10801.946522
930.544711,666.185348,1110.308913,-9806.022374
930.545031,0.000000,2368.659014,-10342.289223
930.545351,-740.205942,1776.494261,-9806.022374
930.545671,740.205942,1554.432478,-9576.193725
930.545991,1406.391290,1480.411884,-9806.022374
930.546311,1110.308913,518.144159,-10342.289223
930.546632,-666.185348,-2442.679609,-9576.193725
930.546952,-2960.823768,-2220.617826,-9806.022374
930.547272,-3627.009116,-1628.453072,-9346.365076
930.547592,-2368.659014,-592.164754,-9806.022374
930.547912,296.082377,0.000000,-9806.022374
930.548232,2368.659014,592.164754,-11031.775171
930.548552,1628.453072,222.061783,-10418.898773
930.548872,592.164754,1406.391290,-10418.898773
930.549192,1628.453072,2368.659014,-10112.460574
930.549512,2738.761985,2294.638420,-10418.898773
930.549833,2886.803174,2442.679609,-10801.946522
930.550153,1332.370696,1406.391290,-10342.289223
930.550473,-1110.308913,-296.082377,-9806.022374
930.550793,-1924.535449,-222.061783,-9576.193725
930.551113,1258.350101,-888.247130,-9576.193725
930.551433,3404.947333,-444.123565,-10725.336972
930.551753,740.205942,0.000000,-9882.631924
930.552073,-592.164754,518.144159,-10035.851024
930.552393,1184.329507,370.102971,-9576.193725
930.552713,4367.215058,1110.308913,-10265.679673
930.553033,5477.523971,1924.535449,-10418.898773
930.553354,3923.091493,3701.029710,-10725.336972
930.553674,2368.659014,3627.009116,-10878.556072
930.553994,2368.659014,1998.556043,-10112.460574
930.554314,3997.112087,1036.288319,-9806.022374
930.554634,2368.659014,814.226536,-10035.851024
930.554954,444.123565,0.000000,-8810.098227
930.555274,-1628.453072,-1554.432478,-9806.022374
930.555594,-2072.576638,-2738.761985,-9116.536426
930.555914,370.102971,-2220.617826,-8810.098227
930.556234,2442.679609,-2738.761985,-9882.631924
930.556555,3552.988522,-888.247130,-9576.193725
930.556875,592.164754,2220.617826,-10265.679673
930.557195,-222.061783,5477.523971,-10878.556072
930.557515,-222.061783,6735.874072,-11261.603821
930.557835,-1110.308913,5329.482782,-10801.946522
930.558155,-3034.844362,0.000000,-10265.679673
930.558475,-888.247130,-3108.864956,-9346.365076
930.558795,-296.082377,-3627.009116,-9652.803275
930.559115,814.226536,-2146.597232,-9959.241474
930.559435,-1110.308913,-518.144159,-10265.679673
930.559755,-592.164754,814.226536,-10495.508323
930.560076,-1702.473667,1406.391290,-10035.851024
930.560396,-1110.308913,3108.864956,-10265.679673
930.560716,-1036.288319,5625.565159,-10878.556072
930.561036,-1554.432478,5255.462188,-10572.117872
930.561356,2220.617826,2368.659014,-10648.727422
930.561676,4811.338623,-2516.700203,-9576.193725
930.561996,5329.482782,-3404.947333,-9499.584175
930.562316,1480.411884,-1406.391290,-10035.851024
930.562636,-1702.473667,1554.432478,-10648.727422
930.562956,-3330.926739,3849.070898,-9806.022374
930.563277,-4515.256246,4219.173869,-10648.727422
930.563597,-2738.761985,0.000000,-8886.707777
930.563917,-1480.411884,-3997.112087,-9346.365076
930.564237,-370.102971,-3775.050304,-9346.365076
930.564557,1554.432478,-2220.617826,-10035.851024
930.564877,4071.132681,-518.144159,-10495.508323
930.565197,3552.988522,962.267725,-8886.707777
930.565517,1554.432478,2146.597232,-10112.460574
930.565837,1036.288319,2664.741391,-9959.241474
930.566157,814.226536,2368.659014,-10648.727422
930.566477,592.164754,740.205942,-11644.651570
930.566798,-222.061783,-1776.494261,-9652.803275
930.567118,370.102971,-2590.720797,-9882.631924
930.567438,2664.741391,-2738.761985,-9652.803275
930.567758,1850.514855,-1628.453072,-10189.070123
930.568078,0.000000,-1406.391290,-10572.117872
930.568398,296.082377,1258.350101,-10265.679673
930.568718,962.267725,3256.906145,-10955.165621
930.569038,1332.370696,2738.761985,-10112.460574
930.569358,3330.926739,444.123565,-9346.365076
930.569678,2812.782580,0.000000,-10418.898773
930.569998,6291.750507,-444.123565,-10265.679673
930.570319,3182.885551,-1554.432478,-11797.870669
930.570639,2368.659014,74.020594,-9882.631924
930.570959,-1036.288319,518.144159,-10648.727422
930.571279,-1406.391290,0.000000,-10189.070123
930.571599,-962.267725,222.061783,-10035.851024
930.571919,-3182.885551,888.247130,-10418.898773
930.572239,-1850.514855,444.123565,-9729.412825
930.572559,888.247130,1184.329507,-11261.603821
930.572879,2886.803174,740.205942,-10342.289223
930.573199,1850.514855,-370.102971,-9806.022374
930.573520,1332.370696,-1776.494261,-10495.508323
930.573840,0.000000,-1924.535449,-8886.707777
930.574160,-1184.329507,-962.267725,-10495.508323
930.574480,-1258.350101,1258.350101,-9652.803275
930.574800,-1924.535449,2664.741391,-10342.289223
930.575120,-1258.350101,2220.617826,-10725.336972
930.575440,-1184.329507,148.041188,-9422.974625
930.575760,-962.267725,-1702.473667,-10189.070123
930.576080,-962.267725,-3404.947333,-9346.365076
930.576400,-296.082377,-1554.432478,-9806.022374
930.576720,-1332.370696,888.247130,-9729.412825
930.577041,-1480.411884,1406.391290,-9346.365076
930.577361,592.164754,2664.741391,-10112.460574
930.577681,2146.597232,4441.235652,-10572.117872
930.578001,2960.823768,3552.988522,-10418.898773
930.578321,1850.514855,2738.761985,-10495.508323
930.578641,0.000000,740.205942,-10112.460574
930.578961,-888.247130,-740.205942,-9729.412825
930.579281,-2368.659014,-666.185348,-9499.584175
930.579601,-1924.535449,-1110.308913,-9959.241474
930.579921,-1036.288319,-1258.350101,-8656.879127
930.580242,592.164754,-1110.308913,-9959.241474
930.580562,1480.411884,1036.288319,-10112.460574
930.580882,1924.535449,2960.823768,-10418.898773
930.581202,2664.741391,3256.906145,-11184.994271
930.581522,4959.379811,3256.906145,-10418.898773
930.581842,4441.235652,2516.700203,-10878.556072
930.582162,3256.906145,1406.391290,-10878.556072
930.582482,2146.597232,370.102971,-9652.803275
930.582802,1110.308913,-222.061783,-10878.556072
930.583122,1480.411884,-666.185348,-9729.412825
930.583442,-592.164754,-148.041188,-10342.289223
930.583763,-2368.659014,666.185348,-10495.508323
930.584083,1110.308913,518.144159,-9499.584175
930.584403,4885.359217,518.144159,-10495.508323
930.584723,3701.029710,1110.308913,-9882.631924
930.585043,2960.823768,1406.391290,-9652.803275
930.585363,3034.844362,888.247130,-9882.631924
930.585683,3182.885551,740.205942,-9806.022374
930.586003,2220.617826,1406.391290,-9959.241474
930.586323,-1628.453072,1036.288319,-9269.755526
930.586643,-1850.514855,-666.185348,-9346.365076
930.586964,370.102971,-1036.288319,-9882.631924
930.587284,962.267725,-888.247130,-9806.022374
930.587604,-1850.514855,-444.123565,-9882.631924
930.587924,-3034.844362,-1036.288319,-9422.974625
930.588244,-740.205942,-1850.514855,-9806.022374
930.588564,592.164754,-1998.556043,-9346.365076
930.588884,-296.082377,0.000000,-9806.022374
930.589204,-1924.535449,1924.535449,-10495.508323
930.589524,-1480.411884,3552.988522,-9729.412825
930.589844,-74.020594,2220.617826,-11261.603821
930.590164,74.020594,666.185348,-10648.727422
930.590485,-1184.329507,-666.185348,-10801.946522
930.590805,-4441.235652,-888.247130,-10801.946522
930.591125,-3849.070898,0.000000,-10189.070123
930.591445,-3552.988522,1110.308913,-10265.679673
930.591765,-2072.576638,2664.741391,-10495.508323
930.592085,1406.391290,1776.494261,-9806.022374
930.592405,2072.576638,1776.494261,-10955.165621
930.592725,1332.370696,-444.123565,-10801.946522
930.593045,1776.494261,-1332.370696,-9806.022374
930.593365,3330.926739,444.123565,-10265.679673
930.593686,3478.967927,3478.967927,-10725.336972
930.594006,-592.164754,4145.153275,-11031.775171
930.594326,-1998.556043,2886.803174,-10342.289223
930.594646,-1850.514855,-888.247130,-9499.584175
930.594966,-592.164754,-3701.029710,-9193.145976
930.595286,1628.453072,-3701.029710,-9039.926876
930.595606,1480.411884,-4367.215058,-8963.317327
930.595926,2960.823768,-2516.700203,-9039.926876
930.596246,2072.576638,-222.061783,-9422.974625
930.596566,3552.988522,1998.556043,-9346.365076
930.596886,4811.338623,2442.679609,-9652.803275
930.597207,4293.194464,2442.679609,-9422.974625
930.597527,3182.885551,1406.391290,-9576.193725
930.597847,814.226536,-814.226536,-9806.022374
930.598167,2294.638420,-2590.720797,-8886.707777
930.598487,1332.370696,-2812.782580,-9422.974625
930.598807,222.061783,-3108.864956,-8963.317327
930.599127,1036.288319,0.000000,-9116.536426
930.599447,1184.329507,2812.782580,-10265.679673
930.599767,1924.535449,3034.844362,-10572.117872
930.600087,3478.967927,3552.988522,-11644.651570
930.600407,3034.844362,1628.453072,-10495.508323
930.600727,2368.659014,1628.453072,-10955.165621
930.601047,1850.514855,1628.453072,-11338.213370
930.601367,1850.514855,3775.050304,-10955.165621
930.601687,1998.556043,3182.885551,-12257.527968
930.602007,-1480.411884,1924.535449,-11031.775171
930.602326,-3923.091493,592.164754,-10955.165621
930.602646,-3627.009116,-1776.494261,-9882.631924
930.602966,222.061783,-666.185348,-10955.165621
930.603286,1702.473667,-148.041188,-11031.775171
930.603606,1110.308913,2220.617826,-11031.775171
930.603926,-814.226536,3034.844362,-11414.822920
930.604246,-1406.391290,3923.091493,-10265.679673
930.604566,1554.432478,3701.029710,-10418.898773
930.604886,1406.391290,2368.659014,-10189.070123
930.605205,2146.597232,-888.247130,-9729.412825
930.605525,-592.164754,-2442.679609,-8963.317327
930.605845,-1924.535449,-4737.318029,-8427.050478
930.606165,-2294.638420,-4441.235652,-8197.221829
930.606485,-3256.906145,-1480.411884,-8427.050478
930.606805,-3627.009116,74.020594,-8733.488677
930.607125,-962.267725,2146.597232,-9269.755526
930.607445,-962.267725,2516.700203,-9193.145976
930.607765,148.041188,1406.391290,-9652.803275
930.608085,1036.288319,0.000000,-9652.803275
930.608404,1850.514855,-888.247130,-9346.365076
930.608724,-962.267725,-1110.308913,-9806.022374
930.609044,-2960.823768,962.267725,-9576.193725
930.609364,-2738.761985,740.205942,-9576.193725
930.609684,-1036.288319,2072.576638,-9959.241474
930.610004,-2072.576638,1480.411884,-10648.727422
930.610324,-666.185348,370.102971,-10572.117872
930.610644,370.102971,-222.061783,-10878.556072
930.610964,1184.329507,-814.226536,-11644.651570
930.611283,1480.411884,1480.411884,-10801.946522
930.611603,296.082377,2072.576638,-10495.508323
930.611923,-370.102971,2516.700203,-11338.213370
930.612243,3552.988522,1332.370696,-10112.460574
930.612563,4959.379811,1480.411884,-11491.432470
930.612883,3034.844362,444.123565,-11108.384721
930.613203,1480.411884,-370.102971,-10495.508323
930.613523,592.164754,-518.144159,-10572.117872
930.613843,370.102971,-222.061783,-9499.584175
930.614163,518.144159,-222.061783,-10189.070123
930.614482,-296.082377,-814.226536,-10418.898773
930.614802,1480.411884,-1480.411884,-9269.755526
930.615122,2442.679609,0.000000,-9959.241474
930.615442,4441.235652,148.041188,-9269.755526
930.615762,5329.482782,1406.391290,-9806.022374
930.616082,2516.700203,1110.308913,-9652.803275
930.616402,1702.473667,-518.144159,-9193.145976
930.616722,1554.432478,-2146.597232,-9729.412825
930.617042,222.061783,-2220.617826,-9116.536426
930.617361,-296.082377,-2294.638420,-9116.536426
930.617681,-148.041188,-962.267725,-9193.145976
930.618001,-518.144159,-296.082377,-9422.974625
930.618321,1776.494261,0.000000,-9806.022374
930.618641,2146.597232,-1628.453072,-9806.022374
930.618961,740.205942,-1480.411884,-9806.022374
930.619281,-296.082377,74.020594,-9882.631924
930.619601,0.000000,2072.576638,-10112.460574
930.619921,0.000000,962.267725,-10801.946522
930.620240,370.102971,888.247130,-10418.898773
930.620560,-370.102971,-1110.308913,-10878.556072
930.620880,-3034.844362,-1480.411884,-10112.460574
930.621200,-4515.256246,-518.144159,-10495.508323
930.621520,-1628.453072,74.020594,-11261.603821
930.621840,888.247130,814.226536,-11184.994271
930.622160,1554.432478,1110.308913,-11414.822920
930.622480,1480.411884,592.164754,-11338.213370
930.622800,-222.061783,1628.453072,-11184.994271
930.623120,-2072.576638,2960.823768,-11184.994271
930.623439,-1184.329507,4293.194464,-10725.336972
930.623759,1628.453072,4737.318029,-11568.042020
930.624079,296.082377,3330.926739,-10801.946522
930.624399,222.061783,-370.102971,-10572.117872
930.624719,666.185348,-2960.823768,-9959.241474
930.625039,296.082377,-3849.070898,-9422.974625
930.625359,-1480.411884,-222.061783,-9652.803275
930.625679,-3627.009116,1850.514855,-8656.879127
930.625999,-1554.432478,3256.906145,-9959.241474
930.626318,2442.679609,1924.535449,-9882.631924
930.626638,2886.803174,222.061783,-8120.612279
930.626958,1406.391290,-1036.288319,-9116.536426
930.627278,2146.597232,-1998.556043,-8350.440928
930.627598,4737.318029,74.020594,-9806.022374
930.627918,4959.379811,1258.350101,-8656.879127
930.628238,2812.782580,666.185348,-9652.803275
930.628558,-296.082377,-1702.473667,-9116.536426
930.628878,-444.123565,-1776.494261,-8273.831378
930.629198,1258.350101,-814.226536,-10035.851024
930.629517,1332.370696,1258.350101,-9116.536426
930.629837,222.061783,1924.535449,-10265.679673
930.630157,-1554.432478,518.144159,-9806.022374
930.630477,444.123565,-592.164754,-9806.022374
930.630797,888.247130,-148.041188,-10112.460574
930.631117,1406.391290,740.205942,-9959.241474
930.631437,1702.473667,2442.679609,-11568.042020
930.631757,814.226536,4515.256246,-11108.384721
930.632077,1036.288319,3552.988522,-11184.994271
930.632396,1184.329507,1998.556043,-12257.527968
930.632716,3034.844362,-296.082377,-11184.994271
930.633036,740.205942,-1554.432478,-11184.994271
930.633356,-592.164754,-1628.453072,-10572.117872
930.633676,148.041188,0.000000,-10955.165621
930.633996,-1110.308913,2294.638420,-11261.603821
930.634316,-814.226536,2590.720797,-10878.556072
930.634636,-592.164754,2368.659014,-10572.117872
930.634956,-1110.308913,962.267725,-10418.898773
930.635275,74.020594,-814.226536,-9959.241474
930.635595,-592.164754,-1406.391290,-9806.022374
930.635915,-2146.597232,-1332.370696,-9882.631924
930.636235,-2590.720797,-1406.391290,-9652.803275
930.636555,-3997.112087,-1998.556043,-8963.317327
930.636875,-2368.659014,-1184.329507,-9422.974625
930.637195,-962.267725,148.041188,-9346.365076
930.637515,296.082377,888.247130,-9422.974625
930.637835,-814.226536,666.185348,-9576.193725
930.638155,-148.041188,-666.185348,-9039.926876
930.638474,888.247130,-1924.535449,-9269.755526
930.638794,518.144159,-1776.494261,-9193.145976
930.639114,1184.329507,-1258.350101,-8963.317327
930.639434,-370.102971,-296.082377,-10189.070123
930.639754,-1184.329507,-1924.535449,-9269.755526
930.640074,-1110.308913,-814.226536,-10035.851024
930.640394,814.226536,-1184.329507,-10035.851024
930.640714,1406.391290,-1036.288319,-9422.974625
930.641034,-518.144159,-888.247130,-10725.336972
930.641353,0.000000,1406.391290,-10801.946522
930.641673,0.000000,2072.576638,-10418.898773
930.641993,4071.132681,2368.659014,-11031.775171
930.642313,3627.009116,1110.308913,-10495.508323
930.642633,4293.194464,-444.123565,-11261.603821
930.642953,3775.050304,-1554.432478,-10648.727422
930.643273,1628.453072,370.102971,-11108.384721
930.643593,1258.350101,2516.700203,-10572.117872
930.643913,-296.082377,1184.329507,-10495.508323
930.644232,1406.391290,74.020594,-10572.117872
930.644552,2886.803174,-148.041188,-10418.898773
930.644872,1998.556043,-1406.391290,-9959.241474
930.645192,2294.638420,592.164754,-10035.851024
930.645512,2368.659014,1406.391290,-10725.336972
930.645832,2072.576638,2886.803174,-10189.070123
930.646152,518.144159,2516.700203,-10418.898773
930.646472,1850.514855,814.226536,-9116.536426
930.646792,2516.700203,-740.205942,-9806.022374
930.647112,2812.782580,-1406.391290,-10189.070123
930.647431,1110.308913,-518.144159,-9346.365076
930.647751,-1480.411884,74.020594,-8580.269578
930.648071,-666.185348,-444.123565,-8963.317327
930.648391,1776.494261,-1332.370696,-9346.365076
930.648711,2516.700203,-592.164754,-9729.412825
930.649031,2146.597232,0.000000,-9116.536426
930.649351,666.185348,1850.514855,-9729.412825
930.649671,222.061783,2072.576638,-10035.851024
930.649991,518.144159,1406.391290,-9882.631924
930.650310,-1258.350101,-148.041188,-10189.070123
930.650630,-2960.823768,-1628.453072,-9269.755526
930.650950,-3034.844362,-1924.535449,-10035.851024
930.651270,-1258.350101,-370.102971,-10878.556072
930.651590,-1406.391290,1554.432478,-10035.851024
930.651910,-2368.659014,2812.782580,-11491.432470
930.652230,-2516.700203,2294.638420,-10112.460574
930.652550,-1036.288319,1702.473667,-10495.508323
930.652870,-1036.288319,1554.432478,-11491.432470
930.653190,-222.061783,666.185348,-10418.898773
930.653509,-592.164754,370.102971,-11951.089769
930.653829,-148.041188,1036.288319,-10572.117872
930.654149,74.020594,1258.350101,-10801.946522
930.654469,0.000000,2960.823768,-11338.213370
930.654789,74.020594,2738.761985,-10572.117872
930.655109,-222.061783,3404.947333,-12563.966167
930.655429,-1850.514855,2516.700203,-10035.851024
930.655749,-2886.803174,1110.308913,-10189.070123
930.656069,-3034.844362,-1776.494261,-10189.070123
930.656388,74.020594,-1480.411884,-8580.269578
930.656708,1554.432478,-1406.391290,-10648.727422
930.657028,2294.638420,2516.700203,-9116.536426
930.657348,1702.473667,3627.009116,-10418.898773
930.657668,3034.844362,3256.906145,-10112.460574
930.657988,5625.565159,888.247130,-9806.022374
930.658308,3330.926739,0.000000,-9193.145976
930.658628,1480.411884,-888.247130,-8810.098227
930.658948,962.267725,-888.247130,-9193.145976
930.659267,1776.494261,888.247130,-9269.755526
930.659587,4367.215058,814.226536,-9193.145976
930.659907,3997.112087,-1628.453072,-9193.145976
930.660227,3849.070898,-4145.153275,-8810.098227
930.660547,2220.617826,-4441.235652,-9346.365076
930.660867,1850.514855,-2960.823768,-9116.536426
930.661187,1998.556043,1110.308913,-10342.289223
930.661507,148.041188,3034.844362,-9959.241474
930.661827,0.000000,2886.803174,-10342.289223
930.662147,2220.617826,-666.185348,-10035.851024
930.662466,2960.823768,-2664.741391,-9806.022374
930.662786,3552.988522,-2442.679609,-11184.994271
930.663106,1406.391290,-888.247130,-10572.117872
930.663426,-222.061783,1258.350101,-9729.412825
930.663746,592.164754,1628.453072,-11414.822920
930.664066,2220.617826,592.164754,-10801.946522
930.664386,2072.576638,-296.082377,-12334.137518
930.664706,-1110.308913,-148.041188,-11414.822920
930.665026,-1332.370696,1554.432478,-10035.851024
930.665345,148.041188,2516.700203,-11874.480219
930.665665,1332.370696,2368.659014,-11261.603821
930.665985,666.185348,1184.329507,-11644.651570
930.666305,-2886.803174,222.061783,-11491.432470
930.666625,-4737.318029,-222.061783,-9882.631924
930.666945,-4145.153275,-1258.350101,-10418.898773
930.667265,-962.267725,-1998.556043,-9576.193725
930.667585,-1628.453072,-2442.679609,-9959.241474
930.667905,-2368.659014,-3330.926739,-9422.974625
930.668225,-1850.514855,-2886.803174,-9039.926876
930.668544,296.082377,-814.226536,-9729.412825
930.668864,1036.288319,2220.617826,-9499.584175
930.669184,-814.226536,3330.926739,-10495.508323
930.669504,-1406.391290,1628.453072,-9039.926876
930.669824,-740.205942,-2072.576638,-9116.536426
930.670144,-1776.494261,-4441.235652,-8427.050478
930.670464,-2072.576638,-3775.050304,-8273.831378
930.670784,-1184.329507,-2664.741391,-9806.022374
930.671104,444.123565,-1184.329507,-9422.974625
930.671423,740.205942,-296.082377,-9652.803275
930.671743,-888.247130,148.041188,-9729.412825
930.672063,-1628.453072,1702.473667,-9806.022374
930.672383,1850.514855,2442.679609,-10648.727422
930.672703,2368.659014,2368.659014,-10418.898773
930.673023,1110.308913,962.267725,-10342.289223
930.673343,2146.597232,-1110.308913,-10418.898773
930.673663,3404.947333,-2368.659014,-10265.679673
930.673983,1924.535449,-1184.329507,-10955.165621
930.674302,444.123565,1702.473667,-10572.117872
930.674622,-1480.411884,3701.029710,-11031.775171
930.674942,-148.041188,4219.173869,-10801.946522
930.675262,1850.514855,2960.823768,-10801.946522
930.675582,3182.885551,0.000000,-10878.556072
930.675902,3701.029710,-1998.556043,-10112.460574
930.676222,4515.256246,-2664.741391,-10801.946522
930.676542,5255.462188,296.082377,-10342.289223
930.676862,4737.318029,3034.844362,-10725.336972
930.677182,2590.720797,4811.338623,-10189.070123
930.677501,2886.803174,5329.482782,-10265.679673
930.677821,3404.947333,3182.885551,-10342.289223
930.678141,3701.029710,1332.370696,-9806.022374
930.678461,3256.906145,-1776.494261,-9806.022374
930.678781,2294.638420,-3330.926739,-8810.098227
930.679101,1184.329507,-2442.679609,-9193.145976
930.679421,1036.288319,-592.164754,-10035.851024
930.679741,444.123565,1480.411884,-9193.145976
930.680061,296.082377,2886.803174,-10189.070123
930.680380,0.000000,2738.761985,-9806.022374
930.680700,-222.061783,2072.576638,-9193.145976
930.681020,-1036.288319,-296.082377,-9806.022374
930.681340,-666.185348,-1924.535449,-8886.707777
930.681660,0.000000,-2072.576638,-10648.727422
930.681980,148.041188,-1332.370696,-9729.412825
930.682300,-2442.679609,444.123565,-9576.193725
930.682620,-2664.741391,1702.473667,-10418.898773
930.682940,-3256.906145,2072.576638,-10112.460574
930.683259,-2368.659014,518.144159,-10878.556072
930.683579,-2294.638420,0.000000,-9729.412825
930.683899,-1184.329507,1258.350101,-10495.508323
930.684219,-1998.556043,2516.700203,-10955.165621
930.684539,-1406.391290,2220.617826,-11338.213370
930.684859,-222.061783,2368.659014,-9806.022374
930.685179,-1406.391290,814.226536,-10189.070123
930.685499,-2146.597232,148.041188,-10112.460574
930.685819,-2442.679609,370.102971,-10801.946522
930.686139,-1924.535449,1184.329507,-10495.508323
930.686458,-962.267725,1924.535449,-10955.165621
930.686778,-3775.050304,2368.659014,-10801.946522
930.687098,-2072.576638,2220.617826,-9882.631924
930.687418,-1554.432478,1998.556043,-10648.727422
930.687738,1184.329507,1554.432478,-10265.679673
930.688058,1628.453072,740.205942,-10112.460574
930.688378,1702.473667,296.082377,-9193.145976
930.688698,-148.041188,-1406.391290,-9499.584175
930.689018,888.247130,-1850.514855,-8886.707777
930.689337,3330.926739,-1850.514855,-9422.974625
930.689657,3997.112087,-1036.288319,-9116.536426
930.689977,4071.132681,740.205942,-9193.145976
930.690297,2294.638420,814.226536,-9193.145976
930.690617,1258.350101,0.000000,-8810.098227
930.690937,3775.050304,-1776.494261,-9039.926876
930.691257,4071.132681,-2146.597232,-9193.145976
930.691577,2516.700203,-2590.720797,-8810.098227
930.691897,1850.514855,-1554.432478,-9576.193725
930.692217,2442.679609,-1036.288319,-9116.536426
930.692536,2442.679609,-1332.370696,-9346.365076
930.692856,3478.967927,-1924.535449,-9882.631924
930.693176,2738.761985,-2220.617826,-9576.193725
930.693496,2960.823768,-1110.308913,-11184.994271
930.693816,3997.112087,0.000000,-10265.679673
930.694136,3923.091493,1702.473667,-10725.336972
930.694456,3627.009116,1480.411884,-11261.603821
930.694776,2294.638420,814.226536,-10035.851024
930.695096,2516.700203,-296.082377,-11338.213370
930.695415,2368.659014,-1554.432478,-11108.384721
930.695735,1480.411884,-962.267725,-11261.603821
930.696055,-666.185348,222.061783,-11951.089769
930.696375,-1332.370696,-148.041188,-10955.165621
930.696695,-2294.638420,-444.123565,-11261.603821
930.697015,-2368.659014,-1702.473667,-10572.117872
930.697335,-1628.453072,-2072.576638,-10648.727422
930.697655,-962.267725,-1480.411884,-10725.336972
930.697975,-1110.308913,444.123565,-10572.117872
930.698294,-1258.350101,1480.411884,-10955.165621
930.698614,-1702.473667,740.205942,-10265.679673
930.698934,-962.267725,222.061783,-9882.631924
930.699254,74.020594,-222.061783,-10112.460574
930.699574,962.267725,-1628.453072,-10418.898773
930.699894,-370.102971,-2886.803174,-9652.803275
930.700214,-3404.947333,-3182.885551,-8656.879127
930.700534,-4145.153275,-444.123565,-8656.879127
930.700854,-2442.679609,3478.967927,-9882.631924
930.701174,-1036.288319,4367.215058,-10342.289223
930.701493,-1924.535449,2516.700203,-9806.022374
930.701813,-2220.617826,-1110.308913,-9346.365076
930.702133,-1036.288319,-3330.926739,-8580.269578
930.702453,-1776.494261,-3849.070898,-8580.269578
930.702773,-1850.514855,-2516.700203,-9346.365076
930.703093,-1258.350101,-296.082377,-9269.755526
930.703413,-592.164754,1998.556043,-9652.803275
930.703733,444.123565,3627.009116,-10418.898773
930.704053,2220.617826,3775.050304,-10342.289223
930.704373,1554.432478,3478.967927,-10878.556072
930.704693,1036.288319,2516.700203,-9882.631924
930.705013,1406.391290,888.247130,-10572.117872
930.705333,2072.576638,-1554.432478,-10725.336972
930.705653,2590.720797,-2516.700203,-9652.803275
930.705973,1480.411884,0.000000,-10572.117872
930.706293,666.185348,3552.988522,-12180.918418
930.706613,740.205942,5551.544565,-11184.994271
930.706933,2812.782580,5625.565159,-11797.870669
930.707253,4589.276840,3701.029710,-10035.851024
930.707573,3775.050304,370.102971,-10265.679673
930.707893,1850.514855,-1776.494261,-9422.974625
930.708213,814.226536,-2146.597232,-9193.145976
930.708533,962.267725,-1258.350101,-10265.679673
930.708853,2812.782580,1480.411884,-9729.412825
930.709173,4293.194464,2812.782580,-9959.241474
930.709493,3108.864956,4811.338623,-9959.241474
930.709813,2664.741391,5329.482782,-10342.289223
930.710133,3034.844362,3404.947333,-10189.070123
930.710453,2812.782580,444.123565,-9806.022374
930.710773,2220.617826,-2220.617826,-9806.022374
930.711093,814.226536,-3034.844362,-9116.536426
930.711413,740.205942,-2146.597232,-9652.803275
930.711733,1776.494261,888.247130,-10189.070123
930.712053,1036.288319,2738.761985,-10112.460574
930.712373,0.000000,4885.359217,-10648.727422
930.712693,-296.082377,4663.297435,-10265.679673
930.713013,518.144159,3775.050304,-10035.851024
930.713333,-148.041188,1332.370696,-10801.946522
930.713653,-1184.329507,-1184.329507,-10035.851024
930.713973,-1554.432478,-3997.112087,-9652.803275
930.714293,444.123565,-3775.050304,-9269.755526
930.714613,1850.514855,-1184.329507,-10342.289223
930.714933,148.041188,1332.370696,-10342.289223
930.715253,-2146.597232,3552.988522,-10418.898773
930.715573,-3701.029710,3627.009116,-10112.460574
930.715893,-1480.411884,3034.844362,-9959.241474
930.716213,0.000000,740.205942,-10955.165621
930.716533,-1332.370696,-1924.535449,-9806.022374
930.716853,-2368.659014,-3108.864956,-10112.460574
930.717173,-2368.659014,-2886.803174,-9729.412825
930.717493,-1776.494261,-962.267725,-10112.460574
930.717813,-1998.556043,3034.844362,-10495.508323
930.718133,-3701.029710,5255.462188,-10725.336972
930.718453,-2146.597232,6217.729913,-10725.336972
930.718773,-2738.761985,4515.256246,-10418.898773
930.719093,-1480.411884,-370.102971,-9959.241474
930.719413,-666.185348,-3849.070898,-9729.412825
930.719733,1850.514855,-5181.441594,-9499.584175
930.720053,2590.720797,-3923.091493,-9116.536426
930.720373,1850.514855,0.000000,-9576.193725
930.720693,1184.329507,3923.091493,-10112.460574
930.721013,962.267725,4589.276840,-10572.117872
930.721333,1036.288319,2146.597232,-9806.022374
930.721653,666.185348,-962.267725,-9269.755526
930.721973,0.000000,-4367.215058,-9116.536426
930.722293,1480.411884,-5625.565159,-8810.098227
930.722613,2516.700203,-4811.338623,-9959.241474
930.722933,3108.864956,-2072.576638,-9039.926876
930.723253,1110.308913,888.247130,-10418.898773
930.723573,1332.370696,1554.432478,-9116.536426
930.723893,3701.029710,2368.659014,-9959.241474
930.724213,4959.379811,1776.494261,-10572.117872
930.724533,4737.318029,-518.144159,-9959.241474
930.724853,2886.803174,-2146.597232,-9806.022374
930.725173,1702.473667,-3997.112087,-9806.022374
930.725493,2442.679609,-3701.029710,-9729.412825
930.725813,2812.782580,-1184.329507,-10955.165621
930.726133,2960.823768,592.164754,-10418.898773
930.726453,740.205942,1998.556043,-11184.994271
930.726773,-592.164754,1628.453072,-10572.117872
930.727093,148.041188,444.123565,-10648.727422
930.727413,888.247130,-1702.473667,-10189.070123
930.727733,1332.370696,-2368.659014,-9729.412825
930.728053,444.123565,-3701.029710,-9959.241474
930.728373,666.185348,-2516.700203,-9959.241474
930.728693,1184.329507,-1554.432478,-10495.508323
930.729014,-370.102971,962.267725,-9806.022374
930.729334,-1480.411884,2072.576638,-9959.241474
930.729654,-2294.638420,3108.864956,-10495.508323
930.729974,-814.226536,1184.329507,-10265.679673
930.730294,-222.061783,-1776.494261,-10035.851024
930.730614,-666.185348,-3997.112087,-9576.193725
930.730934,-2886.803174,-3849.070898,-9729.412825
930.731254,-3701.029710,-1480.411884,-10495.508323
930.731574,-1628.453072,518.144159,-10035.851024
930.731894,-148.041188,4885.359217,-10801.946522
930.732214,296.082377,5329.482782,-11031.775171
930.732534,370.102971,4885.359217,-10342.289223
930.732854,-370.102971,2812.782580,-10878.556072
930.733174,-444.123565,666.185348,-9729.412825
930.733494,-962.267725,-1036.288319,-9499.584175
930.733814,-1184.329507,-1924.535449,-9269.755526
930.734134,-1480.411884,-2664.741391,-8886.707777
930.734454,-2072.576638,-1332.370696,-9346.365076
930.734774,740.205942,740.205942,-9882.631924
930.735094,2738.761985,2738.761985,-10112.460574
930.735414,2368.659014,3997.112087,-10572.117872
930.735734,962.267725,4071.132681,-10189.070123
930.736054,-592.164754,3256.906145,-10189.070123
930.736374,0.000000,1406.391290,-9652.803275
930.736694,1036.288319,-1036.288319,-10265.679673
930.737014,2146.597232,-2368.659014,-9193.145976
930.737334,370.102971,-2072.576638,-9499.584175
930.737654,444.123565,370.102971,-7967.393179
930.737974,1332.370696,2368.659014,-9959.241474
930.738294,74.020594,2590.720797,-10725.336972
930.738614,-1110.308913,2368.659014,-9499.584175
930.738934,-740.205942,1924.535449,-9806.022374
930.739254,3034.844362,1184.329507,-10342.289223
930.739574,5107.421000,962.267725,-9729.412825
930.739894,4959.379811,1480.411884,-10801.946522
930.740214,3182.885551,1554.432478,-9806.022374
930.740534,222.061783,1554.432478,-11031.775171
930.740854,-1036.288319,592.164754,-9729.412825
930.741174,-592.164754,1036.288319,-9806.022374
930.741494,222.061783,1332.370696,-9882.631924
930.741814,1258.350101,1776.494261,-9346.365076
930.742134,2368.659014,1332.370696,-9882.631924
930.742454,3552.988522,-222.061783,-9959.241474
930.742774,3478.967927,-518.144159,-9652.803275
930.743094,3923.091493,-148.041188,-9959.241474
930.743414,4589.276840,1184.329507,-10035.851024
930.743734,2590.720797,2516.700203,-10495.508323
930.744054,0.000000,3108.864956,-10572.117872
930.744374,-1258.350101,3404.947333,-10418.898773
930.744694,-1036.288319,2146.597232,-11491.432470
930.745014,-1998.556043,-1036.288319,-9652.803275
930.745334,-1924.535449,-2960.823768,-10189.070123
930.745654,-814.226536,-4145.153275,-9576.193725
930.745974,0.000000,-3404.947333,-9806.022374
930.746294,222.061783,444.123565,-10648.727422
930.746614,962.267725,2516.700203,-9959.241474
930.746934,1480.411884,3849.070898,-11031.775171
930.747254,2442.679609,3849.070898,-10801.946522
930.747574,1110.308913,1628.453072,-10418.898773
930.747894,-1258.350101,1036.288319,-10265.679673
930.748214,-1406.391290,-1850.514855,-10495.508323
930.748534,74.020594,-666.185348,-9422.974625
930.748854,-370.102971,0.000000,-10418.898773
930.749174,-2368.659014,888.247130,-9806.022374
930.749494,-3849.070898,296.082377,-9729.412825
930.749814,-2368.659014,-370.102971,-9652.803275
930.750134,0.000000,-444.123565,-9882.631924
930.750454,1480.411884,-518.144159,-9576.193725
930.750774,2146.597232,296.082377,-10418.898773
930.751094,814.226536,1924.535449,-9652.803275
930.751414,-1258.350101,1406.391290,-10725.336972
930.751734,-2146.597232,-666.185348,-10418.898773
930.752054,0.000000,-2368.659014,-9422.974625
930.752374,148.041188,-1850.514855,-9652.803275
930.752694,-296.082377,-74.020594,-9652.803275
930.753014,592.164754,296.082377,-10342.289223
930.753334,2294.638420,-296.082377,-10955.165621
930.753654,-148.041188,0.000000,-9882.631924
930.753974,-1036.288319,-370.102971,-9959.241474
930.754294,1110.308913,-1628.453072,-9959.241474
930.754614,4589.276840,-814.226536,-10495.508323
930.754934,3997.112087,444.123565,-10725.336972
930.755254,2590.720797,1776.494261,-10418.898773
930.755574,2220.617826,592.164754,-9806.022374
930.755894,2664.741391,-1110.308913,-10418.898773
930.756214,1554.432478,-2072.576638,-9422.974625
930.756534,-1850.514855,-2072.576638,-10189.070123
930.756854,-888.247130,-1184.329507,-9499.584175
930.757174,222.061783,-444.123565,-10189.070123
930.757494,1924.535449,-666.185348,-9269.755526
930.757814,3108.864956,0.000000,-10648.727422
930.758134,1480.411884,0.000000,-10112.460574
930.758454,962.267725,1036.288319,-9959.241474
930.758774,1628.453072,2294.638420,-10418.898773
930.759094,3923.091493,2146.597232,-10648.727422
930.759414,3034.844362,-148.041188,-10495.508323
930.759734,222.061783,-1406.391290,-10112.460574
930.760054,-2664.741391,-2368.659014,-8963.317327
930.760374,-1184.329507,-2220.617826,-9499.584175
930.760694,740.205942,-592.164754,-10495.508323
930.761014,814.226536,740.205942,-10418.898773
930.761334,-3478.967927,444.123565,-10265.679673
930.761654,-2516.700203,148.041188,-10112.460574
930.761974,-1332.370696,0.000000,-10112.460574
930.762294,-814.226536,-296.082377,-10495.508323
930.762614,-518.144159,1036.288319,-11108.384721
930.762934,0.000000,1850.514855,-10112.460574
930.763254,-518.144159,1776.494261,-10112.460574
930.763574,-1258.350101,1406.391290,-10495.508323
930.763894,-3330.926739,1332.370696,-10265.679673
930.764214,-3256.906145,1036.288319,-10342.289223
930.764534,-2442.679609,592.164754,-9882.631924
930.764854,0.000000,-148.041188,-9729.412825
930.765174,666.185348,-962.267725,-9882.631924
930.765494,740.205942,-444.123565,-9576.193725
930.765814,0.000000,2146.597232,-10495.508323
930.766134,1702.473667,2886.803174,-9806.022374
930.766454,2368.659014,3330.926739,-10265.679673
930.766774,2368.659014,3108.864956,-10035.851024
930.767094,740.205942,1628.453072,-9576.193725
930.767414,0.000000,888.247130,-9806.022374
930.767734,148.041188,-518.144159,-10035.851024
930.768054,1332.370696,-2442.679609,-9576.193725
930.768374,1850.514855,-2294.638420,-8886.707777
930.768694,814.226536,-518.144159,-9422.974625
930.769014,222.061783,666.185348,-9116.536426
930.769334,888.247130,2146.597232,-9652.803275
930.769654,3775.050304,2072.576638,-9959.241474
930.769974,3627.009116,1110.308913,-9882.631924
930.770294,2516.700203,0.000000,-9882.631924
930.770614,3108.864956,-666.185348,-9806.022374
930.770934,2886.803174,370.102971,-10112.460574
930.771254,3034.844362,3108.864956,-10342.289223
930.771574,962.267725,3701.029710,-10725.336972
930.771894,296.082377,2738.761985,-10035.851024
930.772214,592.164754,814.226536,-10035.851024
930.772534,296.082377,-296.082377,-9806.022374
930.772854,-740.205942,0.000000,-10418.898773
930.773174,-1850.514855,-518.144159,-10189.070123
930.773494,-1554.432478,-444.123565,-9882.631924
930.773814,518.144159,296.082377,-10572.117872
930.774134,3034.844362,814.226536,-10112.460574
930.774454,4959.379811,2146.597232,-11338.213370
930.774774,4737.318029,2442.679609,-10112.460574
930.775094,2516.700203,2294.638420,-10418.898773
930.775414,0.000000,222.061783,-11261.603821
930.775734,-444.123565,-962.267725,-9729.412825
930.776054,-2812.782580,-1850.514855,-10495.508323
930.776374,-4589.276840,-1702.473667,-10112.460574
930.776694,-3404.947333,-1258.350101,-9806.022374
930.777014,-2368.659014,-666.185348,-10878.556072
930.777334,1110.308913,-222.061783,-9806.022374
930.777654,666.185348,-814.226536,-10035.851024
930.777974,-888.247130,-1332.370696,-9882.631924
930.778294,-2368.659014,-370.102971,-9729.412825
930.778614,-2516.700203,-666.185348,-10265.679673
930.778934,-518.144159,666.185348,-8503.660028
930.779254,740.205942,3256.906145,-10495.508323
930.779574,592.164754,2590.720797,-10265.679673
930.779894,148.041188,962.267725,-10112.460574
930.780214,0.000000,0.000000,-10035.851024
930.780534,-1776.494261,-1332.370696,-8733.488677
930.780854,-2368.659014,-1406.391290,-9729.412825
930.781174,-370.102971,-1480.411884,-9652.803275
930.781494,74.020594,-2368.659014,-9346.365076
930.781814,444.123565,-2368.659014,-9882.631924
930.782134,962.267725,-1776.494261,-9422.974625
930.782454,1406.391290,518.144159,-10189.070123
930.782774,888.247130,1480.411884,-10725.336972
930.783094,296.082377,1702.473667,-10572.117872
930.783414,1036.288319,148.041188,-10725.336972
930.783734,2220.617826,-1406.391290,-10112.460574
930.784054,1554.432478,-3552.988522,-10418.898773
930.784374,222.061783,-3182.885551,-9806.022374
930.784694,222.061783,-1406.391290,-10418.898773
930.785014,518.144159,-370.102971,-9959.241474
930.785334,1628.453072,370.102971,-10112.460574
930.785654,666.185348,-592.164754,-10725.336972
930.785974,1258.350101,370.102971,-9806.022374
930.786294,2368.659014,296.082377,-11108.384721
930.786614,2590.720797,2368.659014,-10418.898773
930.786934,1776.494261,2368.659014,-11108.384721
930.787254,2072.576638,1924.535449,-9806.022374
930.787574,1702.473667,222.061783,-9346.365076
930.787894,1110.308913,-518.144159,-10112.460574
930.788214,1036.288319,-1332.370696,-10189.070123
930.788534,592.164754,0.000000,-9499.584175
930.788854,2442.679609,666.185348,-10035.851024
930.789174,3775.050304,1776.494261,-10189.070123
930.789494,3256.906145,2146.597232,-10648.727422
930.789814,2442.679609,1998.556043,-10112.460574
930.790134,2738.761985,1776.494261,-10035.851024
930.790454,1850.514855,2072.576638,-9882.631924
930.790774,2368.659014,1554.432478,-9959.241474
930.791094,1554.432478,0.000000,-9652.803275
930.791414,1554.432478,-962.267725,-9806.022374
930.791734,-74.020594,-1036.288319,-9193.145976
930.792054,-2294.638420,-222.061783,-9652.803275
930.792374,-3701.029710,518.144159,-9729.412825
930.792694,-2442.679609,1702.473667,-9882.631924
930.793014,0.000000,1332.370696,-10035.851024
930.793334,1332.370696,74.020594,-9729.412825
930.793654,-666.185348,-370.102971,-9806.022374
930.793974,-296.082377,-518.144159,-10035.851024
930.794294,0.000000,-296.082377,-10572.117872
930.794614,148.041188,888.247130,-9652.803275
930.794934,888.247130,2368.659014,-10112.460574
930.795254,-740.205942,3552.988522,-10725.336972
930.795574,-2368.659014,4367.215058,-10572.117872
930.795894,-3701.029710,3256.906145,-10495.508323
930.796214,-4219.173869,1924.535449,-10418.898773
930.796534,-1406.391290,0.000000,-9882.631924
930.796854,-222.061783,-1850.514855,-9959.241474
930.797174,444.123565,-1702.473667,-9806.022374
930.797494,-1258.350101,0.000000,-9806.022374
930.797814,-2590.720797,2220.617826,-9806.022374
930.798134,-814.226536,2590.720797,-10035.851024
930.798454,1332.370696,3478.967927,-10189.070123
930.798774,814.226536,962.267725,-10189.070123
930.799094,-962.267725,-1628.453072,-9499.584175
930.799414,-1480.411884,-2590.720797,-10112.460574
930.799734,-370.102971,-3182.885551,-9576.193725
930.800054,1184.329507,-1480.411884,-9806.022374
930.800374,962.267725,-296.082377,-8886.707777
930.800694,-296.082377,296.082377,-9882.631924
930.801014,888.247130,666.185348,-10189.070123
930.801334,814.226536,-518.144159,-9882.631924
930.801654,2072.576638,-1110.308913,-10265.679673
930.801974,2886.803174,-2220.617826,-9729.412825
930.802294,4071.132681,-2146.597232,-10265.679673
930.802614,4515.256246,-370.102971,-10265.679673
930.802934,4737.318029,2072.576638,-10801.946522
930.803254,3034.844362,2886.803174,-11261.603821
930.803574,0.000000,2368.659014,-9729.412825
930.803894,518.144159,1850.514855,-10189.070123
930.804214,4145.153275,-1332.370696,-9806.022374
930.804534,4589.276840,-3552.988522,-9576.193725
930.804854,2664.741391,-4737.318029,-9652.803275
930.805174,1110.308913,-2516.700203,-9193.145976
930.805494,1924.535449,74.020594,-10035.851024
930.805814,1628.453072,1998.556043,-10189.070123
930.806134,814.226536,3182.885551,-10342.289223
930.806454,74.020594,1258.350101,-9729.412825
930.806774,1480.411884,-444.123565,-10342.289223
930.807094,4071.132681,-1480.411884,-10342.289223
930.807414,2590.720797,-2368.659014,-11031.775171
930.807734,-1258.350101,-2368.659014,-9729.412825
930.808054,-2664.741391,0.000000,-10189.070123
930.808374,-2220.617826,518.144159,-10495.508323
930.808694,148.041188,962.267725,-10725.336972
930.809014,-1184.329507,-666.185348,-11261.603821
930.809334,-962.267725,-1850.514855,-10495.508323
930.809654,0.000000,-1036.288319,-10495.508323
930.809974,444.123565,-740.205942,-10801.946522
930.810294,1332.370696,296.082377,-10955.165621
930.810614,-962.267725,1924.535449,-10572.117872
930.810934,-2812.782580,2072.576638,-10878.556072
930.811254,-2886.803174,1332.370696,-10342.289223
930.811574,-3775.050304,1332.370696,-10035.851024
930.811894,-740.205942,148.041188,-9806.022374
930.812214,666.185348,1036.288319,-10495.508323
930.812534,444.123565,1036.288319,-10418.898773
930.812854,-2368.659014,222.061783,-9576.193725
930.813174,-3108.864956,-444.123565,-9193.145976
930.813494,-296.082377,-370.102971,-9499.584175
930.813814,-592.164754,1110.308913,-9729.412825
930.814134,-1406.391290,1924.535449,-9959.241474
930.814454,0.000000,1850.514855,-9422.974625
930.814774,1554.432478,-148.041188,-9729.412825
930.815094,2664.741391,-1480.411884,-9039.926876
930.815414,-1110.308913,-1036.288319,-9959.241474
930.815734,-2886.803174,0.000000,-9116.536426
930.816054,518.144159,1480.411884,-10418.898773
930.816374,3627.009116,1998.556043,-10035.851024
930.816694,3404.947333,1332.370696,-10189.070123
930.817014,1110.308913,1036.288319,-10189.070123
930.817334,2072.576638,296.082377,-9729.412825
930.817654,3627.009116,444.123565,-10418.898773
930.817974,3627.009116,1184.329507,-10572.117872
930.818294,1924.535449,814.226536,-10572.117872
930.818614,1850.514855,2368.659014,-10342.289223
930.818934,2960.823768,1850.514855,-10112.460574
930.819254,4145.153275,1924.535449,-10648.727422
930.819574,3552.988522,2368.659014,-10572.117872
930.819894,2294.638420,1554.432478,-10725.336972
930.820214,-148.041188,2294.638420,-10189.070123
930.820534,-814.226536,0.000000,-9882.631924
930.820854,0.000000,-222.061783,-10189.070123
930.821174,1554.432478,74.020594,-9882.631924
930.821494,3552.988522,1554.432478,-10035.851024
930.821814,3330.926739,3775.050304,-11721.261119
930.822134,296.082377,2738.761985,-9729.412825
930.822454,592.164754,888.247130,-10189.070123
930.822774,2812.782580,-222.061783,-9576.193725
930.823094,3256.906145,-1184.329507,-10342.289223
930.823414,-296.082377,-1406.391290,-9576.193725
930.823734,-2146.597232,-2220.617826,-8733.488677
930.824054,-740.205942,-1924.535449,-9039.926876
930.824374,2146.597232,-1036.288319,-9882.631924
930.824694,1776.494261,74.020594,-10035.851024
930.825014,-3034.844362,1406.391290,-9806.022374
930.825334,-3849.070898,888.247130,-9806.022374
930.825654,-1406.391290,-296.082377,-9806.022374
930.825974,2072.576638,-2146.597232,-10112.460574
930.826294,740.205942,-3034.844362,-9806.022374
930.826614,-1998.556043,-2220.617826,-9806.022374
930.826934,-1480.411884,-148.041188,-10189.070123
930.827254,-962.267725,1850.514855,-10112.460574
930.827574,962.267725,3478.967927,-11338.213370
930.827893,-962.267725,2368.659014,-10418.898773
930.828213,-2442.679609,1554.432478,-10342.289223
930.828533,-2368.659014,1110.308913,-10265.679673
930.828853,-1776.494261,370.102971,-10189.070123
930.829173,444.123565,0.000000,-10955.165621
930.829493,444.123565,-2072.576638,-10572.117872
930.829813,1110.308913,-2738.761985,-9652.803275
930.830133,-1628.453072,-1998.556043,-9882.631924
930.830453,-222.061783,518.144159,-10418.898773
930.830773,1628.453072,2516.700203,-10418.898773
930.831093,740.205942,3034.844362,-11261.603821
930.831413,1480.411884,1110.308913,-9422.974625
930.831733,4367.215058,0.000000,-10878.556072
930.832053,444.123565,-2368.659014,-10035.851024
930.832373,-2146.597232,-2886.803174,-9729.412825
930.832693,-2220.617826,-2146.597232,-9729.412825
930.833013,2368.659014,-1628.453072,-9652.803275
930.833333,3627.009116,-1258.350101,-9422.974625
930.833653,1554.432478,0.000000,-10265.679673
930.833973,1628.453072,-1110.308913,-9499.584175
930.834293,1554.432478,-666.185348,-9729.412825
930.834613,1184.329507,888.247130,-10035.851024
930.834933,1184.329507,814.226536,-9422.974625
930.835253,2590.720797,1258.350101,-9806.022374
930.835573,4441.235652,1702.473667,-10418.898773
930.835893,3108.864956,1036.288319,-9499.584175
930.836213,-370.102971,-444.123565,-10265.679673
930.836533,-962.267725,-1110.308913,-9422.974625
930.836853,296.082377,814.226536,-9959.241474
930.837173,1110.308913,1110.308913,-10035.851024
930.837493,666.185348,740.205942,-9806.022374
930.837813,296.082377,74.020594,-10572.117872
930.838133,666.185348,-296.082377,-10418.898773
930.838453,3256.906145,-1184.329507,-10265.679673
930.838773,3552.988522,740.205942,-9882.631924
930.839093,592.164754,2368.659014,-11108.384721
930.839413,-740.205942,2442.679609,-10112.460574
930.839733,-666.185348,888.247130,-11338.213370
930.840053,2220.617826,-1036.288319,-10878.556072
930.840373,2072.576638,-1332.370696,-10648.727422
930.840693,-370.102971,-888.247130,-11414.822920
930.841013,-2664.741391,962.267725,-9959.241474
930.841333,-2590.720797,2368.659014,-10572.117872
930.841653,-814.226536,2442.679609,-11108.384721
930.841973,0.000000,2664.741391,-10342.289223
930.842293,-962.267725,2146.597232,-11184.994271
930.842613,-1184.329507,1184.329507,-9729.412825
930.842933,-1924.535449,1258.350101,-9806.022374
930.843253,-2146.597232,222.061783,-9729.412825
930.843573,-1850.514855,740.205942,-8580.269578
930.843893,-888.247130,518.144159,-9806.022374
930.844213,1110.308913,740.205942,-9652.803275
930.844533,1702.473667,1332.370696,-8580.269578
930.844853,1480.411884,1332.370696,-9116.536426
930.845173,2960.823768,962.267725,-8580.269578
930.845493,444.123565,518.144159,-9806.022374
930.845813,0.000000,-740.205942,-9422.974625
930.846133,-148.041188,-1628.453072,-8886.707777
930.846453,1554.432478,-962.267725,-9499.584175
930.846773,2072.576638,888.247130,-10648.727422
930.847093,1554.432478,1924.535449,-10189.070123
930.847413,-740.205942,2516.700203,-10265.679673
930.847733,-2812.782580,2442.679609,-10495.508323
930.848053,-1184.329507,1702.473667,-10572.117872
930.848373,962.267725,148.041188,-11031.775171
930.848693,1406.391290,-814.226536,-10342.289223
930.849013,222.061783,-814.226536,-10495.508323
930.849333,1998.556043,-1258.350101,-10495.508323
930.849653,4219.173869,0.000000,-10189.070123
930.849973,4293.194464,1628.453072,-11108.384721
930.850293,2664.741391,2072.576638,-10648.727422
930.850613,666.185348,2590.720797,-10342.289223
930.850933,1036.288319,3108.864956,-10801.946522
930.851253,2442.679609,814.226536,-10265.679673
930.851573,2812.782580,-370.102971,-10572.117872
930.851893,3627.009116,-2516.700203,-10112.460574
930.852213,2590.720797,-2368.659014,-9193.145976
930.852533,1628.453072,148.041188,-10112.460574
930.852853,888.247130,1628.453072,-9652.803275
930.853173,-1036.288319,814.226536,-9729.412825
930.853493,-3182.885551,0.000000,-9499.584175
930.853813,-1998.556043,-1702.473667,-9193.145976
930.854133,-370.102971,-1924.535449,-9116.536426
930.854453,1332.370696,-1036.288319,-8427.050478
930.854773,1110.308913,-518.144159,-9806.022374
930.855093,222.061783,-2590.720797,-9269.755526
930.855413,-814.226536,-2146.597232,-9576.193725
930.855733,-814.226536,-1998.556043,-9193.145976
930.856053,1036.288319,222.061783,-10035.851024
930.856373,0.000000,888.247130,-10112.460574
930.856693,-296.082377,1036.288319,-10572.117872
930.857013,-3108.864956,-148.041188,-10189.070123
930.857333,-2368.659014,-1554.432478,-10342.289223
930.857653,-1184.329507,-2368.659014,-10189.070123
930.857973,592.164754,-1924.535449,-11414.822920
930.858293,0.000000,148.041188,-10572.117872
930.858613,-3775.050304,74.020594,-10801.946522
930.858933,-2664.741391,1332.370696,-11031.775171
930.859253,-1110.308913,740.205942,-10342.289223
930.859573,2960.823768,1184.329507,-11797.870669
930.859893,2368.659014,2146.597232,-9959.241474
930.860213,1480.411884,1776.494261,-11491.432470
930.860532,222.061783,2368.659014,-10265.679673
930.860852,296.082377,592.164754,-10955.165621
930.861172,-222.061783,-296.082377,-10342.289223
930.861492,-1332.370696,-444.123565,-9499.584175
930.861812,-592.164754,-296.082377,-10878.556072
930.862132,1036.288319,-296.082377,-9422.974625
930.862452,2442.679609,1258.350101,-9422.974625
930.862772,2738.761985,2368.659014,-10725.336972
930.863092,2294.638420,1998.556043,-9576.193725
930.863412,2294.638420,592.164754,-9806.022374
930.863732,2960.823768,0.000000,-9576.193725
930.864052,1998.556043,148.041188,-8810.098227
930.864372,2590.720797,444.123565,-9729.412825
930.864692,2886.803174,740.205942,-9193.145976
930.865012,1184.329507,-962.267725,-9269.755526
930.865332,962.267725,-1480.411884,-9652.803275
930.865652,1628.453072,-888.247130,-9499.584175
930.865972,1924.535449,1554.432478,-10035.851024
930.866292,1998.556043,3034.844362,-10189.070123
930.866612,666.185348,3108.864956,-10265.679673
930.866932,148.041188,2886.803174,-10801.946522
930.867252,1850.514855,-444.123565,-9806.022374
930.867572,1406.391290,-296.082377,-10801.946522
930.867892,1184.329507,444.123565,-9652.803275
930.868212,444.123565,1110.308913,-10648.727422
930.868532,1628.453072,2516.700203,-10265.679673
930.868852,888.247130,3404.947333,-10801.946522
930.869172,814.226536,1776.494261,-10418.898773
930.869492,-666.185348,2294.638420,-11108.384721
930.869812,-2294.638420,0.000000,-10648.727422
930.870132,740.205942,444.123565,-10725.336972
930.870452,666.185348,740.205942,-10801.946522
930.870772,-1184.329507,-222.061783,-10495.508323
930.871092,-1850.514855,0.000000,-9959.241474
930.871412,-2812.782580,0.000000,-10342.289223
930.871732,-666.185348,74.020594,-9806.022374
930.872052,740.205942,-148.041188,-11108.384721
930.872372,-888.247130,1036.288319,-10189.070123
930.872692,-3627.009116,0.000000,-9422.974625
930.873012,-2590.720797,1554.432478,-10495.508323
930.873332,0.000000,1184.329507,-9806.022374
930.873652,370.102971,-74.020594,-10265.679673
930.873972,-1258.350101,-2146.597232,-9039.926876
930.874292,-1702.473667,-1850.514855,-9346.365076
930.874612,-962.267725,-2368.659014,-9346.365076
930.874932,-592.164754,-296.082377,-9269.755526
930.875252,-1184.329507,1332.370696,-9116.536426
930.875572,-592.164754,2812.782580,-9729.412825
930.875892,666.185348,0.000000,-9039.926876
930.876212,2220.617826,-1258.350101,-10035.851024
930.876532,1776.494261,-2886.803174,-9269.755526
930.876852,814.226536,-2886.803174,-9499.584175
930.877172,1998.556043,-518.144159,-9806.022374
930.877492,1850.514855,888.247130,-9959.241474
930.877812,1924.535449,518.144159,-9959.241474
930.878132,814.226536,1924.535449,-10495.508323
930.878452,1406.391290,1998.556043,-11184.994271
930.878772,2146.597232,444.123565,-10648.727422
930.879092,1332.370696,0.000000,-10648.727422
930.879412,2368.659014,-222.061783,-10572.117872
930.879732,3701.029710,-1184.329507,-10648.727422
930.880052,3034.844362,-1110.308913,-10801.946522
930.880372,1406.391290,222.061783,-10495.508323
930.880692,1332.370696,1406.391290,-11184.994271
930.881012,3256.906145,1110.308913,-10572.117872
930.881332,4589.276840,2146.597232,-11184.994271
930.881652,2738.761985,296.082377,-10495.508323
930.881972,-592.164754,-370.102971,-10112.460574
930.882292,-296.082377,-888.247130,-10189.070123
930.882612,2960.823768,74.020594,-10495.508323
930.882932,2368.659014,1702.473667,-10342.289223
930.883252,1406.391290,1924.535449,-9882.631924
930.883572,1924.535449,296.082377,-9959.241474
930.883892,2220.617826,-296.082377,-9959.241474
930.884212,1776.494261,0.000000,-9576.193725
930.884532,-962.267725,0.000000,-8810.098227
930.884852,-1628.453072,0.000000,-9576.193725
930.885172,-1480.411884,0.000000,-9269.755526
930.885492,-888.247130,-1184.329507,-9422.974625
930.885812,0.000000,-1036.288319,-9269.755526
930.886132,-740.205942,-1332.370696,-9422.974625
930.886452,-3108.864956,0.000000,-9729.412825
930.886772,-2146.597232,1924.535449,-9959.241474
930.887092,-740.205942,1184.329507,-9729.412825
930.887412,0.000000,518.144159,-9806.022374
930.887732,666.185348,370.102971,-10112.460574
930.888052,-1110.308913,518.144159,-10342.289223
930.888372,-3108.864956,-666.185348,-10112.460574
930.888692,-2516.700203,-1776.494261,-10189.070123
930.889012,-2146.597232,0.000000,-9806.022374
930.889332,-1850.514855,592.164754,-10572.117872
930.889652,0.000000,222.061783,-10801.946522
930.889972,222.061783,740.205942,-10495.508323
930.890292,-444.123565,2812.782580,-11184.994271
930.890612,-1110.308913,2368.659014,-10495.508323
930.890932,-1480.411884,814.226536,-10725.336972
930.891252,-444.123565,-444.123565,-9882.631924
930.891572,1184.329507,1036.288319,-11031.775171
930.891892,1406.391290,1776.494261,-10648.727422
930.892212,1480.411884,1850.514855,-10801.946522
930.892532,-148.041188,2220.617826,-10725.336972
930.892852,-370.102971,444.123565,-9652.803275
930.893172,814.226536,-1406.391290,-9729.412825
930.893491,2368.659014,-2294.638420,-9346.365076
930.893811,3182.885551,-518.144159,-9882.631924
930.894131,1998.556043,370.102971,-9269.755526
930.894451,1776.494261,2220.617826,-9806.022374
930.894771,2072.576638,1776.494261,-9576.193725
930.895091,2886.803174,1628.453072,-9652.803275
930.895411,2368.659014,-814.226536,-9039.926876
930.895731,1702.473667,-2072.576638,-9729.412825
930.896051,0.000000,-666.185348,-9193.145976
930.896371,-74.020594,-296.082377,-9882.631924
930.896691,2516.700203,1332.370696,-9193.145976
930.897011,4293.194464,370.102971,-10342.289223
930.897331,6291.750507,-1850.514855,-9346.365076
930.897651,3478.967927,-1850.514855,-9806.022374
930.897971,1406.391290,-814.226536,-9729.412825
930.898291,2590.720797,666.185348,-10801.946522
930.898611,2886.803174,3701.029710,-10112.460574
930.898931,1184.329507,1998.556043,-10955.165621
930.899251,0.000000,-296.082377,-10418.898773
930.899571,-2220.617826,-370.102971,-10418.898773
930.899891,-1850.514855,-592.164754,-11261.603821
930.900211,666.185348,-592.164754,-9652.803275
930.900531,-814.226536,1258.350101,-10801.946522
930.900851,-1850.514855,1406.391290,-10725.336972
930.901171,148.041188,888.247130,-10189.070123
930.901491,666.185348,888.247130,-10801.946522
930.901811,0.000000,1702.473667,-10572.117872
930.902131,296.082377,2146.597232,-11031.775171
930.902451,222.061783,888.247130,-10265.679673
930.902771,-888.247130,-592.164754,-10112.460574
930.903091,-2368.659014,0.000000,-9882.631924
930.903411,-3627.009116,-1406.391290,-9729.412825
930.903731,-3256.906145,-1628.453072,-9729.412825
930.904051,-296.082377,-814.226536,-9499.584175
930.904371,1184.329507,148.041188,-11874.480219
930.904691,222.061783,592.164754,-10112.460574
930.905011,-3034.844362,444.123565,-8656.879127
930.905331,-2516.700203,444.123565,-10265.679673
930.905651,-888.247130,0.000000,-9193.145976
930.905970,-148.041188,-444.123565,-9499.584175
930.906290,1036.288319,-296.082377,-9422.974625
930.906610,1036.288319,-1702.473667,-9039.926876
930.906930,1628.453072,-2146.597232,-10035.851024
930.907250,592.164754,-740.205942,-9422.974625
930.907570,-1406.391290,-444.123565,-9499.584175
930.907890,962.267725,2812.782580,-10418.898773
930.908210,-1406.391290,4293.194464,-10035.851024
930.908530,148.041188,1850.514855,-10648.727422
930.908849,296.082377,-148.041188,-9729.412825
930.909169,2146.597232,-2442.679609,-10572.117872
930.909489,3034.844362,-2516.700203,-10035.851024
930.909809,2590.720797,-740.205942,-10648.727422
930.910129,1332.370696,1628.453072,-10572.117872
930.910449,444.123565,4663.297435,-10035.851024
930.910769,296.082377,7105.977043,-11874.480219
930.911089,3701.029710,3478.967927,-10878.556072
930.911409,5921.647536,-1776.494261,-11261.603821
930.911728,3552.988522,-3182.885551,-9959.241474
930.912048,370.102971,-1776.494261,-10189.070123
930.912368,0.000000,74.020594,-9576.193725
930.912688,814.226536,1406.391290,-9806.022374
930.913008,1036.288319,2960.823768,-10572.117872
930.913328,370.102971,1332.370696,-9652.803275
930.913648,1480.411884,-2294.638420,-10418.898773
930.913968,3849.070898,-666.185348,-9422.974625
930.914288,3330.926739,518.144159,-10342.289223
930.914607,1998.556043,2442.679609,-9959.241474
930.914927,2960.823768,3256.906145,-10265.679673
930.915247,2072.576638,3034.844362,-10342.289223
930.915567,1406.391290,814.226536,-9729.412825
930.915887,1332.370696,-1406.391290,-9422.974625
930.916207,-370.102971,-2146.597232,-9422.974625
930.916527,-1332.370696,-1036.288319,-9576.193725
930.916847,-814.226536,-444.123565,-9806.022374
930.917167,370.102971,444.123565,-9652.803275
930.917486,74.020594,518.144159,-10035.851024
930.917806,666.185348,370.102971,-10112.460574
930.918126,-1998.556043,2368.659014,-10035.851024
930.918446,-3627.009116,1554.432478,-10418.898773
930.918766,-3330.926739,-740.205942,-9422.974625
930.919086,-1702.473667,-3330.926739,-9652.803275
930.919406,-1406.391290,-3701.029710,-10112.460574
930.919726,-518.144159,-1702.473667,-9882.631924
930.920046,-740.205942,518.144159,-12563.966167
930.920365,-1480.411884,2812.782580,-10265.679673
930.920685,-592.164754,3256.906145,-10189.070123
930.921005,148.041188,1110.308913,-10572.117872
930.921325,296.082377,-1258.350101,-9882.631924
930.921645,-1480.411884,-3256.906145,-9806.022374
930.921965,-1258.350101,-1776.494261,-9959.241474
930.922285,-592.164754,444.123565,-9652.803275
930.922605,1332.370696,1184.329507,-10801.946522
930.922925,1480.411884,592.164754,-9422.974625
930.923244,-296.082377,-1110.308913,-9806.022374
930.923564,0.000000,-2146.597232,-10112.460574
930.923884,296.082377,-1332.370696,-9959.241474
930.924204,-222.061783,1036.288319,-10648.727422
930.924524,-1480.411884,2294.638420,-9882.631924
930.924844,148.041188,814.226536,-9806.022374
930.925164,3034.844362,-888.247130,-10572.117872
930.925484,5699.585753,-1850.514855,-10189.070123
930.925804,4737.318029,-888.247130,-10189.070123
930.926123,1628.453072,1258.350101,-10342.289223
930.926443,518.144159,3701.029710,-10342.289223
930.926763,296.082377,1924.535449,-10265.679673
930.927083,1628.453072,-740.205942,-10035.851024
930.927403,1110.308913,-3923.091493,-9116.536426
930.927723,1776.494261,-3330.926739,-10418.898773
930.928043,1776.494261,-740.205942,-9882.631924
930.928363,3923.091493,3404.947333,-11338.213370
930.928683,4959.379811,5033.400406,-12334.137518
930.929002,2886.803174,3034.844362,-10418.898773
930.929322,1480.411884,370.102971,-10342.289223
930.929642,1850.514855,-962.267725,-10418.898773
930.929962,2812.782580,296.082377,-10189.070123
930.930282,1406.391290,814.226536,-10265.679673
930.930602,888.247130,814.226536,-9499.584175
930.930922,444.123565,740.205942,-9806.022374
930.931242,3182.885551,518.144159,-10495.508323
930.931562,1998.556043,-370.102971,-9806.022374
930.931881,-2368.659014,222.061783,-10035.851024
930.932201,-3330.926739,2590.720797,-10035.851024
930.932521,-1702.473667,1924.535449,-9269.755526
930.932841,1554.432478,1332.370696,-8963.317327
930.933161,1110.308913,-888.247130,-9346.365076
930.933481,-222.061783,-962.267725,-10035.851024
930.933801,-222.061783,-2146.597232,-9193.145976
930.934121,-888.247130,-1406.391290,-9422.974625
930.934441,-1702.473667,0.000000,-9039.926876
930.934760,-1406.391290,592.164754,-9422.974625
930.935080,-2738.761985,1110.308913,-9959.241474
930.935400,-3627.009116,1184.329507,-9959.241474
930.935720,-5033.400406,1406.391290,-10265.679673
930.936040,-3330.926739,814.226536,-10112.460574
930.936360,-1258.350101,518.144159,-10725.336972
930.936680,592.164754,888.247130,-10955.165621
930.937000,666.185348,592.164754,-10572.117872
930.937320,-222.061783,1184.329507,-10955.165621
930.937639,148.041188,1924.535449,-10572.117872
930.937959,0.000000,2886.803174,-11031.775171
930.938279,1036.288319,1184.329507,-10955.165621
930.938599,2442.679609,666.185348,-10418.898773
930.938919,1110.308913,814.226536,-10495.508323
930.939239,1702.473667,1850.514855,-10878.556072
930.939559,2146.597232,2664.741391,-11031.775171
930.939879,2072.576638,1702.473667,-9806.022374
930.940199,1628.453072,444.123565,-9652.803275
930.940518,518.144159,-962.267725,-9959.241474
930.940838,444.123565,-1406.391290,-10265.679673
930.941158,2516.700203,148.041188,-10265.679673
930.941478,2368.659014,1554.432478,-9806.022374
930.941798,2072.576638,2516.700203,-9576.193725
930.942118,666.185348,1258.350101,-9346.365076
930.942438,1702.473667,-592.164754,-10112.460574
930.942758,1406.391290,-1258.350101,-8963.317327
930.943078,814.226536,-2442.679609,-9422.974625
930.943397,1554.432478,-962.267725,-9039.926876
930.943717,2442.679609,1184.329507,-10035.851024
930.944037,3775.050304,3330.926739,-10342.289223
930.944357,1776.494261,3627.009116,-10572.117872
930.944677,1258.350101,888.247130,-9959.241474
930.944997,962.267725,0.000000,-9116.536426
930.945317,1776.494261,-740.205942,-10035.851024
930.945637,2960.823768,-1110.308913,-9882.631924
930.945957,1184.329507,-1184.329507,-9959.241474
930.946276,592.164754,-962.267725,-9499.584175
930.946596,1036.288319,0.000000,-10189.070123
930.946916,592.164754,444.123565,-10801.946522
930.947236,0.000000,444.123565,-10189.070123
930.947556,-1332.370696,444.123565,-9652.803275
930.947876,-1184.329507,-296.082377,-10035.851024
930.948196,-148.041188,-1776.494261,-9882.631924
930.948516,-592.164754,-2294.638420,-10342.289223
930.948836,-1036.288319,-1998.556043,-9806.022374
930.949155,-2146.597232,-518.144159,-10495.508323
930.949475,-3775.050304,1406.391290,-10342.289223
930.949795,-3478.967927,2072.576638,-9882.631924
930.950115,74.020594,814.226536,-10648.727422
930.950435,3775.050304,-1332.370696,-10648.727422
930.950755,2516.700203,-3034.844362,-10342.289223
930.951075,-444.123565,-3997.112087,-9729.412825
930.951395,-814.226536,-2220.617826,-9652.803275
930.951715,-1406.391290,592.164754,-10495.508323
930.952034,-1110.308913,2368.659014,-10035.851024
930.952354,-1998.556043,1554.432478,-10112.460574
930.952674,-1850.514855,-370.102971,-10112.460574
930.952994,-444.123565,-1924.535449,-10035.851024
930.953314,74.020594,-2442.679609,-10112.460574
930.953634,-222.061783,-2664.741391,-9422.974625
930.953954,-2368.659014,-2072.576638,-9806.022374
930.954274,-2368.659014,-1110.308913,-10342.289223
930.954594,-148.041188,74.020594,-9806.022374
930.954913,1776.494261,-148.041188,-10342.289223
930.955233,2960.823768,370.102971,-9729.412825
930.955553,1924.535449,-222.061783,-9576.193725
930.955873,2072.576638,1332.370696,-10648.727422
930.956193,2220.617826,888.247130,-10265.679673
930.956513,3256.906145,740.205942,-10955.165621
930.956833,666.185348,-518.144159,-10572.117872
930.957153,1406.391290,-666.185348,-9269.755526
930.957473,296.082377,1258.350101,-10495.508323
930.957792,3849.070898,1702.473667,-10572.117872
930.958112,3330.926739,3256.906145,-10801.946522
930.958432,-518.144159,2368.659014,-9269.755526
930.958752,-888.247130,148.041188,-9959.241474
930.959072,1924.535449,-296.082377,-9806.022374
930.959392,4145.153275,0.000000,-10189.070123
930.959712,3997.112087,0.000000,-10035.851024
930.960032,2738.761985,2812.782580,-10495.508323
930.960352,2960.823768,3108.864956,-10495.508323
930.960672,3256.906145,3775.050304,-10112.460574
930.960991,3034.844362,1628.453072,-10342.289223
930.961311,2072.576638,444.123565,-10495.508323
930.961631,74.020594,888.247130,-10035.851024
930.961951,-592.164754,148.041188,-9729.412825
930.962271,1332.370696,-962.267725,-9422.974625
930.962591,2516.700203,74.020594,-9959.241474
930.962911,1924.535449,296.082377,-10189.070123
930.963231,-1332.370696,1924.535449,-10418.898773
930.963551,-1406.391290,2072.576638,-9806.022374
930.963870,-592.164754,2368.659014,-10495.508323
930.964190,962.267725,1628.453072,-9193.145976
930.964510,518.144159,518.144159,-10189.070123
930.964830,-1850.514855,-444.123565,-9193.145976
930.965150,-1332.370696,-148.041188,-9806.022374
930.965470,-1332.370696,1036.288319,-9652.803275
930.965790,-2294.638420,1332.370696,-9882.631924
930.966110,-2886.803174,1480.411884,-9729.412825
930.966430,-3034.844362,-370.102971,-10112.460574
930.966749,-1110.308913,-1554.432478,-9269.755526
930.967069,0.000000,222.061783,-9346.365076
930.967389,-666.185348,296.082377,-10265.679673
930.967709,-666.185348,2146.597232,-9959.241474
930.968029,-1406.391290,444.123565,-9806.022374
930.968349,-962.267725,1258.350101,-10878.556072
930.968669,-1184.329507,814.226536,-10035.851024
930.968989,-888.247130,444.123565,-10572.117872
930.969309,-814.226536,740.205942,-10342.289223
930.969628,-1184.329507,-222.061783,-9806.022374
930.969948,-592.164754,0.000000,-10035.851024
930.970268,-370.102971,-1184.329507,-10342.289223
930.970588,814.226536,-1258.350101,-9959.241474
930.970908,1184.329507,-444.123565,-10418.898773
930.971228,296.082377,148.041188,-10418.898773
930.971548,1850.514855,1998.556043,-10572.117872
930.971868,2146.597232,3108.864956,-11184.994271
930.972188,2960.823768,222.061783,-10648.727422
930.972507,1184.329507,-296.082377,-10189.070123
930.972827,148.041188,-2368.659014,-10495.508323
930.973147,0.000000,-1998.556043,-9652.803275
930.973467,1258.350101,-444.123565,-9959.241474
930.973787,3627.009116,370.102971,-10572.117872
930.974107,2960.823768,1480.411884,-10265.679673
930.974427,2368.659014,-888.247130,-10572.117872
930.974747,1924.535449,-1702.473667,-9346.365076
930.975067,3330.926739,-1332.370696,-9959.241474
930.975386,4515.256246,-888.247130,-9806.022374
930.975706,3182.885551,-296.082377,-10035.851024
930.976026,1036.288319,-296.082377,-9806.022374
930.976346,-370.102971,0.000000,-9959.241474
930.976666,518.144159,814.226536,-9806.022374
930.976986,2220.617826,74.020594,-11491.432470
930.977306,2442.679609,222.061783,-10265.679673
930.977626,2368.659014,-518.144159,-9959.241474
930.977946,1036.288319,-2516.700203,-9576.193725
930.978265,1258.350101,-1628.453072,-9193.145976
930.978585,1924.535449,444.123565,-10495.508323
930.978905,1776.494261,2442.679609,-11261.603821
930.979225,1850.514855,2960.823768,-10725.336972
930.979545,740.205942,2294.638420,-11338.213370
930.979865,888.247130,-518.144159,-10418.898773
930.980185,592.164754,-370.102971,-10189.070123
930.980505,-1184.329507,-1776.494261,-10572.117872
930.980825,-2516.700203,-1554.432478,-9882.631924
930.981144,-4367.215058,444.123565,-9806.022374
930.981464,-2294.638420,222.061783,-10495.508323
930.981784,-222.061783,222.061783,-9959.241474
930.982104,-222.061783,888.247130,-10418.898773
930.982424,-1554.432478,740.205942,-10418.898773
930.982744,-1628.453072,1406.391290,-9499.584175
930.983064,-740.205942,2220.617826,-10725.336972
930.983384,962.267725,962.267725,-10265.679673
930.983704,-296.082377,370.102971,-9806.022374
930.984023,-2220.617826,-1332.370696,-10035.851024
930.984343,-2664.741391,-592.164754,-9346.365076
930.984663,-3108.864956,74.020594,-9652.803275
930.984983,-2294.638420,1554.432478,-9806.022374
930.985303,-2368.659014,1184.329507,-9806.022374
930.985623,-2442.679609,1036.288319,-9346.365076
930.985943,666.185348,-370.102971,-9269.755526
930.986263,3330.926739,-74.020594,-9806.022374
930.986583,3182.885551,814.226536,-9882.631924
930.986902,1554.432478,2368.659014,-10035.851024
930.987222,518.144159,1332.370696,-9806.022374
930.987542,1554.432478,-370.102971,-9576.193725
930.987862,3775.050304,-1554.432478,-10265.679673
930.988182,2220.617826,-1258.350101,-9652.803275
930.988502,1480.411884,1184.329507,-9806.022374
930.988822,222.061783,1998.556043,-9806.022374
930.989142,592.164754,1850.514855,-10955.165621
930.989462,1406.391290,148.041188,-10955.165621
930.989781,296.082377,-1184.329507,-8810.098227
930.990101,0.000000,-222.061783,-9882.631924
930.990421,962.267725,1850.514855,-10265.679673
930.990741,3701.029710,3923.091493,-11108.384721
930.991061,4219.173869,3849.070898,-10801.946522
930.991381,3330.926739,1554.432478,-10725.336972
930.991701,1406.391290,-518.144159,-10265.679673
930.992021,888.247130,-1924.535449,-9729.412825
930.992341,1850.514855,0.000000,-9959.241474
930.992660,3256.906145,2664.741391,-11568.042020
930.992980,4663.297435,2812.782580,-10572.117872
930.993300,5181.441594,1406.391290,-10725.336972
930.993620,3330.926739,-740.205942,-10648.727422
930.993940,2294.638420,296.082377,-9806.022374
930.994260,888.247130,2368.659014,-10725.336972
930.994580,74.020594,1998.556043,-9806.022374
930.994900,-1184.329507,1036.288319,-9882.631924
930.995220,-2220.617826,-740.205942,-9652.803275
930.995539,-740.205942,-3330.926739,-9039.926876
930.995859,1776.494261,-3034.844362,-9346.365076
930.996179,1998.556043,-1998.556043,-9806.022374
930.996499,-962.267725,148.041188,-9729.412825
930.996819,-4071.132681,1702.473667,-8886.707777
930.997139,-3923.091493,74.020594,-9652.803275
930.997459,-1776.494261,0.000000,-9499.584175
930.997779,444.123565,-888.247130,-9882.631924
930.998099,1702.473667,-962.267725,-10189.070123
930.998418,222.061783,-296.082377,-10418.898773
930.998738,-1776.494261,-296.082377,-10189.070123
930.999058,-2590.720797,1110.308913,-10112.460574
930.999378,-3627.009116,518.144159,-10035.851024
930.999698,-3108.864956,518.144159,-10418.898773
931.000018,-1332.370696,74.020594,-10572.117872
931.000338,-1036.288319,-1998.556043,-10725.336972
931.000658,-1554.432478,-1998.556043,-9806.022374
931.000978,-2738.761985,-1258.350101,-9959.241474
931.001297,0.000000,370.102971,-10648.727422
931.001617,1702.473667,2368.659014,-11261.603821
931.001937,1036.288319,2960.823768,-11874.480219
931.002257,0.000000,2738.761985,-10725.336972
931.002577,-962.267725,296.082377,-9422.974625
931.002897,-1184.329507,-444.123565,-10112.460574
931.003217,518.144159,-962.267725,-9959.241474
931.003537,2294.638420,-740.205942,-10035.851024
931.003857,4441.235652,-148.041188,-10342.289223
931.004176,3627.009116,296.082377,-10572.117872
931.004496,1406.391290,1480.411884,-10112.460574
931.004816,296.082377,2664.741391,-9499.584175
931.005136,1628.453072,2960.823768,-10265.679673
931.005456,2812.782580,3034.844362,-9806.022374
931.005776,2368.659014,222.061783,-10112.460574
931.006096,3108.864956,-1628.453072,-9499.584175
931.006416,3256.906145,-740.205942,-9346.365076
931.006735,3330.926739,1998.556043,-10572.117872
931.007055,2812.782580,2812.782580,-10035.851024
931.007375,2368.659014,2886.803174,-9806.022374
931.007695,3182.885551,1554.432478,-9422.974625
931.008015,2960.823768,1332.370696,-9729.412825
931.008335,2738.761985,296.082377,-11261.603821
931.008655,1850.514855,-740.205942,-9806.022374
931.008975,1776.494261,148.041188,-9806.022374
931.009294,1924.535449,1258.350101,-9576.193725
931.009614,3552.988522,3108.864956,-9729.412825
931.009934,5477.523971,4367.215058,-10878.556072
931.010254,3552.988522,5699.585753,-11108.384721
931.010574,888.247130,4885.359217,-11184.994271
931.010894,0.000000,3108.864956,-9882.631924
931.011214,-518.144159,592.164754,-9959.241474
931.011534,-1332.370696,-1924.535449,-10112.460574
931.011853,-1850.514855,-1702.473667,-9269.755526
931.012173,-1628.453072,148.041188,-10189.070123
931.012493,-1258.350101,1850.514855,-10572.117872
931.012813,-148.041188,4293.194464,-9959.241474
931.013133,1628.453072,4145.153275,-11184.994271
931.013453,2368.659014,3627.009116,-10112.460574
931.013773,2516.700203,2072.576638,-10725.336972
931.014093,814.226536,444.123565,-10648.727422
931.014412,-1036.288319,-814.226536,-9652.803275
931.014732,-518.144159,148.041188,-10418.898773
931.015052,1998.556043,1480.411884,-9882.631924
931.015372,1924.535449,1184.329507,-10418.898773
931.015692,-592.164754,2812.782580,-10265.679673
931.016012,-1332.370696,2886.803174,-9806.022374
931.016332,74.020594,1850.514855,-10495.508323
931.016652,2368.659014,1554.432478,-9422.974625
931.016971,1924.535449,148.041188,-9806.022374
931.017291,888.247130,222.061783,-9806.022374
931.017611,1480.411884,-1258.350101,-9346.365076
931.017931,3997.112087,-370.102971,-10035.851024
931.018251,5107.421000,2146.597232,-10112.460574
931.018571,4145.153275,4885.359217,-9652.803275
931.018891,2590.720797,4737.318029,-10955.165621
931.019211,2146.597232,3775.050304,-10112.460574
931.019530,1924.535449,1850.514855,-10189.070123
931.019850,2146.597232,-148.041188,-10189.070123
931.020170,2516.700203,-666.185348,-9116.536426
931.020490,1110.308913,-222.061783,-10112.460574
931.020810,148.041188,0.000000,-9959.241474
931.021130,1258.350101,888.247130,-7737.564530
931.021450,3256.906145,2368.659014,-10725.336972
931.021770,6735.874072,2812.782580,-10189.070123
931.022089,7624.121203,2886.803174,-10342.289223
931.022409,6217.729913,4071.132681,-12334.137518
931.022729,5107.421000,2516.700203,-9729.412825
931.023049,3256.906145,2960.823768,-9959.241474
931.023369,2516.700203,2664.741391,-11031.775171
931.023689,3627.009116,3108.864956,-10189.070123
931.024009,4071.132681,3330.926739,-11031.775171
931.024329,4071.132681,4367.215058,-10572.117872
931.024648,4737.318029,2220.617826,-10955.165621
931.024968,2960.823768,1850.514855,-10035.851024
931.025288,2146.597232,518.144159,-9422.974625
931.025608,2146.597232,370.102971,-9576.193725
931.025928,2812.782580,3775.050304,-9882.631924
931.026248,3108.864956,5255.462188,-10418.898773
931.026568,3108.864956,5033.400406,-9806.022374
931.026888,2220.617826,3182.885551,-9806.022374
931.027207,2146.597232,1628.453072,-9346.365076
931.027527,2072.576638,592.164754,-9193.145976
931.027847,2368.659014,-148.041188,-9116.536426
931.028167,1554.432478,1110.308913,-9346.365076
931.028487,1702.473667,2664.741391,-9729.412825
931.028807,1258.350101,3330.926739,-9576.193725
931.029127,2516.700203,4441.235652,-9729.412825
931.029447,3256.906145,4589.276840,-9576.193725
931.029766,2812.782580,4293.194464,-10112.460574
931.030086,2442.679609,3997.112087,-10189.070123
931.030406,1184.329507,4071.132681,-9959.241474
931.030726,1036.288319,2812.782580,-9959.241474
931.031046,-1110.308913,1850.514855,-9806.022374
931.031366,-2516.700203,1554.432478,-9652.803275
931.031686,-1332.370696,2146.597232,-9806.022374
931.032006,0.000000,3997.112087,-10035.851024
931.032325,444.123565,4959.379811,-9959.241474
931.032645,2368.659014,4737.318029,-10725.336972
931.032965,2812.782580,2738.761985,-10572.117872
931.033285,1998.556043,1924.535449,-10189.070123
931.033605,888.247130,2368.659014,-9806.022374
931.033925,1776.494261,3849.070898,-9576.193725
931.034245,3330.926739,5033.400406,-11338.213370
931.034565,3997.112087,5329.482782,-10572.117872
931.034884,1850.514855,4367.215058,-10572.117872
931.035204,444.123565,3627.009116,-10112.460574
931.035524,2294.638420,888.247130,-9806.022374
931.035844,1924.535449,1258.350101,-10035.851024
931.036164,740.205942,1332.370696,-9806.022374
931.036484,814.226536,2960.823768,-9729.412825
931.036804,2886.803174,2960.823768,-11184.994271
931.037124,3775.050304,2960.823768,-9959.241474
931.037443,4145.153275,2886.803174,-9959.241474
931.037763,4071.132681,3849.070898,-9652.803275
931.038083,5255.462188,4367.215058,-10495.508323
931.038403,5107.421000,4441.235652,-10648.727422
931.038723,3478.967927,3256.906145,-10189.070123
931.039043,1776.494261,1924.535449,-9652.803275
931.039363,2368.659014,370.102971,-9806.022374
931.039683,4737.318029,74.020594,-9499.584175
931.040002,4663.297435,1036.288319,-9959.241474
931.040322,3552.988522,2442.679609,-10112.460574
931.040642,3182.885551,4071.132681,-9729.412825
931.040962,4737.318029,4737.318029,-10418.898773
931.041282,5329.482782,5033.400406,-11031.775171
931.041602,3627.009116,3997.112087,-10572.117872
931.041922,1628.453072,2294.638420,-10035.851024
931.042242,1850.514855,740.205942,-10035.851024
931.042561,2442.679609,-222.061783,-9882.631924
931.042881,2442.679609,-148.041188,-9806.022374
931.043201,1702.473667,222.061783,-9806.022374
931.043521,1628.453072,1480.411884,-9959.241474
931.043841,1924.535449,3034.844362,-9039.926876
931.044161,2664.741391,3923.091493,-10112.460574
931.044481,3775.050304,3404.947333,-10495.508323
931.044801,3108.864956,2368.659014,-10189.070123
931.045120,1998.556043,1480.411884,-10342.289223
931.045440,740.205942,666.185348,-9729.412825
931.045760,962.267725,740.205942,-10189.070123
931.046080,1480.411884,1184.329507,-10265.679673
931.046400,1628.453072,1332.370696,-10035.851024
931.046720,296.082377,2220.617826,-11261.603821
931.047040,-888.247130,1702.473667,-9729.412825
931.047360,-1184.329507,1480.411884,-9269.755526
931.047679,592.164754,2220.617826,-10035.851024
931.047999,3034.844362,1184.329507,-9729.412825
931.048319,3627.009116,888.247130,-10112.460574
931.048639,2072.576638,1036.288319,-10495.508323
931.048959,814.226536,1480.411884,-9882.631924
931.049279,296.082377,2442.679609,-9806.022374
931.049599,2368.659014,2368.659014,-10342.289223
931.049919,2442.679609,1776.494261,-10189.070123
931.050238,2072.576638,1480.411884,-10112.460574
931.050558,2072.576638,1480.411884,-10572.117872
931.050878,2072.576638,3256.906145,-10112.460574
931.051198,1406.391290,3256.906145,-10189.070123
931.051518,1258.350101,3478.967927,-10189.070123
931.051838,2664.741391,2442.679609,-10265.679673
931.052158,3701.029710,2072.576638,-10878.556072
931.052478,3034.844362,2368.659014,-10572.117872
931.052797,1924.535449,3330.926739,-10648.727422
931.053117,1924.535449,3775.050304,-10648.727422
931.053437,2146.597232,4219.173869,-10035.851024
931.053757,1702.473667,2886.803174,-9806.022374
931.054077,2072.576638,1776.494261,-9806.022374
931.054397,3182.885551,592.164754,-9806.022374
931.054717,4293.194464,888.247130,-10265.679673
931.055037,4441.235652,2368.659014,-10035.851024
931.055356,4589.276840,4293.194464,-10035.851024
931.055676,5033.400406,5477.523971,-9652.803275
931.055996,4441.235652,6143.709319,-9806.022374
931.056316,2738.761985,5625.565159,-10495.508323
931.056636,1184.329507,3552.988522,-10418.898773
931.056956,1702.473667,814.226536,-9959.241474
931.057276,3108.864956,-666.185348,-9576.193725
931.057596,3330.926739,-740.205942,-9576.193725
931.057915,2590.720797,1332.370696,-9729.412825
931.058235,2590.720797,4145.153275,-10035.851024
931.058555,3923.091493,6735.874072,-10035.851024
931.058875,5477.523971,7476.080014,-10342.289223
931.059195,5255.462188,6143.709319,-10495.508323
931.059515,4219.173869,3627.009116,-10035.851024
931.059835,2590.720797,1628.453072,-9959.241474
931.060155,592.164754,370.102971,-9576.193725
931.060474,-370.102971,370.102971,-9576.193725
931.060794,0.000000,1110.308913,-9806.022374
931.061114,1480.411884,1480.411884,-9806.022374
931.061434,1480.411884,2590.720797,-9959.241474
931.061754,1924.535449,4219.173869,-10342.289223
931.062074,3108.864956,5033.400406,-10495.508323
931.062394,4293.194464,5625.565159,-10725.336972
931.062714,5477.523971,5033.400406,-10418.898773
931.063033,3923.091493,3701.029710,-10265.679673
931.063353,2072.576638,2368.659014,-10112.460574
931.063673,1258.350101,1776.494261,-10035.851024
931.063993,370.102971,2664.741391,-10265.679673
931.064313,0.000000,2886.803174,-10189.070123
931.064633,-1110.308913,2294.638420,-9806.022374
931.064953,-1850.514855,1258.350101,-9729.412825
931.065273,-740.205942,0.000000,-10342.289223
931.065592,296.082377,518.144159,-9806.022374
931.065912,2516.700203,1406.391290,-9652.803275
931.066232,4811.338623,2294.638420,-9882.631924
931.066552,5921.647536,3775.050304,-9116.536426
931.066872,5699.585753,4737.318029,-10418.898773
931.067192,4071.132681,5773.606348,-10572.117872
931.067512,2886.803174,5403.503377,-10495.508323
931.067832,1628.453072,3775.050304,-10342.289223
931.068151,1332.370696,1702.473667,-9193.145976
931.068471,888.247130,-296.082377,-9882.631924
931.068791,-222.061783,-1332.370696,-9652.803275
931.069111,-814.226536,-1036.288319,-9576.193725
931.069431,0.000000,1110.308913,-9959.241474
931.069751,1776.494261,2442.679609,-10035.851024
931.070071,4071.132681,3034.844362,-9959.241474
931.070391,5699.585753,2664.741391,-10342.289223
931.070711,6661.853478,1628.453072,-10035.851024
931.071030,6439.791695,1702.473667,-10878.556072
931.071350,4663.297435,1184.329507,-10342.289223
931.071670,1850.514855,1702.473667,-10112.460574
931.071990,-370.102971,1924.535449,-9806.022374
931.072310,-1332.370696,1110.308913,-9806.022374
931.072630,-1184.329507,0.000000,-9806.022374
931.072950,-296.082377,-888.247130,-10112.460574
931.073270,666.185348,-1184.329507,-9806.022374
931.073589,1554.432478,0.000000,-9959.241474
931.073909,2220.617826,1924.535449,-10342.289223
931.074229,3701.029710,3478.967927,-10265.679673
931.074549,3552.988522,4293.194464,-10572.117872
931.074869,3330.926739,4367.215058,-10495.508323
931.075189,2738.761985,3627.009116,-10342.289223
931.075509,2664.741391,2368.659014,-10418.898773
931.075829,1628.453072,1406.391290,-10189.070123
931.076148,592.164754,814.226536,-10112.460574
931.076468,518.144159,740.205942,-10035.851024
931.076788,518.144159,1184.329507,-9652.803275
931.077108,1628.453072,2220.617826,-10112.460574
931.077428,2368.659014,3256.906145,-10112.460574
931.077748,3478.967927,3552.988522,-10112.460574
931.078068,4293.194464,4441.235652,-9882.631924
931.078388,6217.729913,4589.276840,-10342.289223
931.078707,6957.935855,4959.379811,-10189.070123
931.079027,6291.750507,5773.606348,-10955.165621
931.079347,4219.173869,6143.709319,-11644.651570
931.079667,2072.576638,5625.565159,-10495.508323
931.079987,0.000000,4293.194464,-10112.460574
931.080307,-740.205942,2072.576638,-9806.022374
931.080627,-444.123565,148.041188,-9499.584175
931.080947,444.123565,-370.102971,-9806.022374
931.081266,1702.473667,296.082377,-9499.584175
931.081586,3108.864956,3034.844362,-9806.022374
931.081906,4737.318029,5625.565159,-9882.631924
931.082226,6143.709319,7254.018232,-10189.070123
931.082546,6439.791695,7772.162391,-10572.117872
931.082866,5107.421000,6883.915261,-10495.508323
931.083186,3775.050304,5107.421000,-10112.460574
931.083506,3552.988522,3627.009116,-10265.679673
931.083825,2960.823768,2220.617826,-9806.022374
931.084145,296.082377,2146.597232,-9729.412825
931.084465,-2072.576638,2664.741391,-9652.803275
931.084785,-2664.741391,3034.844362,-9499.584175
931.085105,-1184.329507,3330.926739,-9806.022374
931.085425,1702.473667,2960.823768,-10035.851024
931.085745,2886.803174,2368.659014,-9959.241474
931.086065,2960.823768,2664.741391,-9806.022374
931.086384,3330.926739,3701.029710,-9959.241474
931.086704,4367.215058,4885.359217,-9882.631924
931.087024,5625.565159,5847.626942,-10572.117872
931.087344,5625.565159,5921.647536,-10648.727422
931.087664,3182.885551,4663.297435,-10572.117872
931.087984,-222.061783,3478.967927,-10112.460574
931.088304,-2368.659014,1480.411884,-9959.241474
931.088624,-1998.556043,444.123565,-9882.631924
931.088943,-1110.308913,-222.061783,-9652.803275
931.089263,-814.226536,-148.041188,-9576.193725
931.089583,296.082377,444.123565,-9269.755526
931.089903,3108.864956,2220.617826,-9959.241474
931.090223,5551.544565,4293.194464,-10648.727422
931.090543,6217.729913,5699.585753,-10572.117872
931.090863,5255.462188,5699.585753,-10418.898773
931.091183,4515.256246,4145.153275,-10112.460574
931.091502,3256.906145,2072.576638,-10035.851024
931.091822,1850.514855,222.061783,-9422.974625
931.092142,888.247130,-296.082377,-9729.412825
931.092462,962.267725,-592.164754,-9806.022374
931.092782,740.205942,74.020594,-9576.193725
931.093102,-296.082377,1554.432478,-9729.412825
931.093422,666.185348,2294.638420,-9959.241474
931.093742,3182.885551,3034.844362,-9882.631924
931.094061,5403.503377,2368.659014,-10265.679673
931.094381,6661.853478,1924.535449,-10265.679673
931.094701,6661.853478,2072.576638,-10648.727422
931.095021,5255.462188,3701.029710,-10801.946522
931.095341,3256.906145,4367.215058,-10342.289223
931.095661,1036.288319,4293.194464,-10801.946522
931.095981,222.061783,2220.617826,-10648.727422
931.096301,740.205942,-148.041188,-9959.241474
931.096620,814.226536,-1998.556043,-10495.508323
931.096940,296.082377,-2368.659014,-9806.022374
931.097260,0.000000,-814.226536,-9346.365076
931.097580,1110.308913,962.267725,-10189.070123
931.097900,3330.926739,2516.700203,-10035.851024
931.098220,4737.318029,3552.988522,-10418.898773
931.098540,5773.606348,3849.070898,-11031.775171
931.098860,5773.606348,3627.009116,-10189.070123
931.099179,4219.173869,3997.112087,-10572.117872
931.099499,2886.803174,3330.926739,-11414.822920
931.099819,1850.514855,1554.432478,-9652.803275
931.100139,-296.082377,518.144159,-9806.022374
931.100459,-3330.926739,-148.041188,-9806.022374
931.100779,-4959.379811,148.041188,-9806.022374
931.101099,-4737.318029,0.000000,-9576.193725
931.101419,148.041188,0.000000,-9576.193725
931.101738,4663.297435,444.123565,-9806.022374
931.102058,5699.585753,1998.556043,-10265.679673
931.102378,5033.400406,3923.091493,-10189.070123
931.102698,4145.153275,5477.523971,-10112.460574
931.103018,5329.482782,6291.750507,-10801.946522
931.103338,5477.523971,5847.626942,-10572.117872
931.103658,3701.029710,4145.153275,-10725.336972
931.103978,-1110.308913,1480.411884,-10035.851024
931.104298,-1998.556043,0.000000,-9116.536426
931.104618,-740.205942,740.205942,-10495.508323
931.104938,444.123565,740.205942,-10342.289223
931.105258,-888.247130,2072.576638,-9729.412825
931.105578,-370.102971,2072.576638,-10189.070123
931.105898,3404.947333,3034.844362,-9652.803275
931.106217,6365.771101,5033.400406,-10955.165621
931.106537,7105.977043,6513.812290,-10955.165621
931.106857,6365.771101,6957.935855,-10265.679673
931.107177,5995.668130,5995.668130,-10878.556072
931.107497,6143.709319,4811.338623,-10648.727422
931.107817,5107.421000,3330.926739,-10189.070123
931.108137,1406.391290,4441.235652,-9959.241474
931.108457,518.144159,3256.906145,-9959.241474
931.108777,444.123565,2368.659014,-9729.412825
931.109097,-148.041188,740.205942,-9959.241474
931.109417,-1332.370696,444.123565,-8503.660028
931.109737,0.000000,814.226536,-9422.974625
931.110057,4293.194464,2812.782580,-9729.412825
931.110377,6439.791695,4737.318029,-9806.022374
931.110697,6513.812290,6069.688724,-9806.022374
931.111016,6365.771101,6365.771101,-10189.070123
931.111336,5477.523971,5107.421000,-10112.460574
931.111656,4071.132681,4293.194464,-10572.117872
931.111976,1184.329507,3108.864956,-9882.631924
931.112296,74.020594,2590.720797,-9729.412825
931.112616,148.041188,2368.659014,-9729.412825
931.112936,-1036.288319,1924.535449,-9729.412825
931.113256,-1998.556043,814.226536,-9652.803275
931.113576,-814.226536,148.041188,-9269.755526
931.113896,1332.370696,370.102971,-9729.412825
931.114216,2664.741391,2664.741391,-9806.022374
931.114536,3034.844362,4219.173869,-10648.727422
931.114856,4145.153275,5107.421000,-10572.117872
931.115176,4811.338623,5551.544565,-10495.508323
931.115496,4737.318029,5255.462188,-10801.946522
931.115816,2812.782580,4737.318029,-11184.994271
931.116135,222.061783,3034.844362,-10878.556072
931.116455,-1406.391290,1554.432478,-9959.241474
931.116775,-1258.350101,148.041188,-10418.898773
931.117095,-888.247130,-444.123565,-10265.679673
931.117415,-1036.288319,-518.144159,-9806.022374
931.117735,-74.020594,814.226536,-10418.898773
931.118055,2516.700203,3330.926739,-10342.289223
931.118375,5033.400406,6587.832884,-10725.336972
931.118695,7031.956449,7624.121203,-10878.556072
931.119015,8142.265362,5773.606348,-10265.679673
931.119335,7105.977043,3034.844362,-9499.584175
931.119655,5699.585753,-666.185348,-10112.460574
931.119975,3330.926739,-2146.597232,-9269.755526
931.120295,814.226536,-740.205942,-9576.193725
931.120615,-518.144159,3108.864956,-9652.803275
931.120934,-518.144159,4885.359217,-10112.460574
931.121254,-1036.288319,5329.482782,-10112.460574
931.121574,-1924.535449,3182.885551,-9806.022374
931.121894,-592.164754,222.061783,-9729.412825
931.122214,2664.741391,-1554.432478,-8656.879127
931.122534,5625.565159,-814.226536,-9269.755526
931.122854,7550.100608,814.226536,-9806.022374
931.123174,8660.409521,2516.700203,-9806.022374
931.123494,7105.977043,4219.173869,-10418.898773
931.123814,4959.379811,4293.194464,-10955.165621
931.124134,2886.803174,3627.009116,-10112.460574
931.124454,1258.350101,3627.009116,-10801.946522
931.124774,-370.102971,1924.535449,-10495.508323
931.125094,-370.102971,-518.144159,-10572.117872
931.125414,-1776.494261,-2738.761985,-10418.898773
931.125733,-888.247130,-3701.029710,-10035.851024
931.126053,444.123565,-2072.576638,-9576.193725
931.126373,814.226536,1184.329507,-10955.165621
931.126693,4441.235652,3034.844362,-9959.241474
931.127013,7105.977043,4737.318029,-10342.289223
931.127333,6957.935855,5255.462188,-11491.432470
931.127653,4737.318029,3627.009116,-10725.336972
931.127973,2368.659014,2516.700203,-10112.460574
931.128293,1628.453072,592.164754,-10955.165621
931.128613,1702.473667,-592.164754,-10112.460574
931.128933,-1258.350101,-518.144159,-10035.851024
931.129253,-3108.864956,296.082377,-10112.460574
931.129573,-740.205942,1628.453072,-9652.803275
931.129893,2220.617826,2738.761985,-10955.165621
931.130213,2812.782580,1776.494261,-10265.679673
931.130533,518.144159,1184.329507,-9882.631924
931.130852,-518.144159,962.267725,-10189.070123
931.131172,1332.370696,888.247130,-8810.098227
931.131492,2220.617826,1554.432478,-10572.117872
931.131812,3182.885551,1924.535449,-10265.679673
931.132132,2886.803174,2146.597232,-9576.193725
931.132452,666.185348,2516.700203,-10801.946522
931.132772,-592.164754,1554.432478,-9576.193725
931.133092,-3034.844362,1332.370696,-9652.803275
931.133412,-2442.679609,0.000000,-10418.898773
931.133732,666.185348,-2368.659014,-9576.193725
931.134052,74.020594,-2146.597232,-9806.022374
931.134372,-444.123565,-962.267725,-10112.460574
931.134692,74.020594,592.164754,-10112.460574
931.135012,2664.741391,4071.132681,-10495.508323
931.135332,4219.173869,4885.359217,-10725.336972
931.135651,2442.679609,4071.132681,-10648.727422
931.135971,222.061783,1702.473667,-10801.946522
931.136291,-1480.411884,444.123565,-9806.022374
931.136611,-1110.308913,0.000000,-10495.508323
931.136931,-1036.288319,962.267725,-10112.460574
931.137251,-1406.391290,444.123565,-10265.679673
931.137571,-888.247130,222.061783,-9959.241474
931.137891,-1628.453072,-148.041188,-9882.631924
931.138211,-1110.308913,1332.370696,-9576.193725
931.138531,-1184.329507,1480.411884,-10112.460574
931.138851,814.226536,1406.391290,-9959.241474
931.139171,3182.885551,1776.494261,-10265.679673
931.139491,4663.297435,592.164754,-9806.022374
931.139811,4145.153275,1110.308913,-9806.022374
931.140131,2368.659014,1776.494261,-9959.241474
931.140451,1776.494261,1776.494261,-9499.584175
931.140770,888.247130,592.164754,-9499.584175
931.141090,1036.288319,-666.185348,-10035.851024
931.141410,-740.205942,-2368.659014,-9193.145976
931.141730,-2960.823768,-2886.803174,-9499.584175
931.142050,-2738.761985,-1628.453072,-9806.022374
931.142370,-148.041188,-1480.411884,-8886.707777
931.142690,2664.741391,222.061783,-10189.070123
931.143010,3256.906145,1998.556043,-10265.679673
931.143330,3701.029710,3552.988522,-10342.289223
931.143650,4367.215058,4071.132681,-10878.556072
931.143970,4959.379811,3404.947333,-10801.946522
931.144290,3997.112087,1406.391290,-10342.289223
931.144610,1998.556043,-444.123565,-10418.898773
931.144930,74.020594,-1998.556043,-9806.022374
931.145250,-814.226536,-3034.844362,-10495.508323
931.145569,-1258.350101,-1998.556043,-10572.117872
931.145889,-1110.308913,370.102971,-10265.679673
931.146209,-370.102971,2960.823768,-10189.070123
931.146529,2072.576638,3849.070898,-10495.508323
931.146849,3404.947333,1332.370696,-11338.213370
931.147169,2960.823768,0.000000,-10648.727422
931.147489,74.020594,-962.267725,-10342.289223
931.147809,-740.205942,-370.102971,-9806.022374
931.148129,-1110.308913,0.000000,-10035.851024
931.148449,-148.041188,74.020594,-9882.631924
931.148769,740.205942,222.061783,-9959.241474
931.149089,296.082377,0.000000,-9729.412825
931.149409,148.041188,0.000000,-10495.508323
931.149729,-2368.659014,0.000000,-10495.508323
931.150049,-3849.070898,518.144159,-9499.584175
931.150369,-2072.576638,-518.144159,-9116.536426
931.150688,0.000000,-1184.329507,-9193.145976
931.151008,444.123565,-1480.411884,-9806.022374
931.151328,0.000000,-370.102971,-9422.974625
931.151648,1998.556043,1776.494261,-10418.898773
931.151968,2590.720797,3849.070898,-10725.336972
931.152288,222.061783,2960.823768,-9882.631924
931.152608,-3404.947333,740.205942,-10265.679673
931.152928,-3775.050304,-1850.514855,-9193.145976
931.153248,-2368.659014,-2294.638420,-9806.022374
931.153568,148.041188,-148.041188,-9269.755526
931.153888,740.205942,1628.453072,-10112.460574
931.154208,444.123565,2886.803174,-10801.946522
931.154528,2146.597232,1850.514855,-10418.898773
931.154848,3775.050304,296.082377,-10878.556072
931.155168,1850.514855,74.020594,-10648.727422
931.155487,-814.226536,666.185348,-10265.679673
931.155807,-222.061783,2442.679609,-10265.679673
931.156127,2368.659014,1406.391290,-10265.679673
931.156447,2738.761985,-296.082377,-10878.556072
931.156767,-740.205942,-2368.659014,-9882.631924
931.157087,-3478.967927,-2442.679609,-9576.193725
931.157407,-2516.700203,-1332.370696,-9039.926876
931.157727,-1776.494261,0.000000,-9269.755526
931.158047,74.020594,740.205942,-9576.193725
931.158367,2442.679609,74.020594,-9652.803275
931.158687,4589.276840,-1776.494261,-9959.241474
931.159007,5255.462188,-1776.494261,-9422.974625
931.159327,3849.070898,592.164754,-10112.460574
931.159647,888.247130,2812.782580,-9959.241474
931.159967,1628.453072,3108.864956,-9959.241474
931.160286,2590.720797,370.102971,-10495.508323
931.160606,3849.070898,-1702.473667,-9729.412825
931.160926,2886.803174,-2072.576638,-10035.851024
931.161246,444.123565,-1036.288319,-10265.679673
931.161566,-666.185348,1628.453072,-10035.851024
931.161886,-148.041188,2368.659014,-10265.679673
931.162206,814.226536,2220.617826,-9652.803275
931.162526,1406.391290,888.247130,-10648.727422
931.162846,2220.617826,0.000000,-11108.384721
931.163166,1924.535449,-592.164754,-9806.022374
931.163486,370.102971,-370.102971,-10495.508323
931.163806,-666.185348,-518.144159,-10189.070123
931.164126,-888.247130,-296.082377,-10495.508323
931.164446,148.041188,-592.164754,-10265.679673
931.164766,-740.205942,666.185348,-10035.851024
931.165086,-2072.576638,1850.514855,-12104.308868
931.165405,-1480.411884,1998.556043,-10265.679673
931.165725,1998.556043,888.247130,-10572.117872
931.166045,4367.215058,0.000000,-10035.851024
931.166365,1036.288319,-518.144159,-10572.117872
931.166685,-3775.050304,0.000000,-10189.070123
931.167005,-4663.297435,1258.350101,-9652.803275
931.167325,-1998.556043,1924.535449,-10418.898773
931.167645,1924.535449,1628.453072,-10189.070123
931.167965,1998.556043,296.082377,-9346.365076
931.168285,148.041188,-592.164754,-10418.898773
931.168605,-2294.638420,666.185348,-9729.412825
931.168925,-2590.720797,2590.720797,-10189.070123
931.169245,-888.247130,2294.638420,-9959.241474
931.169565,0.000000,-740.205942,-9576.193725
931.169885,0.000000,-2516.700203,-9576.193725
931.170204,0.000000,-2368.659014,-9116.536426
931.170524,592.164754,296.082377,-10418.898773
931.170844,518.144159,3627.009116,-10189.070123
931.171164,-148.041188,4367.215058,-10878.556072
931.171484,-1184.329507,2664.741391,-10112.460574
931.171804,-1258.350101,-592.164754,-9422.974625
931.172124,-1110.308913,-2516.700203,-9652.803275
931.172444,222.061783,-2368.659014,-9882.631924
931.172764,1554.432478,-1406.391290,-10265.679673
931.173084,1332.370696,222.061783,-10342.289223
931.173404,0.000000,592.164754,-9576.193725
931.173724,666.185348,1110.308913,-10495.508323
931.174044,2812.782580,1332.370696,-10035.851024
931.174364,5847.626942,1258.350101,-10189.070123
931.174684,6365.771101,1850.514855,-10955.165621
931.175004,5033.400406,1110.308913,-10265.679673
931.175323,4737.318029,-666.185348,-10112.460574
931.175643,2960.823768,-444.123565,-10648.727422
931.175963,1036.288319,888.247130,-10265.679673
931.176283,-222.061783,2886.803174,-9806.022374
931.176603,-666.185348,4589.276840,-10801.946522
931.176923,444.123565,3552.988522,-10572.117872
931.177243,962.267725,1702.473667,-10265.679673
931.177563,1628.453072,-1554.432478,-10112.460574
931.177883,2220.617826,-3256.906145,-9116.536426
931.178203,1776.494261,-4219.173869,-9806.022374
931.178523,2220.617826,-2072.576638,-9039.926876
931.178843,1628.453072,814.226536,-9806.022374
931.179163,814.226536,2960.823768,-10878.556072
931.179483,74.020594,2442.679609,-9729.412825
931.179803,0.000000,740.205942,-10189.070123
931.180122,1036.288319,-1406.391290,-9806.022374
931.180442,1184.329507,-2738.761985,-9729.412825
931.180762,-1554.432478,-3627.009116,-9499.584175
931.181082,-3775.050304,-1924.535449,-9806.022374
931.181402,-2368.659014,-1480.411884,-9959.241474
931.181722,1702.473667,-1036.288319,-9806.022374
931.182042,962.267725,0.000000,-9269.755526
931.182362,-1850.514855,1776.494261,-10648.727422
931.182682,-3701.029710,2072.576638,-10112.460574
931.183002,-2072.576638,1702.473667,-10878.556072
931.183322,-666.185348,666.185348,-10801.946522
931.183642,-1480.411884,-1406.391290,-10035.851024
931.183962,-814.226536,-2590.720797,-10725.336972
931.184282,888.247130,-1036.288319,-10495.508323
931.184602,1184.329507,1998.556043,-10955.165621
931.184921,-518.144159,3849.070898,-11338.213370
931.185241,-2738.761985,1258.350101,-10112.460574
931.185561,-2886.803174,-296.082377,-9346.365076
931.185881,-2442.679609,-2294.638420,-10112.460574
931.186201,-148.041188,-2146.597232,-9193.145976
931.186521,592.164754,-1036.288319,-10648.727422
931.186841,1702.473667,0.000000,-9806.022374
931.187161,740.205942,962.267725,-10725.336972
931.187481,74.020594,-296.082377,-10112.460574
931.187801,-1628.453072,-1332.370696,-10418.898773
931.188121,-3034.844362,-1776.494261,-8963.317327
931.188441,-1110.308913,-148.041188,-10418.898773
931.188761,148.041188,-1480.411884,-9806.022374
931.189081,1332.370696,-2442.679609,-8810.098227
931.189401,2812.782580,-3330.926739,-9652.803275
931.189721,6365.771101,-1406.391290,-9882.631924
931.190040,5477.523971,1406.391290,-10878.556072
931.190360,1998.556043,3404.947333,-10955.165621
931.190680,666.185348,1332.370696,-9346.365076
931.191000,-222.061783,814.226536,-10495.508323
931.191320,3034.844362,-592.164754,-10112.460574
931.191640,3627.009116,-1332.370696,-10572.117872
931.191960,3034.844362,296.082377,-10572.117872
931.192280,2590.720797,1702.473667,-10572.117872
931.192600,2220.617826,2886.803174,-10878.556072
931.192920,888.247130,2516.700203,-9959.241474
931.193240,-1184.329507,1480.411884,-10189.070123
931.193560,-888.247130,0.000000,-9959.241474
931.193880,3775.050304,0.000000,-10342.289223
931.194200,5625.565159,1628.453072,-10418.898773
931.194520,4219.173869,1184.329507,-10342.289223
931.194839,2368.659014,962.267725,-10648.727422
931.195159,1110.308913,1110.308913,-9959.241474
931.195479,1406.391290,2294.638420,-10189.070123
931.195799,1702.473667,2590.720797,-10572.117872
931.196119,888.247130,2072.576638,-10572.117872
931.196439,222.061783,222.061783,-10342.289223
931.196759,-814.226536,-740.205942,-9729.412825
931.197079,-1258.350101,-1258.350101,-9346.365076
931.197399,-1110.308913,-1776.494261,-9652.803275
931.197719,-1036.288319,148.041188,-8273.831378
931.198039,1184.329507,2516.700203,-9882.631924
931.198359,2886.803174,3775.050304,-10265.679673
931.198679,1110.308913,3108.864956,-9806.022374
931.198999,-1628.453072,2368.659014,-9806.022374
931.199319,-3627.009116,1480.411884,-9346.365076
931.199639,-2960.823768,-888.247130,-9806.022374
931.199958,-2072.576638,-1924.535449,-9269.755526
931.200278,-2960.823768,-1776.494261,-9576.193725
931.200598,-1924.535449,1036.288319,-9193.145976
931.200918,-1258.350101,1258.350101,-10189.070123
931.201238,1628.453072,2590.720797,-10955.165621
931.201558,814.226536,2738.761985,-9882.631924
931.201878,-444.123565,1480.411884,-10418.898773
931.202198,-1702.473667,1110.308913,-10265.679673
931.202518,-2368.659014,-740.205942,-10265.679673
931.202838,-1998.556043,-666.185348,-9959.241474
931.203158,-518.144159,-740.205942,-9959.241474
931.203478,0.000000,-222.061783,-10418.898773
931.203798,1332.370696,74.020594,-10572.117872
931.204118,0.000000,666.185348,-10418.898773
931.204438,-2072.576638,222.061783,-9882.631924
931.204758,-2516.700203,0.000000,-10342.289223
931.205077,0.000000,-888.247130,-11031.775171
931.205397,2738.761985,-1480.411884,-10725.336972
931.205717,1258.350101,-1184.329507,-9882.631924
931.206037,888.247130,-222.061783,-10572.117872
931.206357,1036.288319,-74.020594,-9193.145976
931.206677,2960.823768,962.267725,-10801.946522
931.206997,3775.050304,1332.370696,-10725.336972
931.207317,4219.173869,370.102971,-10801.946522
931.207637,2664.741391,-740.205942,-10265.679673
931.207957,0.000000,-1480.411884,-10035.851024
931.208277,-148.041188,-814.226536,-10265.679673
931.208597,962.267725,-592.164754,-10572.117872
931.208917,3034.844362,222.061783,-10418.898773
931.209237,3552.988522,1036.288319,-10112.460574
931.209557,2516.700203,962.267725,-10495.508323
931.209877,3256.906145,888.247130,-9499.584175
931.210197,3997.112087,-1406.391290,-10342.289223
931.210517,3923.091493,-2590.720797,-10265.679673
931.210837,1850.514855,-3627.009116,-9269.755526
931.211157,-1110.308913,-1258.350101,-9882.631924
931.211477,-1480.411884,-370.102971,-9729.412825
931.211797,-2220.617826,296.082377,-10189.070123
931.212117,-296.082377,-370.102971,-9652.803275
931.212437,-1036.288319,-2812.782580,-8810.098227
931.212757,0.000000,-3330.926739,-9882.631924
931.213077,2886.803174,-2590.720797,-10035.851024
931.213397,2368.659014,-814.226536,-9576.193725
931.213717,444.123565,1554.432478,-9959.241474
931.214037,74.020594,2368.659014,-9652.803275
931.214357,1036.288319,1924.535449,-10265.679673
931.214677,518.144159,444.123565,-10265.679673
931.214997,-962.267725,-148.041188,-9959.241474
931.215317,-814.226536,-370.102971,-10342.289223
931.215636,-1554.432478,148.041188,-10342.289223
931.215956,-2812.782580,-1036.288319,-10189.070123
931.216276,-2442.679609,-518.144159,-10035.851024
931.216596,-3552.988522,1110.308913,-10418.898773
931.216916,-3256.906145,2368.659014,-10648.727422
931.217236,-1554.432478,3627.009116,-10265.679673
931.217556,-148.041188,3849.070898,-10725.336972
931.217876,962.267725,2146.597232,-12563.966167
931.218196,1850.514855,-444.123565,-10418.898773
931.218516,666.185348,-1184.329507,-10265.679673
931.218836,-1702.473667,-370.102971,-9806.022374
931.219156,-1628.453072,592.164754,-10035.851024
931.219476,2220.617826,1184.329507,-10265.679673
931.219796,1628.453072,1998.556043,-10495.508323
931.220116,592.164754,1110.308913,-9959.241474
931.220436,148.041188,-148.041188,-9882.631924
931.220756,-962.267725,-814.226536,-9806.022374
931.221076,814.226536,-888.247130,-9882.631924
931.221396,2294.638420,1332.370696,-9652.803275
931.221716,1554.432478,2368.659014,-9499.584175
931.222036,4293.194464,1998.556043,-10418.898773
931.222356,4811.338623,1480.411884,-10035.851024
931.222676,3552.988522,1702.473667,-10035.851024
931.222996,222.061783,1406.391290,-9729.412825
931.223316,-370.102971,1406.391290,-9269.755526
931.223636,296.082377,1110.308913,-10035.851024
931.223956,1924.535449,592.164754,-10189.070123
931.224276,1110.308913,0.000000,-9806.022374
931.224596,2072.576638,-666.185348,-10189.070123
931.224916,4219.173869,1258.350101,-9959.241474
931.225236,3330.926739,2664.741391,-10572.117872
931.225556,2442.679609,3256.906145,-10572.117872
931.225876,370.102971,3182.885551,-10265.679673
931.226195,814.226536,2368.659014,-10955.165621
931.226515,1628.453072,814.226536,-10801.946522
931.226835,1406.391290,-814.226536,-10418.898773
931.227155,740.205942,-1332.370696,-10342.289223
931.227475,-2072.576638,0.000000,-10265.679673
931.227795,-3849.070898,-1184.329507,-9959.241474
931.228115,-3182.885551,74.020594,-9806.022374
931.228435,-1554.432478,296.082377,-10342.289223
931.228755,1406.391290,-740.205942,-10418.898773
931.229075,2146.597232,0.000000,-10495.508323
931.229395,814.226536,0.000000,-9576.193725
931.229715,-148.041188,0.000000,-9806.022374
931.230035,592.164754,148.041188,-9806.022374
931.230355,1628.453072,1480.411884,-10189.070123
931.230675,1258.350101,1332.370696,-10112.460574
931.230995,-666.185348,1480.411884,-9729.412825
931.231315,-3478.967927,1184.329507,-10265.679673
931.231635,-3330.926739,-518.144159,-10035.851024
931.231955,-2146.597232,-2664.741391,-9269.755526
931.232275,-962.267725,-2368.659014,-9729.412825
931.232595,148.041188,-3330.926739,-9652.803275
931.232915,-888.247130,-2886.803174,-9116.536426
931.233235,-1110.308913,222.061783,-10572.117872
931.233555,-1184.329507,2738.761985,-10035.851024
931.233875,2146.597232,4737.318029,-10878.556072
931.234195,1332.370696,2072.576638,-10725.336972
931.234515,814.226536,-1850.514855,-9806.022374
931.234835,-740.205942,-3478.967927,-10189.070123
931.235155,-1036.288319,-4737.318029,-9652.803275
931.235475,370.102971,-4145.153275,-10035.851024
931.235795,1628.453072,-1702.473667,-10112.460574
931.236115,1332.370696,888.247130,-10878.556072
931.236435,1036.288319,1998.556043,-9806.022374
931.236754,2368.659014,2812.782580,-11644.651570
931.237074,2220.617826,1258.350101,-10342.289223
931.237394,2738.761985,-370.102971,-10112.460574
931.237714,2812.782580,-1258.350101,-10725.336972
931.238034,2368.659014,-1850.514855,-9806.022374
