#time,accel_x,accel_y,accel_z
943.932478,222.061783,592.164754,-10342.289223
943.932798,370.102971,296.082377,-10112.460574
943.933119,814.226536,370.102971,-10342.289223
943.933439,1184.329507,0.000000,-10265.679673
943.933759,518.144159,0.000000,-10112.460574
943.934079,0.000000,148.041188,-10035.851024
943.934400,-222.061783,814.226536,-9806.022374
943.934720,666.185348,296.082377,-10189.070123
943.935040,222.061783,296.082377,-9959.241474
943.935360,222.061783,148.041188,-10035.851024
943.935681,888.247130,148.041188,-10189.070123
943.936001,592.164754,444.123565,-10342.289223
943.936321,740.205942,518.144159,-10265.679673
943.936642,-74.020594,148.041188,-9882.631924
943.936962,0.000000,-370.102971,-9959.241474
943.937282,74.020594,74.020594,-10112.460574
943.937602,296.082377,0.000000,-10418.898773
943.937923,-370.102971,0.000000,-10265.679673
943.938243,-740.205942,-74.020594,-10112.460574
943.938563,-296.082377,-296.082377,-9959.241474
943.938883,-296.082377,-296.082377,-9882.631924
943.939204,-740.205942,0.000000,-10112.460574
943.939524,-592.164754,-222.061783,-10112.460574
943.939844,0.000000,-296.082377,-9882.631924
943.940165,0.000000,-518.144159,-10035.851024
943.940485,-1110.308913,-962.267725,-9959.241474
943.940805,-1258.350101,-1332.370696,-9576.193725
943.941125,-962.267725,-962.267725,-9882.631924
943.941446,-592.164754,-888.247130,-9576.193725
943.941766,-1406.391290,-740.205942,-10342.289223
943.942086,-2294.638420,-1110.308913,-10035.851024
943.942406,-1628.453072,-1258.350101,-9959.241474
943.942727,-666.185348,-962.267725,-9959.241474
943.943047,-592.164754,-592.164754,-10648.727422
943.943367,-1998.556043,-1628.453072,-10265.679673
943.943688,-1480.411884,-1406.391290,-9959.241474
943.944008,-296.082377,-962.267725,-10035.851024
943.944328,74.020594,-1110.308913,-10035.851024
943.944648,-1850.514855,-1110.308913,-10418.898773
943.944969,-2812.782580,-1850.514855,-10112.460574
943.945289,-2516.700203,-2516.700203,-9576.193725
943.945609,-1998.556043,-2738.761985,-9882.631924
943.945929,-2072.576638,-3256.906145,-9882.631924
943.946250,-2220.617826,-3849.070898,-9959.241474
943.946570,-1998.556043,-3997.112087,-9806.022374
943.946890,-370.102971,-3627.009116,-9882.631924
943.947211,1110.308913,-2516.700203,-9882.631924
943.947531,592.164754,-1628.453072,-10035.851024
943.947851,-592.164754,-2072.576638,-10189.070123
943.948171,-1628.453072,-2294.638420,-10112.460574
943.948492,-2442.679609,-3182.885551,-9882.631924
943.948812,-3404.947333,-4145.153275,-10112.460574
943.949132,-4737.318029,-4663.297435,-9652.803275
943.949452,-4219.173869,-5255.462188,-9729.412825
943.949773,-2368.659014,-5255.462188,-9729.412825
943.950093,-296.082377,-4293.194464,-10418.898773
943.950413,740.205942,-3034.844362,-9959.241474
943.950734,370.102971,-666.185348,-10572.117872
943.951054,1480.411884,740.205942,-10725.336972
943.951374,2072.576638,1332.370696,-9346.365076
943.951694,1554.432478,74.020594,-10418.898773
943.952015,-148.041188,-1702.473667,-10725.336972
943.952335,-1776.494261,-3108.864956,-10189.070123
943.952655,-3775.050304,-4145.153275,-10189.070123
943.952975,-5107.421000,-4219.173869,-10035.851024
943.953296,-5773.606348,-4885.359217,-9576.193725
943.953616,-4663.297435,-5847.626942,-9269.755526
943.953936,-1628.453072,-6217.729913,-9729.412825
943.954257,1406.391290,-5699.585753,-9806.022374
943.954577,1850.514855,-2368.659014,-9959.241474
943.954897,2368.659014,444.123565,-10189.070123
943.955217,3627.009116,2516.700203,-10572.117872
943.955538,3330.926739,2960.823768,-11184.994271
943.955858,222.061783,1184.329507,-11108.384721
943.956178,-3478.967927,-1406.391290,-10035.851024
943.956498,-5995.668130,-3552.988522,-9499.584175
943.956819,-5625.565159,-5329.482782,-9422.974625
943.957139,-4367.215058,-6291.750507,-9652.803275
943.957459,-3627.009116,-6365.771101,-8963.317327
943.957779,-2812.782580,-4219.173869,-9193.145976
943.958100,-740.205942,-1258.350101,-9806.022374
943.958420,1554.432478,3108.864956,-10572.117872
943.958740,2146.597232,4959.379811,-10495.508323
943.959061,2664.741391,4293.194464,-10265.679673
943.959381,2738.761985,2220.617826,-10418.898773
943.959701,1776.494261,148.041188,-10342.289223
943.960021,-666.185348,-1258.350101,-11414.822920
943.960342,-3478.967927,-1702.473667,-10035.851024
943.960662,-4663.297435,-2442.679609,-9959.241474
943.960982,-5699.585753,-2738.761985,-9576.193725
943.961302,-7105.977043,-4441.235652,-9576.193725
943.961623,-5921.647536,-5847.626942,-8963.317327
943.961943,-2516.700203,-5551.544565,-9346.365076
943.962263,1554.432478,-2368.659014,-10035.851024
943.962584,4071.132681,1628.453072,-10418.898773
943.962904,2812.782580,3923.091493,-10572.117872
943.963224,1628.453072,5329.482782,-10955.165621
943.963544,1924.535449,3849.070898,-10418.898773
943.963865,2220.617826,962.267725,-10801.946522
943.964185,0.000000,-1776.494261,-10189.070123
943.964505,-3182.885551,-4959.379811,-10648.727422
943.964825,-6587.832884,-5699.585753,-9806.022374
943.965146,-8438.347739,-4367.215058,-9499.584175
943.965466,-8438.347739,-2590.720797,-9422.974625
943.965786,-5921.647536,-2294.638420,-10112.460574
943.966107,-1480.411884,-2590.720797,-9652.803275
943.966427,1702.473667,-2294.638420,-10265.679673
943.966747,2664.741391,-666.185348,-10572.117872
943.967067,3256.906145,740.205942,-9269.755526
943.967388,4367.215058,2294.638420,-10801.946522
943.967708,3997.112087,2812.782580,-10725.336972
943.968028,1628.453072,2146.597232,-10495.508323
943.968348,-2294.638420,-370.102971,-10495.508323
943.968669,-5699.585753,-3330.926739,-10342.289223
943.968989,-7402.059420,-6365.771101,-9652.803275
943.969309,-6735.874072,-8290.306550,-9269.755526
943.969630,-5699.585753,-9178.553681,-9039.926876
943.969950,-4071.132681,-9104.533087,-8503.660028
943.970270,-2812.782580,-5551.544565,-9269.755526
943.970590,444.123565,-2294.638420,-9806.022374
943.970911,4959.379811,1554.432478,-10418.898773
943.971231,6439.791695,2886.803174,-11491.432470
943.971551,3182.885551,2368.659014,-11338.213370
943.971871,-148.041188,-148.041188,-10495.508323
943.972192,-2516.700203,-1702.473667,-10725.336972
943.972512,-2738.761985,-3627.009116,-10035.851024
943.972832,-4071.132681,-4811.338623,-10418.898773
943.973153,-6809.894666,-5699.585753,-9882.631924
943.973473,-7994.224174,-7624.121203,-9269.755526
943.973793,-6143.709319,-7179.997637,-9806.022374
943.974113,-2738.761985,-5255.462188,-9882.631924
943.974434,-962.267725,-2886.803174,-10495.508323
943.974754,-296.082377,-740.205942,-10342.289223
943.975074,666.185348,1258.350101,-10112.460574
943.975394,3034.844362,1850.514855,-11184.994271
943.975715,4737.318029,1628.453072,-10572.117872
943.976035,3108.864956,296.082377,-10955.165621
943.976355,370.102971,-1480.411884,-10725.336972
943.976676,-2368.659014,-3849.070898,-9959.241474
943.976996,-4589.276840,-5255.462188,-9346.365076
943.977316,-6735.874072,-5625.565159,-9269.755526
943.977636,-6661.853478,-5477.523971,-9499.584175
943.977957,-4367.215058,-3775.050304,-9346.365076
943.978277,-2442.679609,-2812.782580,-9576.193725
943.978597,-1036.288319,-1850.514855,-9729.412825
943.978917,148.041188,-1332.370696,-9806.022374
943.979238,2072.576638,-1184.329507,-10112.460574
943.979558,2368.659014,-592.164754,-10418.898773
943.979878,1850.514855,0.000000,-10265.679673
943.980199,1258.350101,0.000000,-10418.898773
943.980519,1110.308913,-1110.308913,-10342.289223
943.980839,-592.164754,-518.144159,-10189.070123
943.981159,-2812.782580,-2294.638420,-10418.898773
943.981480,-4441.235652,-3330.926739,-9806.022374
943.981800,-4885.359217,-4367.215058,-10035.851024
943.982120,-4367.215058,-4589.276840,-9806.022374
943.982440,-2886.803174,-3923.091493,-9499.584175
943.982761,-1480.411884,-2738.761985,-8886.707777
943.983081,518.144159,-1332.370696,-10189.070123
943.983401,2812.782580,0.000000,-10725.336972
943.983722,4515.256246,2664.741391,-11108.384721
943.984042,2220.617826,4219.173869,-10878.556072
943.984362,592.164754,3034.844362,-10725.336972
943.984682,-148.041188,-962.267725,-10725.336972
943.985003,-2294.638420,-3627.009116,-9499.584175
943.985323,-2368.659014,-4145.153275,-9959.241474
943.985643,-4367.215058,-4293.194464,-9806.022374
943.985963,-5033.400406,-2590.720797,-9806.022374
943.986284,-4811.338623,-2146.597232,-9729.412825
943.986604,-1924.535449,-2516.700203,-9499.584175
943.986924,0.000000,-2368.659014,-9882.631924
943.987244,814.226536,-2516.700203,-9806.022374
943.987564,1406.391290,-444.123565,-10342.289223
943.987884,666.185348,814.226536,-10189.070123
943.988204,-518.144159,1480.411884,-10265.679673
943.988524,0.000000,1850.514855,-9499.584175
943.988844,-814.226536,-296.082377,-9882.631924
943.989164,-1406.391290,-1036.288319,-9882.631924
943.989484,-3997.112087,-3256.906145,-9959.241474
943.989804,-4959.379811,-5181.441594,-9806.022374
943.990125,-5625.565159,-4589.276840,-9116.536426
943.990445,-6957.935855,-3627.009116,-9729.412825
943.990765,-3330.926739,-3034.844362,-8886.707777
943.991085,740.205942,-1258.350101,-10035.851024
943.991405,2294.638420,-1480.411884,-10112.460574
943.991725,2368.659014,-1480.411884,-10418.898773
943.992045,1406.391290,-592.164754,-10648.727422
943.992365,666.185348,-370.102971,-10648.727422
943.992685,296.082377,518.144159,-9729.412825
943.993005,-1554.432478,-1258.350101,-10955.165621
943.993325,-2886.803174,-3478.967927,-10342.289223
943.993645,-4515.256246,-3108.864956,-10342.289223
943.993965,-4293.194464,-3108.864956,-10189.070123
943.994285,-3108.864956,-3923.091493,-9806.022374
943.994605,-2072.576638,-4441.235652,-9652.803275
943.994925,-1184.329507,-4145.153275,-10495.508323
943.995245,-2072.576638,-3256.906145,-10189.070123
943.995565,-2960.823768,-2368.659014,-9959.241474
943.995885,-2442.679609,-1036.288319,-9806.022374
943.996206,-518.144159,148.041188,-9806.022374
943.996526,1850.514855,-592.164754,-10801.946522
943.996846,2072.576638,-1110.308913,-10495.508323
943.997166,592.164754,-3034.844362,-9959.241474
943.997486,-1924.535449,-2738.761985,-9882.631924
943.997806,-4737.318029,-2812.782580,-9806.022374
943.998126,-5107.421000,-2664.741391,-9959.241474
943.998446,-3330.926739,-3552.988522,-9269.755526
943.998766,-2072.576638,-5551.544565,-9422.974625
943.999086,-2146.597232,-4441.235652,-9269.755526
943.999406,-1702.473667,-2442.679609,-9959.241474
943.999726,2146.597232,-962.267725,-9806.022374
944.000046,2664.741391,74.020594,-10342.289223
944.000366,962.267725,-1184.329507,-9882.631924
944.000686,-1628.453072,-1924.535449,-9882.631924
944.001006,-2146.597232,-2590.720797,-10035.851024
944.001326,0.000000,-1554.432478,-10265.679673
944.001646,-148.041188,370.102971,-10725.336972
944.001966,-2516.700203,-148.041188,-10342.289223
944.002287,-962.267725,-3330.926739,-9959.241474
944.002607,888.247130,-2664.741391,-9269.755526
944.002927,1480.411884,-3849.070898,-10265.679673
944.003247,666.185348,-2812.782580,-11414.822920
944.003567,740.205942,-2368.659014,-9652.803275
944.003887,592.164754,-1480.411884,-9806.022374
944.004207,1776.494261,1628.453072,-9576.193725
944.004527,1406.391290,4589.276840,-11414.822920
944.004847,740.205942,2442.679609,-11338.213370
944.005167,1258.350101,592.164754,-9806.022374
944.005487,2368.659014,2590.720797,-10725.336972
944.005807,370.102971,-296.082377,-10265.679673
944.006127,444.123565,-3404.947333,-9882.631924
944.006447,370.102971,-3478.967927,-9652.803275
944.006767,74.020594,-1998.556043,-9269.755526
944.007087,1332.370696,1702.473667,-10801.946522
944.007407,1702.473667,3034.844362,-11031.775171
944.007727,1776.494261,2886.803174,-10418.898773
944.008047,1480.411884,1702.473667,-10189.070123
944.008368,2146.597232,2516.700203,-9729.412825
944.008688,1776.494261,-1184.329507,-9576.193725
944.009008,1628.453072,-2590.720797,-9806.022374
944.009328,1258.350101,-1850.514855,-9806.022374
944.009648,-1702.473667,222.061783,-10189.070123
944.009968,-5255.462188,-1036.288319,-9959.241474
944.010288,-4663.297435,0.000000,-9729.412825
944.010608,-2812.782580,0.000000,-10342.289223
944.010928,222.061783,222.061783,-10189.070123
944.011248,1924.535449,2812.782580,-9652.803275
944.011568,1776.494261,3552.988522,-10648.727422
944.011888,3701.029710,5181.441594,-10648.727422
944.012208,4441.235652,2516.700203,-10572.117872
944.012528,3923.091493,-296.082377,-10189.070123
944.012848,1184.329507,-1184.329507,-9422.974625
944.013168,-2664.741391,-1850.514855,-9959.241474
944.013488,-4293.194464,1480.411884,-10035.851024
944.013808,-4219.173869,3330.926739,-10189.070123
944.014128,-1406.391290,4737.318029,-10648.727422
944.014449,888.247130,1924.535449,-9729.412825
944.014769,1258.350101,-1628.453072,-9652.803275
944.015089,666.185348,-1184.329507,-9806.022374
944.015409,1924.535449,0.000000,-9882.631924
944.015729,1628.453072,2146.597232,-10035.851024
944.016049,1850.514855,2886.803174,-9882.631924
944.016369,4145.153275,2960.823768,-9652.803275
944.016689,3256.906145,1480.411884,-11261.603821
944.017009,4959.379811,3478.967927,-10342.289223
944.017329,2368.659014,2516.700203,-11184.994271
944.017649,2368.659014,2664.741391,-10112.460574
944.017969,2146.597232,-740.205942,-9576.193725
944.018289,74.020594,-2442.679609,-10265.679673
944.018609,-1480.411884,-3182.885551,-9346.365076
944.018929,-1406.391290,-1406.391290,-9959.241474
944.019249,518.144159,370.102971,-9729.412825
944.019569,888.247130,2146.597232,-10495.508323
944.019889,4219.173869,1036.288319,-10342.289223
944.020209,3478.967927,74.020594,-9422.974625
944.020530,1998.556043,-1332.370696,-9576.193725
944.020850,1998.556043,-1184.329507,-9882.631924
944.021170,2516.700203,148.041188,-10265.679673
944.021490,740.205942,370.102971,-10418.898773
944.021810,0.000000,1110.308913,-10112.460574
944.022130,-1406.391290,1924.535449,-9806.022374
944.022450,-2812.782580,-222.061783,-9959.241474
944.022770,296.082377,-1258.350101,-9882.631924
944.023090,1110.308913,-2368.659014,-10112.460574
944.023410,740.205942,-2516.700203,-10035.851024
944.023730,-1258.350101,-518.144159,-10035.851024
944.024050,-3775.050304,370.102971,-10572.117872
944.024370,-5033.400406,0.000000,-9959.241474
944.024690,-2072.576638,-592.164754,-10342.289223
944.025010,-518.144159,-296.082377,-10112.460574
944.025330,-1110.308913,-1628.453072,-10265.679673
944.025650,-518.144159,-2738.761985,-9806.022374
944.025970,370.102971,-2368.659014,-10265.679673
944.026290,2220.617826,222.061783,-11031.775171
944.026611,1406.391290,1110.308913,-10725.336972
944.026931,-1258.350101,1332.370696,-10648.727422
944.027251,-1406.391290,962.267725,-9806.022374
944.027571,-740.205942,-518.144159,-10878.556072
944.027891,-1332.370696,-888.247130,-10342.289223
944.028211,-2146.597232,-1480.411884,-8963.317327
944.028531,-1554.432478,-1406.391290,-9806.022374
944.028851,0.000000,-1776.494261,-9959.241474
944.029171,1702.473667,-666.185348,-10418.898773
944.029491,0.000000,-148.041188,-10035.851024
944.029811,-888.247130,814.226536,-9806.022374
944.030131,814.226536,-148.041188,-10112.460574
944.030451,3923.091493,0.000000,-9729.412825
944.030771,5773.606348,2072.576638,-11031.775171
944.031091,3330.926739,2590.720797,-10801.946522
944.031411,0.000000,1628.453072,-9806.022374
944.031731,-1628.453072,-518.144159,-9729.412825
944.032051,1628.453072,-2812.782580,-10265.679673
944.032371,1628.453072,-2294.638420,-9729.412825
944.032691,-1702.473667,-1924.535449,-9806.022374
944.033012,-814.226536,0.000000,-9806.022374
944.033332,2146.597232,814.226536,-10265.679673
944.033652,2368.659014,2146.597232,-10265.679673
944.033972,518.144159,1110.308913,-9193.145976
944.034292,74.020594,-148.041188,-9806.022374
944.034612,4367.215058,-1702.473667,-10112.460574
944.034932,6883.915261,-1184.329507,-10418.898773
944.035252,4737.318029,592.164754,-10342.289223
944.035572,1036.288319,2220.617826,-10418.898773
944.035892,-962.267725,1628.453072,-10265.679673
944.036212,74.020594,-296.082377,-9882.631924
944.036532,1554.432478,1480.411884,-9806.022374
944.036852,2072.576638,444.123565,-11721.261119
944.037172,2220.617826,-740.205942,-10725.336972
944.037492,1332.370696,-740.205942,-10648.727422
944.037812,-2368.659014,0.000000,-9269.755526
944.038132,-3552.988522,2146.597232,-9806.022374
944.038452,-1776.494261,4071.132681,-10342.289223
944.038772,-296.082377,5329.482782,-10495.508323
944.039093,1702.473667,4071.132681,-10572.117872
944.039413,2738.761985,888.247130,-10648.727422
944.039733,3404.947333,74.020594,-9652.803275
944.040053,518.144159,-1110.308913,-9652.803275
944.040373,-962.267725,1184.329507,-10572.117872
944.040693,-2368.659014,1258.350101,-9422.974625
944.041013,-962.267725,1258.350101,-11108.384721
944.041333,-2368.659014,2220.617826,-9729.412825
944.041653,-3923.091493,1702.473667,-10418.898773
944.041973,-1110.308913,1480.411884,-9576.193725
944.042293,2442.679609,1998.556043,-10495.508323
944.042613,1702.473667,2220.617826,-11108.384721
944.042933,0.000000,1110.308913,-10035.851024
944.043253,74.020594,0.000000,-9576.193725
944.043573,-370.102971,-888.247130,-9806.022374
944.043893,740.205942,592.164754,-9959.241474
944.044213,740.205942,2442.679609,-10801.946522
944.044533,-740.205942,3034.844362,-10189.070123
944.044853,222.061783,2812.782580,-10572.117872
944.045174,1480.411884,1554.432478,-10265.679673
944.045494,-370.102971,888.247130,-10572.117872
944.045814,-2738.761985,-962.267725,-9882.631924
944.046134,-2220.617826,-2738.761985,-9422.974625
944.046454,1554.432478,-666.185348,-9193.145976
944.046774,2220.617826,740.205942,-9039.926876
944.047094,518.144159,1480.411884,-9882.631924
944.047414,888.247130,1702.473667,-9806.022374
944.047734,2294.638420,1258.350101,-10112.460574
944.048054,4515.256246,-222.061783,-10112.460574
944.048374,3849.070898,-1628.453072,-8733.488677
944.048694,148.041188,-1110.308913,-9806.022374
944.049014,-148.041188,-888.247130,-9269.755526
944.049334,2590.720797,148.041188,-9882.631924
944.049654,3034.844362,444.123565,-9576.193725
944.049974,-296.082377,-888.247130,-9806.022374
944.050294,1332.370696,-296.082377,-10725.336972
944.050614,2072.576638,444.123565,-9806.022374
944.050934,2368.659014,74.020594,-10572.117872
944.051255,1998.556043,444.123565,-9882.631924
944.051575,-222.061783,-592.164754,-10418.898773
944.051895,-296.082377,-1850.514855,-10189.070123
944.052215,1184.329507,-1554.432478,-10189.070123
944.052535,2294.638420,-1924.535449,-10189.070123
944.052855,2442.679609,888.247130,-10801.946522
944.053175,2072.576638,1184.329507,-10878.556072
944.053495,962.267725,814.226536,-11031.775171
944.053815,0.000000,148.041188,-10265.679673
944.054135,-1998.556043,-1850.514855,-9269.755526
944.054455,-370.102971,-1924.535449,-10112.460574
944.054775,-1110.308913,-2146.597232,-10035.851024
944.055095,-1702.473667,-2664.741391,-10265.679673
944.055415,-1110.308913,-1184.329507,-8503.660028
944.055735,518.144159,-370.102971,-10189.070123
944.056055,0.000000,740.205942,-9729.412825
944.056375,666.185348,2590.720797,-10955.165621
944.056695,-1110.308913,1850.514855,-9729.412825
944.057015,-2664.741391,666.185348,-9576.193725
944.057336,-1776.494261,148.041188,-9959.241474
944.057656,-1258.350101,-592.164754,-9346.365076
944.057976,-518.144159,-666.185348,-9882.631924
944.058296,-962.267725,-1036.288319,-10035.851024
944.058616,296.082377,-518.144159,-9806.022374
944.058936,-370.102971,1924.535449,-10801.946522
944.059256,-1110.308913,2590.720797,-10112.460574
944.059576,0.000000,3997.112087,-10648.727422
944.059896,0.000000,4663.297435,-10801.946522
944.060216,1480.411884,4441.235652,-9806.022374
944.060536,-148.041188,2664.741391,-10265.679673
944.060856,1702.473667,-888.247130,-10035.851024
944.061176,2960.823768,-3108.864956,-9959.241474
944.061496,4071.132681,-3330.926739,-9346.365076
944.061816,2220.617826,0.000000,-10495.508323
944.062136,74.020594,-296.082377,-9806.022374
944.062456,-888.247130,2294.638420,-9882.631924
944.062776,888.247130,2146.597232,-10725.336972
944.063096,2368.659014,148.041188,-9806.022374
944.063417,2146.597232,-666.185348,-10955.165621
944.063737,1554.432478,-1332.370696,-9729.412825
944.064057,2664.741391,-1924.535449,-10189.070123
944.064377,2442.679609,-962.267725,-10265.679673
944.064697,3256.906145,962.267725,-10112.460574
944.065017,3701.029710,3034.844362,-10878.556072
944.065337,3256.906145,4071.132681,-10495.508323
944.065657,1406.391290,3404.947333,-10572.117872
944.065977,148.041188,2220.617826,-10648.727422
944.066297,1036.288319,518.144159,-9499.584175
944.066617,1480.411884,0.000000,-9729.412825
944.066937,1258.350101,-814.226536,-9806.022374
944.067257,0.000000,-1628.453072,-9346.365076
944.067577,-1998.556043,-1480.411884,-9422.974625
944.067897,-1628.453072,-370.102971,-9652.803275
944.068217,444.123565,1184.329507,-9806.022374
944.068537,2516.700203,2220.617826,-9959.241474
944.068857,1258.350101,2368.659014,-10495.508323
944.069177,1332.370696,740.205942,-9882.631924
944.069498,1776.494261,0.000000,-10265.679673
944.069818,1184.329507,518.144159,-10418.898773
944.070138,-814.226536,888.247130,-9959.241474
944.070458,-2960.823768,592.164754,-10035.851024
944.070778,-2960.823768,-148.041188,-10342.289223
944.071098,-3108.864956,-1332.370696,-9882.631924
944.071418,-4737.318029,-1480.411884,-9959.241474
944.071738,-4737.318029,-592.164754,-9959.241474
944.072058,-1998.556043,-740.205942,-10189.070123
944.072378,962.267725,-296.082377,-10955.165621
944.072698,0.000000,740.205942,-10418.898773
944.073018,-1924.535449,1184.329507,-9806.022374
944.073338,-962.267725,2516.700203,-10725.336972
944.073658,2590.720797,3627.009116,-10878.556072
944.073978,5107.421000,4071.132681,-11261.603821
944.074298,1924.535449,2812.782580,-11031.775171
944.074618,1258.350101,-74.020594,-9882.631924
944.074938,-518.144159,-1702.473667,-9882.631924
944.075258,-2294.638420,-518.144159,-9806.022374
944.075579,888.247130,962.267725,-9193.145976
944.075899,2590.720797,222.061783,-10418.898773
944.076219,2368.659014,-1406.391290,-9269.755526
944.076539,1332.370696,-518.144159,-9499.584175
944.076859,222.061783,-1406.391290,-8886.707777
944.077179,592.164754,592.164754,-9269.755526
944.077499,1850.514855,1036.288319,-9882.631924
944.077819,2886.803174,0.000000,-8963.317327
944.078139,1776.494261,-3552.988522,-7967.393179
944.078459,3478.967927,-4071.132681,-8886.707777
944.078779,4737.318029,-1332.370696,-9729.412825
944.079099,5033.400406,1628.453072,-10955.165621
944.079419,2516.700203,4219.173869,-9806.022374
944.079739,962.267725,3849.070898,-10648.727422
944.080059,962.267725,1554.432478,-10495.508323
944.080379,592.164754,-1924.535449,-10418.898773
944.080699,1554.432478,-3404.947333,-10189.070123
944.081019,1998.556043,-2590.720797,-10189.070123
944.081339,2812.782580,518.144159,-10801.946522
944.081660,1258.350101,2442.679609,-10801.946522
944.081980,-296.082377,3552.988522,-10418.898773
944.082300,-1036.288319,1924.535449,-11031.775171
944.082620,-148.041188,-296.082377,-10878.556072
944.082940,1998.556043,814.226536,-11261.603821
944.083260,592.164754,592.164754,-11721.261119
944.083580,-740.205942,1702.473667,-10648.727422
944.083900,-3701.029710,2294.638420,-10572.117872
944.084220,-3330.926739,1924.535449,-10648.727422
944.084540,-3108.864956,2368.659014,-10189.070123
944.084860,-3108.864956,814.226536,-10572.117872
944.085180,-1110.308913,-962.267725,-9806.022374
944.085500,-148.041188,-1924.535449,-9729.412825
944.085820,-962.267725,-2886.803174,-9652.803275
944.086140,-962.267725,-962.267725,-8810.098227
944.086460,-1998.556043,666.185348,-9729.412825
944.086780,-1628.453072,444.123565,-8886.707777
944.087100,888.247130,1258.350101,-9652.803275
944.087420,2368.659014,814.226536,-9652.803275
944.087740,2442.679609,1850.514855,-9193.145976
944.088061,1036.288319,222.061783,-10035.851024
944.088381,-2812.782580,222.061783,-9499.584175
944.088701,-5107.421000,0.000000,-10035.851024
944.089021,-2886.803174,-666.185348,-9959.241474
944.089341,1184.329507,740.205942,-9959.241474
944.089661,1998.556043,1036.288319,-9652.803275
944.089980,2886.803174,3701.029710,-10648.727422
944.090300,1480.411884,5551.544565,-11568.042020
944.090620,296.082377,5329.482782,-10725.336972
944.090940,1036.288319,3627.009116,-11031.775171
944.091260,888.247130,-74.020594,-9959.241474
944.091580,1406.391290,-3552.988522,-10265.679673
944.091900,1554.432478,-4811.338623,-10035.851024
944.092220,2294.638420,-2368.659014,-9422.974625
944.092540,1332.370696,1702.473667,-11338.213370
944.092860,1776.494261,5773.606348,-10572.117872
944.093180,1184.329507,5847.626942,-11031.775171
944.093500,3849.070898,3034.844362,-10648.727422
944.093819,3701.029710,-518.144159,-8963.317327
944.094139,2442.679609,-4737.318029,-9499.584175
944.094459,1406.391290,-4959.379811,-8656.879127
944.094779,1110.308913,-3775.050304,-9346.365076
944.095099,2516.700203,592.164754,-9652.803275
944.095419,2442.679609,1110.308913,-9652.803275
944.095739,1480.411884,888.247130,-9806.022374
944.096059,1480.411884,888.247130,-9806.022374
944.096379,2220.617826,888.247130,-9652.803275
944.096699,2368.659014,1036.288319,-10189.070123
944.097019,2294.638420,-444.123565,-9806.022374
944.097339,370.102971,-1480.411884,-9116.536426
944.097658,-1924.535449,-2812.782580,-9882.631924
944.097978,0.000000,-1628.453072,-9652.803275
944.098298,-592.164754,888.247130,-10265.679673
944.098618,-2146.597232,2590.720797,-10112.460574
944.098938,-1628.453072,3108.864956,-10342.289223
944.099258,-222.061783,1924.535449,-10495.508323
944.099578,518.144159,-518.144159,-11108.384721
944.099898,-740.205942,-3182.885551,-9806.022374
944.100218,-1554.432478,-1702.473667,-10189.070123
944.100538,-1258.350101,-222.061783,-10572.117872
944.100858,1110.308913,1924.535449,-11568.042020
944.101178,222.061783,2738.761985,-10801.946522
944.101497,-1480.411884,1480.411884,-10955.165621
944.101817,-3552.988522,1036.288319,-9959.241474
944.102137,-3627.009116,-370.102971,-10878.556072
944.102457,-222.061783,-2072.576638,-10418.898773
944.102777,-518.144159,-1998.556043,-10495.508323
944.103097,-666.185348,-1702.473667,-10112.460574
944.103417,-1110.308913,-1480.411884,-9652.803275
944.103737,-370.102971,0.000000,-10418.898773
944.104057,-296.082377,2442.679609,-10112.460574
944.104377,1480.411884,4441.235652,-10572.117872
944.104697,4589.276840,3997.112087,-10572.117872
944.105017,4959.379811,740.205942,-10648.727422
944.105336,2442.679609,-1776.494261,-9959.241474
944.105656,962.267725,-1332.370696,-9499.584175
944.105976,-3478.967927,-296.082377,-9959.241474
944.106296,-3627.009116,2368.659014,-9422.974625
944.106616,-3182.885551,2146.597232,-9729.412825
944.106936,666.185348,0.000000,-9806.022374
944.107256,2516.700203,-1702.473667,-9346.365076
944.107576,3404.947333,-2146.597232,-9652.803275
944.107896,3849.070898,0.000000,-9422.974625
944.108216,3478.967927,518.144159,-10878.556072
944.108536,3627.009116,740.205942,-9806.022374
944.108856,2072.576638,740.205942,-9499.584175
944.109175,2146.597232,-740.205942,-9959.241474
944.109495,3330.926739,-1998.556043,-9193.145976
944.109815,2294.638420,-888.247130,-9959.241474
944.110135,2368.659014,666.185348,-10648.727422
944.110455,2516.700203,1332.370696,-10112.460574
944.110775,1184.329507,296.082377,-9422.974625
944.111095,888.247130,-444.123565,-10418.898773
944.111415,888.247130,-1110.308913,-10342.289223
944.111735,-1110.308913,-666.185348,-10112.460574
944.112055,-1480.411884,1258.350101,-10878.556072
944.112375,0.000000,3108.864956,-10725.336972
944.112695,1776.494261,3627.009116,-11184.994271
944.113014,-814.226536,3478.967927,-11338.213370
944.113334,-2220.617826,814.226536,-10342.289223
944.113654,-1924.535449,-1628.453072,-10265.679673
944.113974,740.205942,-2220.617826,-10265.679673
944.114294,1184.329507,-1406.391290,-10418.898773
944.114614,-1998.556043,1406.391290,-10342.289223
944.114934,-4959.379811,3256.906145,-10418.898773
944.115254,-2960.823768,2590.720797,-9806.022374
944.115574,814.226536,888.247130,-9882.631924
944.115894,2368.659014,-814.226536,-10112.460574
944.116214,1850.514855,-1184.329507,-10035.851024
944.116534,-148.041188,-888.247130,-9806.022374
944.116853,-2664.741391,-1406.391290,-10189.070123
944.117173,-3256.906145,-1110.308913,-9806.022374
944.117493,-1406.391290,-444.123565,-9193.145976
944.117813,-1776.494261,740.205942,-9576.193725
944.118133,-1036.288319,888.247130,-8427.050478
944.118453,-962.267725,74.020594,-9576.193725
944.118773,222.061783,-1776.494261,-9806.022374
944.119093,1554.432478,-1998.556043,-9806.022374
944.119413,0.000000,-1776.494261,-9806.022374
944.119733,1110.308913,-666.185348,-9959.241474
944.120053,2368.659014,1184.329507,-10878.556072
944.120373,1850.514855,2368.659014,-10725.336972
944.120692,592.164754,4293.194464,-10418.898773
944.121012,518.144159,3923.091493,-12104.308868
944.121332,2368.659014,1554.432478,-10495.508323
944.121652,3182.885551,-444.123565,-11414.822920
944.121972,3997.112087,-1332.370696,-11184.994271
944.122292,740.205942,-666.185348,-9499.584175
944.122612,-1702.473667,888.247130,-10112.460574
944.122932,-962.267725,1332.370696,-9806.022374
944.123252,1406.391290,592.164754,-10189.070123
944.123572,3552.988522,-296.082377,-10112.460574
944.123892,3256.906145,-148.041188,-10342.289223
944.124212,3404.947333,-1480.411884,-9652.803275
944.124531,5551.544565,-370.102971,-10112.460574
944.124851,4811.338623,222.061783,-10112.460574
944.125171,3108.864956,1628.453072,-9806.022374
944.125491,370.102971,2294.638420,-10035.851024
944.125811,-740.205942,1110.308913,-9729.412825
944.126131,-814.226536,-666.185348,-9806.022374
944.126451,-592.164754,-1554.432478,-9652.803275
944.126771,-1184.329507,-1628.453072,-9039.926876
944.127091,-1628.453072,-2220.617826,-9499.584175
944.127411,74.020594,-1258.350101,-9499.584175
944.127731,2368.659014,0.000000,-10801.946522
944.128050,5329.482782,1332.370696,-10035.851024
944.128370,1480.411884,2072.576638,-10572.117872
944.128690,-1554.432478,592.164754,-9729.412825
944.129010,-1776.494261,296.082377,-9882.631924
944.129330,1554.432478,-1406.391290,-11108.384721
944.129650,2516.700203,370.102971,-10801.946522
944.129970,-1702.473667,1776.494261,-10572.117872
944.130290,-4145.153275,1702.473667,-10265.679673
944.130610,-5181.441594,2516.700203,-10418.898773
944.130930,-2886.803174,740.205942,-12027.699319
944.131250,-2516.700203,-1036.288319,-10189.070123
944.131570,-1776.494261,-2590.720797,-10035.851024
944.131889,-1776.494261,-1480.411884,-9422.974625
944.132209,-222.061783,1628.453072,-10418.898773
944.132529,370.102971,3330.926739,-10418.898773
944.132849,0.000000,3627.009116,-10878.556072
944.133169,-1110.308913,666.185348,-9269.755526
944.133489,-592.164754,-888.247130,-9576.193725
944.133809,2812.782580,-1480.411884,-9652.803275
944.134129,4219.173869,-1258.350101,-9959.241474
944.134449,814.226536,74.020594,-10572.117872
944.134769,-1406.391290,1924.535449,-9039.926876
944.135089,-2516.700203,2072.576638,-10801.946522
944.135409,222.061783,518.144159,-10801.946522
944.135728,814.226536,0.000000,-9576.193725
944.136048,148.041188,-222.061783,-9806.022374
944.136368,592.164754,518.144159,-9422.974625
944.136688,2146.597232,444.123565,-10418.898773
944.137008,3775.050304,-296.082377,-10035.851024
944.137328,3923.091493,-370.102971,-10495.508323
944.137648,2368.659014,1258.350101,-9806.022374
944.137968,1036.288319,1850.514855,-10342.289223
944.138288,1480.411884,2516.700203,-10189.070123
944.138608,2960.823768,1480.411884,-10265.679673
944.138928,2886.803174,222.061783,-10495.508323
944.139248,2960.823768,-1554.432478,-9652.803275
944.139567,2146.597232,-814.226536,-10265.679673
944.139887,2368.659014,-444.123565,-10342.289223
944.140207,2664.741391,592.164754,-10572.117872
944.140527,1036.288319,1998.556043,-9882.631924
944.140847,296.082377,2294.638420,-8733.488677
944.141167,814.226536,888.247130,-9882.631924
944.141487,2294.638420,-1036.288319,-10342.289223
944.141807,1406.391290,-2146.597232,-10265.679673
944.142127,962.267725,-1924.535449,-9422.974625
944.142447,2590.720797,-444.123565,-8886.707777
944.142767,3627.009116,-148.041188,-10725.336972
944.143087,1480.411884,-296.082377,-10112.460574
944.143406,-1554.432478,814.226536,-9806.022374
944.143726,-518.144159,2072.576638,-10418.898773
944.144046,74.020594,1332.370696,-9806.022374
944.144366,962.267725,-148.041188,-10265.679673
944.144686,-222.061783,-2294.638420,-9806.022374
944.145006,-3182.885551,-2442.679609,-9729.412825
944.145326,-2812.782580,-888.247130,-9806.022374
944.145646,-2812.782580,962.267725,-10035.851024
944.145966,-1036.288319,1554.432478,-10189.070123
944.146286,-1258.350101,1998.556043,-10725.336972
944.146606,-2738.761985,814.226536,-9652.803275
944.146926,-3627.009116,-962.267725,-9576.193725
944.147245,-518.144159,-962.267725,-10035.851024
944.147565,2590.720797,148.041188,-10342.289223
944.147885,814.226536,1554.432478,-10801.946522
944.148205,-1554.432478,2220.617826,-11031.775171
944.148525,-1850.514855,1036.288319,-10189.070123
944.148845,-2072.576638,0.000000,-10418.898773
944.149165,-1924.535449,444.123565,-10189.070123
944.149485,-2368.659014,0.000000,-9882.631924
944.149805,-2368.659014,-1332.370696,-9882.631924
944.150125,-740.205942,-3034.844362,-10495.508323
944.150445,2886.803174,-3182.885551,-9806.022374
944.150765,3627.009116,-740.205942,-11108.384721
944.151084,1702.473667,3330.926739,-10725.336972
944.151404,-444.123565,5625.565159,-10112.460574
944.151724,-222.061783,4515.256246,-10648.727422
944.152044,2960.823768,0.000000,-10189.070123
944.152364,2812.782580,-2664.741391,-11261.603821
944.152684,1258.350101,-4367.215058,-9959.241474
944.153004,222.061783,-3330.926739,-8886.707777
944.153324,1258.350101,-1184.329507,-10112.460574
944.153644,3627.009116,1258.350101,-8733.488677
944.153964,1184.329507,1776.494261,-9269.755526
944.154284,1036.288319,222.061783,-9346.365076
944.154604,2516.700203,-1184.329507,-9116.536426
944.154923,6143.709319,-1702.473667,-9652.803275
944.155243,8660.409521,0.000000,-9882.631924
944.155563,5773.606348,2072.576638,-10342.289223
944.155883,2368.659014,4219.173869,-10189.070123
944.156203,0.000000,2886.803174,-10418.898773
944.156523,814.226536,444.123565,-9422.974625
944.156843,-1184.329507,-2220.617826,-10035.851024
944.157163,-2368.659014,-3923.091493,-9499.584175
944.157483,-962.267725,-3552.988522,-9193.145976
944.157803,148.041188,-1776.494261,-10112.460574
944.158123,2812.782580,1332.370696,-10725.336972
944.158443,2294.638420,2294.638420,-10801.946522
944.158762,1332.370696,4145.153275,-11338.213370
944.159082,1110.308913,3330.926739,-10418.898773
944.159402,3849.070898,814.226536,-10572.117872
944.159722,3404.947333,370.102971,-11031.775171
944.160042,0.000000,-1184.329507,-10648.727422
944.160362,-1036.288319,-1110.308913,-10189.070123
944.160682,-2664.741391,888.247130,-10189.070123
944.161002,-1480.411884,518.144159,-10495.508323
944.161322,-2960.823768,1776.494261,-10189.070123
944.161642,-2146.597232,370.102971,-9959.241474
944.161962,-888.247130,666.185348,-9806.022374
944.162282,666.185348,370.102971,-8810.098227
944.162601,1480.411884,1480.411884,-10112.460574
944.162921,148.041188,2146.597232,-10035.851024
944.163241,-962.267725,1776.494261,-9499.584175
944.163561,0.000000,814.226536,-8963.317327
944.163881,1332.370696,-296.082377,-9806.022374
944.164201,740.205942,-296.082377,-9806.022374
944.164521,-962.267725,518.144159,-10265.679673
944.164841,-3404.947333,2072.576638,-9806.022374
944.165161,-3552.988522,1702.473667,-9959.241474
944.165481,-2072.576638,-296.082377,-9652.803275
944.165801,-518.144159,-1776.494261,-9729.412825
944.166121,-370.102971,-1628.453072,-10265.679673
944.166440,2368.659014,518.144159,-10878.556072
944.166760,2146.597232,3034.844362,-10725.336972
944.167080,2664.741391,4959.379811,-11261.603821
944.167400,1702.473667,2886.803174,-10189.070123
944.167720,-444.123565,1110.308913,-10265.679673
944.168040,-2812.782580,-2516.700203,-9806.022374
944.168360,-2146.597232,-3849.070898,-8886.707777
944.168680,-2072.576638,-3478.967927,-9652.803275
944.169000,74.020594,-1480.411884,-10112.460574
944.169320,2146.597232,370.102971,-9729.412825
944.169640,2072.576638,2886.803174,-10801.946522
944.169960,2368.659014,1406.391290,-9806.022374
944.170279,2368.659014,814.226536,-10342.289223
944.170599,2072.576638,0.000000,-10418.898773
944.170919,74.020594,-1332.370696,-8656.879127
944.171239,962.267725,-1184.329507,-9806.022374
944.171559,2812.782580,-666.185348,-9576.193725
944.171879,1480.411884,-370.102971,-9806.022374
944.172199,296.082377,888.247130,-10648.727422
944.172519,0.000000,740.205942,-9576.193725
944.172839,148.041188,518.144159,-9729.412825
944.173159,1258.350101,-814.226536,-9806.022374
944.173479,0.000000,-1924.535449,-10189.070123
944.173799,-370.102971,-1702.473667,-10572.117872
944.174118,-518.144159,-444.123565,-9652.803275
944.174438,222.061783,0.000000,-10572.117872
944.174758,1110.308913,296.082377,-10725.336972
944.175078,1036.288319,-1184.329507,-11184.994271
944.175398,1924.535449,-1702.473667,-9806.022374
944.175718,1702.473667,0.000000,-10572.117872
944.176038,1924.535449,666.185348,-10801.946522
944.176358,962.267725,1924.535449,-10648.727422
944.176678,2072.576638,2516.700203,-10418.898773
944.176998,2812.782580,1110.308913,-10495.508323
944.177318,1406.391290,222.061783,-10572.117872
944.177638,518.144159,-1110.308913,-10495.508323
944.177957,-888.247130,-370.102971,-9882.631924
944.178277,-814.226536,1184.329507,-10725.336972
944.178597,0.000000,2146.597232,-10265.679673
944.178917,1036.288319,0.000000,-10112.460574
944.179237,1776.494261,-2220.617826,-9346.365076
944.179557,-296.082377,-2368.659014,-9652.803275
944.179877,-2368.659014,-1184.329507,-9269.755526
944.180197,-2146.597232,740.205942,-9806.022374
944.180517,296.082377,888.247130,-9729.412825
944.180837,2072.576638,148.041188,-10265.679673
944.181157,4145.153275,296.082377,-10112.460574
944.181477,5107.421000,1850.514855,-10801.946522
944.181796,1998.556043,3478.967927,-10495.508323
944.182116,-1258.350101,3404.947333,-10342.289223
944.182436,-2516.700203,2220.617826,-10035.851024
944.182756,-518.144159,-1850.514855,-10112.460574
944.183076,-1258.350101,-5181.441594,-9346.365076
944.183396,-1184.329507,-5477.523971,-9193.145976
944.183716,0.000000,-1850.514855,-9576.193725
944.184036,1406.391290,3256.906145,-10189.070123
944.184356,2072.576638,6365.771101,-11414.822920
944.184676,1702.473667,5847.626942,-10112.460574
944.184996,1258.350101,2368.659014,-10189.070123
944.185316,0.000000,-1258.350101,-9959.241474
944.185635,-888.247130,-3478.967927,-9729.412825
944.185955,-1332.370696,-3627.009116,-9652.803275
944.186275,-370.102971,-1110.308913,-9576.193725
944.186595,814.226536,2146.597232,-10342.289223
944.186915,1776.494261,2516.700203,-10801.946522
944.187235,592.164754,2368.659014,-10265.679673
944.187555,-888.247130,2072.576638,-9882.631924
944.187875,-740.205942,1702.473667,-11338.213370
944.188195,740.205942,1184.329507,-10265.679673
944.188515,1924.535449,-740.205942,-10189.070123
944.188834,2738.761985,-2812.782580,-9959.241474
944.189154,2590.720797,-1702.473667,-9652.803275
944.189474,1110.308913,1258.350101,-10725.336972
944.189794,0.000000,4219.173869,-10265.679673
944.190114,-962.267725,5403.503377,-10572.117872
944.190433,-444.123565,3256.906145,-10572.117872
944.190753,0.000000,-592.164754,-9959.241474
944.191073,-1554.432478,-3182.885551,-9959.241474
944.191393,-2146.597232,-3997.112087,-9806.022374
944.191713,-962.267725,-1776.494261,-10265.679673
944.192032,74.020594,2294.638420,-9652.803275
944.192352,370.102971,5181.441594,-10189.070123
944.192672,1998.556043,4663.297435,-10495.508323
944.192992,1258.350101,2886.803174,-10878.556072
944.193312,-148.041188,1258.350101,-11261.603821
944.193631,-1850.514855,1628.453072,-9959.241474
944.193951,-1998.556043,1406.391290,-9729.412825
944.194271,-740.205942,962.267725,-9959.241474
944.194591,1998.556043,444.123565,-9882.631924
944.194911,3182.885551,74.020594,-10035.851024
944.195230,2516.700203,592.164754,-10342.289223
944.195550,2368.659014,1702.473667,-10265.679673
944.195870,2368.659014,2960.823768,-11031.775171
944.196190,3404.947333,1924.535449,-10495.508323
944.196510,3330.926739,-592.164754,-9193.145976
944.196829,1110.308913,-370.102971,-9346.365076
944.197149,1924.535449,0.000000,-10572.117872
944.197469,2738.761985,-222.061783,-10572.117872
944.197789,2072.576638,74.020594,-9882.631924
944.198109,1110.308913,0.000000,-8963.317327
944.198428,0.000000,74.020594,-9499.584175
944.198748,2368.659014,0.000000,-10189.070123
944.199068,3552.988522,-296.082377,-10572.117872
944.199388,1702.473667,296.082377,-10189.070123
944.199708,0.000000,0.000000,-10265.679673
944.200027,1702.473667,-962.267725,-9269.755526
944.200347,2368.659014,-1998.556043,-10189.070123
944.200667,2368.659014,-1776.494261,-9499.584175
944.200987,1850.514855,-1702.473667,-9806.022374
944.201307,1184.329507,-296.082377,-10648.727422
944.201626,740.205942,444.123565,-10265.679673
944.201946,-1776.494261,962.267725,-9959.241474
944.202266,-3330.926739,1332.370696,-10112.460574
944.202586,-2664.741391,-592.164754,-10189.070123
944.202906,-1258.350101,-1628.453072,-10418.898773
944.203225,740.205942,-1332.370696,-10495.508323
944.203545,74.020594,-962.267725,-10112.460574
944.203865,-2072.576638,-740.205942,-9959.241474
944.204185,-3256.906145,222.061783,-9959.241474
944.204505,-3849.070898,-666.185348,-10112.460574
944.204824,-3108.864956,-1332.370696,-10035.851024
944.205144,-1110.308913,-1998.556043,-10648.727422
944.205464,-740.205942,-1850.514855,-10418.898773
944.205784,-3256.906145,370.102971,-9806.022374
944.206104,-3775.050304,2220.617826,-10725.336972
944.206423,-370.102971,4071.132681,-9882.631924
944.206743,518.144159,2294.638420,-10725.336972
944.207063,1184.329507,1850.514855,-10878.556072
944.207383,-962.267725,0.000000,-9806.022374
944.207703,-2664.741391,-888.247130,-9959.241474
944.208022,-2368.659014,-1184.329507,-9729.412825
944.208342,-1480.411884,-1850.514855,-9652.803275
944.208662,1036.288319,-1850.514855,-10265.679673
944.208982,2368.659014,-740.205942,-9499.584175
944.209302,3478.967927,666.185348,-9806.022374
944.209621,2220.617826,3627.009116,-11261.603821
944.209941,1258.350101,2738.761985,-9729.412825
944.210261,0.000000,1480.411884,-9576.193725
944.210581,1850.514855,-518.144159,-9576.193725
944.210901,2886.803174,-3108.864956,-8963.317327
944.211220,2072.576638,-3775.050304,-9806.022374
944.211540,1480.411884,-2516.700203,-9193.145976
944.211860,2664.741391,814.226536,-9269.755526
944.212180,3923.091493,3182.885551,-10572.117872
944.212500,2738.761985,1628.453072,-10342.289223
944.212819,1776.494261,0.000000,-9422.974625
944.213139,0.000000,-1036.288319,-9346.365076
944.213459,1110.308913,-1036.288319,-9499.584175
944.213779,3108.864956,-518.144159,-9806.022374
944.214099,3256.906145,592.164754,-10265.679673
944.214418,3552.988522,888.247130,-9806.022374
944.214738,2590.720797,2368.659014,-10878.556072
944.215058,2886.803174,2886.803174,-10725.336972
944.215378,1480.411884,3256.906145,-10572.117872
944.215698,-518.144159,1184.329507,-10418.898773
944.216017,-1258.350101,0.000000,-9652.803275
944.216337,888.247130,-1554.432478,-9806.022374
944.216657,1406.391290,-1776.494261,-10189.070123
944.216977,2146.597232,1036.288319,-10572.117872
944.217297,2442.679609,3701.029710,-10801.946522
944.217616,3627.009116,5551.544565,-10955.165621
944.217936,2368.659014,4145.153275,-10495.508323
944.218256,666.185348,2442.679609,-10189.070123
944.218576,-1480.411884,74.020594,-10725.336972
944.218896,-1554.432478,-2220.617826,-9576.193725
944.219215,-2146.597232,-1406.391290,-10342.289223
944.219535,-2294.638420,-1480.411884,-9576.193725
944.219855,-2294.638420,-148.041188,-9422.974625
944.220175,296.082377,1924.535449,-10801.946522
944.220495,74.020594,2368.659014,-9959.241474
944.220814,-1480.411884,2960.823768,-10495.508323
944.221134,-2146.597232,2072.576638,-10265.679673
944.221454,-1776.494261,518.144159,-9499.584175
944.221774,-814.226536,-222.061783,-9729.412825
944.222094,0.000000,0.000000,-8963.317327
944.222413,814.226536,-148.041188,-9882.631924
944.222733,2294.638420,814.226536,-9882.631924
944.223053,2072.576638,1850.514855,-10112.460574
944.223373,0.000000,2590.720797,-9882.631924
944.223693,-1628.453072,3034.844362,-9806.022374
944.224012,-1554.432478,1480.411884,-9959.241474
944.224332,-814.226536,370.102971,-9269.755526
944.224652,-888.247130,296.082377,-9959.241474
944.224972,-1924.535449,74.020594,-9729.412825
944.225292,-888.247130,-592.164754,-9346.365076
944.225611,-814.226536,-1184.329507,-10495.508323
944.225931,370.102971,888.247130,-9422.974625
944.226251,444.123565,1332.370696,-10725.336972
944.226571,2442.679609,2368.659014,-11031.775171
944.226891,4145.153275,2886.803174,-11108.384721
944.227210,3404.947333,1332.370696,-11031.775171
944.227530,2738.761985,0.000000,-10342.289223
944.227850,1628.453072,-222.061783,-9652.803275
944.228170,0.000000,-1332.370696,-10112.460574
944.228490,1406.391290,-1258.350101,-9882.631924
944.228809,2072.576638,-1924.535449,-10189.070123
944.229129,1258.350101,-1628.453072,-9346.365076
944.229449,1258.350101,-1184.329507,-9959.241474
944.229769,1776.494261,-296.082377,-10801.946522
944.230089,3108.864956,0.000000,-10265.679673
944.230408,3552.988522,1406.391290,-9729.412825
944.230728,3478.967927,1998.556043,-9729.412825
944.231048,1850.514855,2220.617826,-10112.460574
944.231368,1480.411884,0.000000,-10725.336972
944.231688,1850.514855,-2146.597232,-9806.022374
944.232007,1702.473667,-2368.659014,-9576.193725
944.232327,444.123565,-2442.679609,-9269.755526
944.232647,-2146.597232,-1702.473667,-9806.022374
944.232967,-2294.638420,-2146.597232,-9882.631924
944.233287,-814.226536,-666.185348,-9882.631924
944.233606,-444.123565,222.061783,-10189.070123
944.233926,2146.597232,814.226536,-10342.289223
944.234246,1480.411884,1332.370696,-10648.727422
944.234566,296.082377,1036.288319,-11031.775171
944.234886,-148.041188,-444.123565,-10418.898773
944.235205,-592.164754,-2590.720797,-10725.336972
944.235525,-1332.370696,-3182.885551,-9959.241474
944.235845,-3108.864956,-1480.411884,-10189.070123
944.236165,-2886.803174,666.185348,-10955.165621
944.236485,-1850.514855,3034.844362,-10955.165621
944.236804,-2590.720797,3627.009116,-10955.165621
944.237124,-3478.967927,1406.391290,-10035.851024
944.237444,-1998.556043,-1036.288319,-10189.070123
944.237764,-1258.350101,-2442.679609,-9729.412825
944.238084,-740.205942,-2220.617826,-9499.584175
944.238403,814.226536,-1110.308913,-10035.851024
944.238723,1776.494261,740.205942,-10112.460574
944.239043,370.102971,1850.514855,-10572.117872
944.239363,-740.205942,2738.761985,-9806.022374
944.239683,-1406.391290,4145.153275,-10189.070123
944.240002,-1332.370696,3034.844362,-9959.241474
944.240322,222.061783,1850.514855,-9499.584175
944.240642,1924.535449,-370.102971,-10572.117872
944.240962,1924.535449,-2590.720797,-9882.631924
944.241282,-444.123565,-1554.432478,-9652.803275
944.241601,-370.102971,222.061783,-9806.022374
944.241921,-222.061783,2960.823768,-9269.755526
944.242241,1554.432478,3701.029710,-10495.508323
944.242561,1924.535449,2072.576638,-10112.460574
944.242881,2812.782580,-962.267725,-10035.851024
944.243200,3256.906145,-2220.617826,-9806.022374
944.243520,3330.926739,-1628.453072,-9652.803275
944.243840,3330.926739,888.247130,-10189.070123
944.244160,3849.070898,2960.823768,-10495.508323
944.244480,2368.659014,2738.761985,-10648.727422
944.244799,1036.288319,3330.926739,-9959.241474
944.245119,-222.061783,1554.432478,-10648.727422
944.245439,740.205942,74.020594,-10495.508323
944.245759,962.267725,222.061783,-10648.727422
944.246079,2442.679609,-1110.308913,-9806.022374
944.246398,3034.844362,-222.061783,-9806.022374
944.246718,3701.029710,1332.370696,-10801.946522
944.247038,2146.597232,2146.597232,-10035.851024
944.247358,1332.370696,3182.885551,-10648.727422
944.247678,1332.370696,4737.318029,-10648.727422
944.247997,518.144159,2664.741391,-10265.679673
944.248317,-370.102971,666.185348,-9806.022374
944.248637,-2072.576638,-962.267725,-9959.241474
944.248957,-1480.411884,-1332.370696,-9422.974625
944.249277,-370.102971,-1406.391290,-10035.851024
944.249596,370.102971,-740.205942,-10035.851024
944.249916,-814.226536,0.000000,-9652.803275
944.250236,-2368.659014,74.020594,-9959.241474
944.250556,-1258.350101,1332.370696,-9959.241474
944.250876,-2220.617826,2146.597232,-10035.851024
944.251196,-2146.597232,1110.308913,-10495.508323
944.251515,740.205942,-666.185348,-9576.193725
944.251835,-518.144159,-814.226536,-9959.241474
944.252155,-888.247130,-1184.329507,-10342.289223
944.252475,-888.247130,74.020594,-10035.851024
944.252795,-1036.288319,1776.494261,-10572.117872
944.253114,-1850.514855,2294.638420,-10342.289223
944.253434,-1850.514855,740.205942,-9346.365076
944.253754,-592.164754,-962.267725,-10189.070123
944.254074,-370.102971,-2960.823768,-9652.803275
944.254394,1258.350101,-2294.638420,-9729.412825
944.254713,-148.041188,-518.144159,-10648.727422
944.255033,-592.164754,740.205942,-9806.022374
944.255353,296.082377,2442.679609,-10878.556072
944.255673,592.164754,2146.597232,-10801.946522
944.255993,2072.576638,1406.391290,-10189.070123
944.256312,2146.597232,-592.164754,-10495.508323
944.256632,148.041188,-2146.597232,-10035.851024
944.256952,74.020594,-1924.535449,-9652.803275
944.257272,888.247130,-740.205942,-10418.898773
944.257592,2368.659014,888.247130,-10189.070123
944.257911,1110.308913,370.102971,-10801.946522
944.258231,2738.761985,-1850.514855,-9882.631924
944.258551,3330.926739,-1776.494261,-9729.412825
944.258871,3627.009116,-1258.350101,-10342.289223
944.259191,518.144159,518.144159,-10801.946522
944.259510,518.144159,740.205942,-10648.727422
944.259830,3108.864956,-296.082377,-10035.851024
944.260150,4737.318029,-1406.391290,-10418.898773
944.260470,3701.029710,-444.123565,-9499.584175
944.260790,222.061783,1332.370696,-9652.803275
944.261109,-1110.308913,1850.514855,-9806.022374
944.261429,-814.226536,2368.659014,-9729.412825
944.261749,1406.391290,-222.061783,-9882.631924
944.262069,222.061783,-3182.885551,-9499.584175
944.262389,0.000000,-4959.379811,-9269.755526
944.262708,222.061783,-4071.132681,-9499.584175
944.263028,3330.926739,-1258.350101,-9959.241474
944.263348,3552.988522,4145.153275,-11338.213370
944.263668,2590.720797,4959.379811,-9882.631924
944.263988,962.267725,2368.659014,-10801.946522
944.264307,444.123565,-962.267725,-10725.336972
944.264627,-740.205942,-3108.864956,-10342.289223
944.264947,-814.226536,-2738.761985,-9806.022374
944.265267,740.205942,-296.082377,-10648.727422
944.265587,74.020594,1554.432478,-10955.165621
944.265906,-1998.556043,3182.885551,-10572.117872
944.266226,-3701.029710,4441.235652,-10801.946522
944.266546,-4663.297435,4219.173869,-11184.994271
944.266866,-3552.988522,2294.638420,-11031.775171
944.267186,-1480.411884,-444.123565,-9959.241474
944.267505,962.267725,-3034.844362,-9422.974625
944.267825,518.144159,-2294.638420,-9806.022374
944.268145,-222.061783,-1480.411884,-9729.412825
944.268465,-1554.432478,592.164754,-9576.193725
944.268785,1258.350101,2738.761985,-10035.851024
944.269104,2294.638420,3256.906145,-10189.070123
944.269424,2072.576638,3330.926739,-10342.289223
944.269744,518.144159,2886.803174,-9806.022374
944.270064,0.000000,1184.329507,-10189.070123
944.270384,-888.247130,296.082377,-9346.365076
944.270703,-2072.576638,-1332.370696,-9576.193725
944.271023,-2220.617826,-740.205942,-9116.536426
944.271343,-2368.659014,-888.247130,-8733.488677
944.271663,0.000000,-222.061783,-8963.317327
944.271983,1406.391290,1184.329507,-9806.022374
944.272302,74.020594,-296.082377,-10189.070123
944.272622,1406.391290,518.144159,-9422.974625
944.272942,444.123565,-222.061783,-9959.241474
944.273262,2664.741391,-1184.329507,-9346.365076
944.273582,2664.741391,1258.350101,-10418.898773
944.273901,3997.112087,962.267725,-10878.556072
944.274221,5033.400406,1110.308913,-10801.946522
944.274541,4441.235652,1110.308913,-10572.117872
944.274861,296.082377,1850.514855,-10725.336972
944.275181,-1110.308913,1554.432478,-10572.117872
944.275500,-962.267725,0.000000,-9882.631924
944.275820,592.164754,-740.205942,-10955.165621
944.276140,888.247130,-1628.453072,-10035.851024
944.276460,1554.432478,-2368.659014,-10495.508323
944.276780,3552.988522,-518.144159,-11414.822920
944.277099,4145.153275,2294.638420,-9959.241474
944.277419,2738.761985,4515.256246,-11338.213370
944.277739,2960.823768,3701.029710,-9959.241474
944.278059,2146.597232,1184.329507,-10418.898773
944.278379,3552.988522,-1332.370696,-10648.727422
944.278698,2442.679609,-2146.597232,-10648.727422
944.279018,-518.144159,-1406.391290,-9499.584175
944.279338,-2738.761985,296.082377,-9652.803275
944.279658,-1924.535449,1036.288319,-9729.412825
944.279978,0.000000,-148.041188,-9806.022374
944.280297,0.000000,-518.144159,-9422.974625
944.280617,-666.185348,-740.205942,-9652.803275
944.280937,-1480.411884,-1406.391290,-9346.365076
944.281257,-74.020594,296.082377,-10801.946522
944.281577,-1184.329507,0.000000,-9422.974625
944.281896,-3034.844362,-1554.432478,-9729.412825
944.282216,-2368.659014,-1776.494261,-8273.831378
944.282536,-666.185348,-1258.350101,-9959.241474
944.282856,2146.597232,0.000000,-9729.412825
944.283176,1702.473667,1332.370696,-10725.336972
944.283495,666.185348,1480.411884,-10035.851024
944.283815,-740.205942,1702.473667,-9806.022374
944.284135,-3701.029710,-666.185348,-9959.241474
944.284455,-2960.823768,-296.082377,-9806.022374
944.284775,-814.226536,444.123565,-11797.870669
944.285094,-740.205942,1184.329507,-10801.946522
944.285414,1110.308913,1258.350101,-10572.117872
944.285734,666.185348,1998.556043,-11261.603821
944.286054,444.123565,1702.473667,-10265.679673
944.286374,-370.102971,148.041188,-10112.460574
944.286693,148.041188,814.226536,-10648.727422
944.287013,1332.370696,444.123565,-10342.289223
944.287333,2220.617826,0.000000,-11031.775171
944.287653,1998.556043,148.041188,-10418.898773
944.287973,666.185348,-370.102971,-10495.508323
944.288292,2368.659014,296.082377,-10265.679673
944.288612,2294.638420,1184.329507,-10572.117872
944.288932,2886.803174,3478.967927,-10955.165621
944.289252,2886.803174,2886.803174,-11031.775171
944.289572,888.247130,814.226536,-10035.851024
944.289891,1036.288319,-296.082377,-10035.851024
944.290211,814.226536,-3034.844362,-9729.412825
944.290531,3997.112087,-2590.720797,-8580.269578
944.290863,3108.864956,592.164754,-9882.631924
944.291182,1702.473667,2960.823768,-9882.631924
944.291502,814.226536,3552.988522,-9806.022374
944.291822,1998.556043,3923.091493,-9422.974625
944.292142,2886.803174,1332.370696,-9806.022374
944.292461,3404.947333,-740.205942,-9193.145976
944.292781,2664.741391,-3997.112087,-9806.022374
944.293101,-814.226536,-5625.565159,-7890.783629
944.293421,-2294.638420,-3330.926739,-9499.584175
944.293741,-1554.432478,-666.185348,-9806.022374
944.294060,-962.267725,2886.803174,-9959.241474
944.294380,-592.164754,4441.235652,-10342.289223
944.294700,74.020594,4515.256246,-10418.898773
944.295020,1184.329507,1850.514855,-10801.946522
944.295339,222.061783,-1924.535449,-10648.727422
944.295659,-2368.659014,-3701.029710,-10342.289223
944.295979,-2960.823768,-2664.741391,-9806.022374
944.296299,-1036.288319,1628.453072,-11721.261119
944.296618,888.247130,4663.297435,-11108.384721
944.296938,0.000000,5403.503377,-11644.651570
944.297258,-1924.535449,3404.947333,-10725.336972
944.297578,-1110.308913,592.164754,-11031.775171
944.297897,962.267725,-2368.659014,-11031.775171
944.298217,1184.329507,-3256.906145,-9882.631924
944.298537,0.000000,-1332.370696,-10725.336972
944.298857,222.061783,1036.288319,-9882.631924
944.299176,2146.597232,2516.700203,-10418.898773
944.299496,1850.514855,4145.153275,-10648.727422
944.299816,0.000000,2516.700203,-10342.289223
944.300136,-2294.638420,1998.556043,-10572.117872
944.300455,-2516.700203,-370.102971,-9269.755526
944.300775,962.267725,-2886.803174,-8810.098227
944.301095,1702.473667,-2664.741391,-9346.365076
944.301415,1332.370696,-1702.473667,-9269.755526
944.301734,-888.247130,-1554.432478,-9652.803275
944.302054,888.247130,444.123565,-9116.536426
944.302374,2368.659014,1554.432478,-10342.289223
944.302694,1184.329507,1406.391290,-9806.022374
944.303013,740.205942,518.144159,-10342.289223
944.303333,1628.453072,0.000000,-9652.803275
944.303653,1702.473667,-962.267725,-10189.070123
944.303973,2442.679609,-1110.308913,-9806.022374
944.304292,1258.350101,-888.247130,-10495.508323
944.304612,148.041188,-1110.308913,-10265.679673
944.304932,-888.247130,-370.102971,-10878.556072
944.305252,-962.267725,1776.494261,-10418.898773
944.305571,1776.494261,222.061783,-10495.508323
944.305891,2516.700203,0.000000,-10342.289223
944.306211,2146.597232,-592.164754,-9959.241474
944.306531,3478.967927,-888.247130,-9959.241474
944.306851,3552.988522,592.164754,-10801.946522
944.307170,2442.679609,1850.514855,-10878.556072
944.307490,888.247130,1924.535449,-10189.070123
944.307810,888.247130,148.041188,-9806.022374
944.308130,370.102971,-1332.370696,-9499.584175
944.308449,592.164754,-1110.308913,-10342.289223
944.308769,740.205942,296.082377,-10418.898773
944.309089,0.000000,1628.453072,-9499.584175
944.309409,-2220.617826,740.205942,-9729.412825
944.309728,-2072.576638,-888.247130,-10035.851024
944.310048,-222.061783,-2590.720797,-9116.536426
944.310368,592.164754,-1850.514855,-10035.851024
944.310688,1702.473667,0.000000,-9806.022374
944.311007,592.164754,1776.494261,-9882.631924
944.311327,296.082377,2886.803174,-10112.460574
944.311647,1332.370696,2294.638420,-9729.412825
944.311967,-370.102971,1036.288319,-10189.070123
944.312286,0.000000,-296.082377,-10112.460574
944.312606,-370.102971,-1998.556043,-9499.584175
944.312926,-1184.329507,-1258.350101,-9806.022374
944.313246,-1406.391290,296.082377,-10418.898773
944.313565,-1628.453072,1406.391290,-9806.022374
944.313885,-518.144159,2590.720797,-9729.412825
944.314205,148.041188,888.247130,-10035.851024
944.314525,-148.041188,370.102971,-10189.070123
944.314844,148.041188,-518.144159,-9882.631924
944.315164,1924.535449,0.000000,-10112.460574
944.315484,2368.659014,814.226536,-9806.022374
944.315804,1554.432478,1628.453072,-10189.070123
944.316123,1184.329507,2590.720797,-10265.679673
944.316443,-1406.391290,962.267725,-9959.241474
944.316763,-1554.432478,222.061783,-10265.679673
944.317083,-1850.514855,0.000000,-9652.803275
944.317402,1628.453072,-444.123565,-10801.946522
944.317722,2516.700203,296.082377,-10572.117872
944.318042,2590.720797,592.164754,-10801.946522
944.318362,814.226536,0.000000,-10265.679673
944.318682,-1332.370696,740.205942,-9806.022374
944.319001,-740.205942,1036.288319,-11108.384721
944.319321,888.247130,1998.556043,-10418.898773
944.319641,4071.132681,1258.350101,-11031.775171
944.319961,4219.173869,1332.370696,-10189.070123
944.320280,2368.659014,296.082377,-10342.289223
944.320600,1702.473667,-222.061783,-11951.089769
944.320920,74.020594,-1258.350101,-9882.631924
944.321240,-2442.679609,-814.226536,-9576.193725
944.321559,-2072.576638,888.247130,-9576.193725
944.321879,814.226536,0.000000,-9806.022374
944.322199,1924.535449,592.164754,-9652.803275
944.322519,1628.453072,-1554.432478,-9882.631924
944.322838,518.144159,-2294.638420,-8963.317327
944.323158,370.102971,-2368.659014,-8886.707777
944.323478,1776.494261,-666.185348,-10418.898773
944.323798,370.102971,222.061783,-9806.022374
944.324117,1406.391290,1036.288319,-10955.165621
944.324437,-814.226536,1850.514855,-10495.508323
944.324757,-666.185348,2368.659014,-10495.508323
944.325077,444.123565,518.144159,-9882.631924
944.325396,-148.041188,-444.123565,-10189.070123
944.325716,-814.226536,-2442.679609,-10265.679673
944.326036,-2072.576638,-2812.782580,-9882.631924
944.326356,1332.370696,-2368.659014,-9806.022374
944.326675,2442.679609,1036.288319,-11108.384721
944.326995,444.123565,1406.391290,-10112.460574
944.327315,-1480.411884,2960.823768,-10955.165621
944.327635,-3478.967927,1628.453072,-9806.022374
944.327954,-1036.288319,1110.308913,-10955.165621
944.328274,-1258.350101,-518.144159,-9806.022374
944.328594,-1554.432478,-1924.535449,-9652.803275
944.328914,444.123565,-592.164754,-9806.022374
944.329233,1628.453072,-444.123565,-9806.022374
944.329553,2368.659014,962.267725,-10418.898773
944.329873,-518.144159,1406.391290,-9882.631924
944.330193,-1036.288319,1998.556043,-10265.679673
944.330512,888.247130,1258.350101,-8503.660028
944.330832,2664.741391,444.123565,-9959.241474
944.331152,4367.215058,-222.061783,-9729.412825
944.331472,3182.885551,0.000000,-9959.241474
944.331792,3034.844362,1850.514855,-9959.241474
944.332111,3404.947333,2590.720797,-9806.022374
944.332431,2886.803174,2960.823768,-10955.165621
944.332751,1184.329507,2072.576638,-9806.022374
944.333071,962.267725,-962.267725,-10189.070123
944.333390,666.185348,-370.102971,-10265.679673
944.333710,-1258.350101,-740.205942,-10342.289223
944.334030,-1776.494261,592.164754,-10495.508323
944.334350,-1184.329507,1406.391290,-11031.775171
944.334669,1554.432478,1554.432478,-10495.508323
944.334989,962.267725,2738.761985,-10265.679673
944.335309,666.185348,1628.453072,-10189.070123
944.335629,4663.297435,592.164754,-10955.165621
944.335948,4367.215058,-444.123565,-10648.727422
944.336268,2590.720797,888.247130,-10342.289223
944.336588,2072.576638,0.000000,-10265.679673
944.336908,962.267725,1924.535449,-9882.631924
944.337227,-1628.453072,3182.885551,-10418.898773
944.337547,-1776.494261,3034.844362,-10342.289223
944.337867,-148.041188,814.226536,-10265.679673
944.338187,-666.185348,-1998.556043,-9806.022374
944.338506,0.000000,-4885.359217,-8810.098227
944.338826,-1702.473667,-2960.823768,-9269.755526
944.339146,-4071.132681,-1184.329507,-9729.412825
944.339466,-2738.761985,1184.329507,-9193.145976
944.339785,-2368.659014,2886.803174,-9576.193725
944.340105,814.226536,2294.638420,-10189.070123
944.340425,3256.906145,740.205942,-8886.707777
944.340745,3849.070898,-1036.288319,-11031.775171
944.341064,592.164754,-2516.700203,-9039.926876
944.341384,-888.247130,-1406.391290,-9806.022374
944.341704,-1924.535449,-518.144159,-9039.926876
944.342024,-2590.720797,444.123565,-10495.508323
944.342343,-3627.009116,-370.102971,-9806.022374
944.342663,-2886.803174,592.164754,-10495.508323
944.342983,-1258.350101,-888.247130,-9729.412825
944.343303,2072.576638,-222.061783,-10342.289223
944.343623,1702.473667,-444.123565,-9882.631924
944.343942,2072.576638,-592.164754,-10418.898773
944.344262,666.185348,0.000000,-10035.851024
944.344582,222.061783,666.185348,-11414.822920
944.344902,666.185348,1628.453072,-10725.336972
944.345221,3404.947333,2146.597232,-10418.898773
944.345541,3627.009116,2072.576638,-10572.117872
944.345861,2886.803174,2220.617826,-10572.117872
944.346181,444.123565,444.123565,-10725.336972
944.346500,-1850.514855,-2294.638420,-9882.631924
944.346820,-518.144159,-1776.494261,-9652.803275
944.347140,1850.514855,-2442.679609,-9652.803275
944.347460,3034.844362,-1258.350101,-9652.803275
944.347779,2516.700203,444.123565,-10725.336972
944.348099,2886.803174,2886.803174,-10878.556072
944.348419,2442.679609,2960.823768,-10035.851024
944.348739,3404.947333,3478.967927,-10648.727422
944.349058,3404.947333,1258.350101,-10112.460574
944.349378,2886.803174,370.102971,-10418.898773
944.349698,1628.453072,-1554.432478,-10189.070123
944.350018,888.247130,-2516.700203,-9422.974625
944.350337,-1850.514855,-1998.556043,-9576.193725
944.350657,-740.205942,-1850.514855,-9729.412825
944.350977,666.185348,148.041188,-9346.365076
944.351297,2590.720797,444.123565,-10112.460574
944.351616,3034.844362,2812.782580,-9729.412825
944.351936,3627.009116,2368.659014,-11031.775171
944.352256,2146.597232,1628.453072,-10189.070123
944.352576,962.267725,148.041188,-9422.974625
944.352895,-1184.329507,-814.226536,-9729.412825
944.353215,-1036.288319,-1702.473667,-9806.022374
944.353535,0.000000,-1258.350101,-9499.584175
944.353855,-814.226536,-444.123565,-10342.289223
944.354174,-1628.453072,-222.061783,-9652.803275
944.354494,-1480.411884,370.102971,-9806.022374
944.354814,-814.226536,2220.617826,-10418.898773
944.355134,-1480.411884,1628.453072,-10265.679673
944.355453,-3034.844362,814.226536,-10648.727422
944.355773,-2368.659014,-666.185348,-10035.851024
944.356093,-1554.432478,-370.102971,-9652.803275
944.356413,740.205942,370.102971,-10112.460574
944.356733,3330.926739,518.144159,-10955.165621
944.357052,74.020594,1776.494261,-10189.070123
944.357372,-3775.050304,2960.823768,-10878.556072
944.357692,-3923.091493,1850.514855,-9193.145976
944.358012,-1776.494261,1184.329507,-10801.946522
944.358331,-1110.308913,-1850.514855,-10265.679673
944.358651,666.185348,-2220.617826,-9882.631924
944.358971,-1184.329507,-1924.535449,-9346.365076
944.359291,888.247130,-1332.370696,-10265.679673
944.359610,3034.844362,592.164754,-9806.022374
944.359930,3478.967927,3701.029710,-11184.994271
944.360250,666.185348,4071.132681,-10725.336972
944.360570,1036.288319,4219.173869,-9882.631924
944.360889,1998.556043,1258.350101,-10572.117872
944.361209,3478.967927,-592.164754,-10112.460574
944.361529,592.164754,-2738.761985,-9346.365076
944.361849,-1924.535449,-2072.576638,-10035.851024
944.362168,-2960.823768,-2146.597232,-8886.707777
944.362488,-740.205942,-148.041188,-10342.289223
944.362808,-666.185348,666.185348,-9269.755526
944.363128,1406.391290,2072.576638,-10112.460574
944.363447,2664.741391,4737.318029,-10342.289223
944.363767,5995.668130,3108.864956,-10418.898773
944.364087,8882.471304,518.144159,-10495.508323
944.364407,4589.276840,-2886.803174,-9193.145976
944.364726,1924.535449,-4589.276840,-9806.022374
944.365046,-740.205942,-2590.720797,-9422.974625
944.365366,-444.123565,0.000000,-10495.508323
944.365686,2146.597232,1702.473667,-9499.584175
944.366005,1480.411884,3404.947333,-11414.822920
944.366325,1850.514855,2738.761985,-10495.508323
944.366645,0.000000,962.267725,-10648.727422
944.366965,-1406.391290,-1480.411884,-9729.412825
944.367284,-296.082377,-1998.556043,-10342.289223
944.367604,962.267725,-1850.514855,-10495.508323
944.367924,1036.288319,0.000000,-10495.508323
944.368244,0.000000,2368.659014,-10648.727422
944.368564,-518.144159,2886.803174,-11491.432470
944.368883,222.061783,2886.803174,-10955.165621
944.369203,0.000000,2072.576638,-10572.117872
944.369523,-1036.288319,-2294.638420,-9806.022374
944.369843,-740.205942,-3627.009116,-10112.460574
944.370162,-370.102971,-2664.741391,-10572.117872
944.370482,-518.144159,-666.185348,-10495.508323
944.370802,-3182.885551,1332.370696,-9959.241474
944.371122,-2516.700203,1406.391290,-10495.508323
944.371441,0.000000,-518.144159,-9806.022374
944.371761,1628.453072,-444.123565,-9422.974625
944.372081,74.020594,1258.350101,-10572.117872
944.372401,-888.247130,2368.659014,-9959.241474
944.372720,-1776.494261,2294.638420,-9806.022374
944.373040,-1924.535449,666.185348,-10189.070123
944.373360,-1036.288319,-1406.391290,-9116.536426
944.373680,-2516.700203,-2812.782580,-9729.412825
944.373999,1110.308913,-1702.473667,-9576.193725
944.374319,0.000000,888.247130,-9882.631924
944.374639,444.123565,814.226536,-9882.631924
944.374959,1776.494261,1184.329507,-9806.022374
944.375278,518.144159,148.041188,-9652.803275
944.375598,0.000000,888.247130,-9346.365076
944.375918,962.267725,296.082377,-9806.022374
944.376238,2442.679609,1036.288319,-10648.727422
944.376557,1110.308913,1110.308913,-10112.460574
944.376877,2516.700203,2738.761985,-10418.898773
944.377197,1480.411884,3775.050304,-10801.946522
944.377517,2960.823768,2294.638420,-10112.460574
944.377836,1850.514855,-1036.288319,-10725.336972
944.378156,-296.082377,74.020594,-9652.803275
944.378476,-1184.329507,518.144159,-9806.022374
944.378796,2442.679609,2072.576638,-9269.755526
944.379115,3849.070898,1702.473667,-10418.898773
944.379435,4293.194464,2220.617826,-10572.117872
944.379755,2960.823768,2368.659014,-10878.556072
944.380075,2960.823768,2072.576638,-9806.022374
944.380394,4885.359217,3404.947333,-10878.556072
944.380714,2294.638420,3552.988522,-10648.727422
944.381034,296.082377,1554.432478,-10035.851024
944.381354,0.000000,666.185348,-10725.336972
944.381674,296.082377,-2294.638420,-9576.193725
944.381993,1480.411884,-2368.659014,-9729.412825
944.382313,1184.329507,-370.102971,-9422.974625
944.382633,1036.288319,2220.617826,-10648.727422
944.382953,0.000000,1924.535449,-9193.145976
944.383272,1924.535449,1258.350101,-10189.070123
944.383592,1036.288319,-1998.556043,-9499.584175
944.383912,0.000000,-2738.761985,-9806.022374
944.384232,-2590.720797,-1480.411884,-9576.193725
944.384551,-2664.741391,-370.102971,-9806.022374
944.384871,-370.102971,-1702.473667,-9193.145976
944.385191,0.000000,-518.144159,-10342.289223
944.385511,-1406.391290,-2220.617826,-9729.412825
944.385830,-592.164754,-444.123565,-10342.289223
944.386150,-2664.741391,-148.041188,-9652.803275
944.386470,-2590.720797,444.123565,-11184.994271
944.386790,-2146.597232,888.247130,-9729.412825
944.387109,-1258.350101,-1036.288319,-11338.213370
944.387429,-1628.453072,-3330.926739,-10495.508323
944.387749,-2812.782580,-3552.988522,-9576.193725
944.388069,-2368.659014,-814.226536,-10572.117872
944.388388,-1554.432478,1184.329507,-11108.384721
944.388708,-444.123565,1554.432478,-10725.336972
944.389028,222.061783,1776.494261,-10418.898773
944.389348,-370.102971,-1258.350101,-10265.679673
944.389667,1184.329507,-2812.782580,-10572.117872
944.389987,370.102971,-1998.556043,-10572.117872
944.390307,444.123565,1110.308913,-10801.946522
944.390627,0.000000,1702.473667,-10189.070123
944.390947,666.185348,666.185348,-10418.898773
944.391267,1406.391290,-444.123565,-11108.384721
944.391586,1924.535449,-1702.473667,-10418.898773
944.391906,1406.391290,-666.185348,-10342.289223
944.392226,1184.329507,74.020594,-10189.070123
944.392546,2516.700203,1924.535449,-9882.631924
944.392866,4071.132681,2516.700203,-10648.727422
944.393186,4071.132681,1776.494261,-11414.822920
944.393505,740.205942,0.000000,-8810.098227
944.393825,1924.535449,0.000000,-9882.631924
944.394145,4219.173869,1036.288319,-10189.070123
944.394465,6439.791695,814.226536,-9499.584175
944.394785,3849.070898,222.061783,-9806.022374
944.395105,1776.494261,-666.185348,-8656.879127
944.395424,222.061783,-444.123565,-9116.536426
944.395744,-444.123565,0.000000,-9269.755526
944.396064,-1554.432478,-888.247130,-9499.584175
944.396384,-1702.473667,-370.102971,-9193.145976
944.396704,1850.514855,296.082377,-9269.755526
944.397023,4367.215058,1332.370696,-9269.755526
944.397343,5033.400406,2590.720797,-10801.946522
944.397663,2738.761985,2294.638420,-9959.241474
944.397983,1702.473667,3701.029710,-10648.727422
944.398303,1628.453072,2442.679609,-10495.508323
944.398623,1258.350101,0.000000,-9806.022374
944.398942,-2146.597232,-2442.679609,-10342.289223
944.399262,-4959.379811,-2886.803174,-10035.851024
944.399582,-5699.585753,-2220.617826,-9346.365076
944.399902,-2664.741391,0.000000,-10495.508323
944.400222,0.000000,2368.659014,-10265.679673
944.400542,740.205942,2812.782580,-11108.384721
944.400861,-666.185348,3552.988522,-10801.946522
944.401181,0.000000,2220.617826,-10801.946522
944.401501,-888.247130,962.267725,-10955.165621
944.401821,-1258.350101,740.205942,-11261.603821
944.402141,-1332.370696,962.267725,-10112.460574
944.402461,-518.144159,2590.720797,-11108.384721
944.402780,0.000000,3478.967927,-11414.822920
944.403100,-1628.453072,2960.823768,-9959.241474
944.403420,-1110.308913,740.205942,-10878.556072
944.403740,444.123565,-1924.535449,-9959.241474
944.404060,1480.411884,-1554.432478,-9959.241474
944.404380,0.000000,148.041188,-10035.851024
944.404699,-814.226536,2738.761985,-9576.193725
944.405019,0.000000,4367.215058,-10265.679673
944.405339,1628.453072,3182.885551,-10189.070123
944.405659,2812.782580,1702.473667,-9652.803275
944.405979,2146.597232,-370.102971,-9422.974625
944.406299,2368.659014,962.267725,-9576.193725
944.406618,2960.823768,1480.411884,-10265.679673
944.406938,2072.576638,2442.679609,-9729.412825
944.407258,-1480.411884,444.123565,-9116.536426
944.407578,-2368.659014,-1406.391290,-9269.755526
944.407898,-296.082377,-1258.350101,-9499.584175
944.408218,962.267725,-370.102971,-9882.631924
944.408537,3182.885551,370.102971,-9576.193725
944.408857,5033.400406,1554.432478,-9422.974625
944.409177,4737.318029,1406.391290,-10801.946522
944.409497,3034.844362,1332.370696,-10418.898773
944.409817,1480.411884,1258.350101,-10265.679673
944.410136,1628.453072,148.041188,-11108.384721
944.410456,2516.700203,148.041188,-9652.803275
944.410776,1036.288319,-148.041188,-11338.213370
944.411096,-222.061783,-370.102971,-10112.460574
944.411416,-1554.432478,-148.041188,-9959.241474
944.411736,0.000000,74.020594,-10648.727422
944.412055,3182.885551,-1036.288319,-10418.898773
944.412375,3034.844362,-1702.473667,-10648.727422
944.412695,-1110.308913,-2516.700203,-9882.631924
944.413015,-2516.700203,-1998.556043,-9652.803275
944.413335,-592.164754,518.144159,-10189.070123
944.413655,2442.679609,518.144159,-10342.289223
944.413974,1850.514855,74.020594,-10418.898773
944.414294,0.000000,-2812.782580,-10495.508323
944.414614,-1554.432478,-3849.070898,-10342.289223
944.414934,-888.247130,-4071.132681,-9729.412825
944.415254,-1554.432478,-2146.597232,-10035.851024
944.415574,-2590.720797,-1036.288319,-10189.070123
944.415893,-3627.009116,-518.144159,-10035.851024
944.416213,-2590.720797,-1332.370696,-9422.974625
944.416533,-1480.411884,-2886.803174,-10342.289223
944.416853,-74.020594,-4145.153275,-9806.022374
944.417173,0.000000,-2738.761985,-9806.022374
944.417493,518.144159,-962.267725,-10725.336972
944.417812,-888.247130,1850.514855,-9959.241474
944.418132,-1554.432478,2886.803174,-11031.775171
944.418452,-1628.453072,814.226536,-10572.117872
944.418772,-1258.350101,-2960.823768,-9882.631924
944.419092,-2664.741391,-3701.029710,-9806.022374
944.419412,-962.267725,-2294.638420,-9806.022374
944.419731,962.267725,-370.102971,-10189.070123
944.420051,2516.700203,296.082377,-10801.946522
944.420371,2368.659014,666.185348,-10418.898773
944.420691,740.205942,1998.556043,-10189.070123
944.421011,592.164754,2960.823768,-10725.336972
944.421330,2146.597232,3478.967927,-10572.117872
944.421650,1702.473667,3552.988522,-10648.727422
944.421970,2368.659014,1924.535449,-10035.851024
944.422290,2072.576638,-740.205942,-9729.412825
944.422610,2146.597232,-814.226536,-11031.775171
944.422930,3108.864956,370.102971,-10112.460574
944.423249,1258.350101,2072.576638,-10112.460574
944.423569,-370.102971,3330.926739,-10112.460574
944.423889,1184.329507,2516.700203,-9499.584175
944.424209,2220.617826,1406.391290,-10112.460574
944.424529,2664.741391,-296.082377,-9959.241474
944.424849,3552.988522,-1258.350101,-9422.974625
944.425168,3034.844362,0.000000,-9729.412825
944.425488,4367.215058,2072.576638,-10189.070123
944.425808,5107.421000,3256.906145,-10265.679673
944.426128,3775.050304,4293.194464,-10495.508323
944.426448,2738.761985,4589.276840,-10265.679673
944.426768,0.000000,3108.864956,-10189.070123
944.427087,-1924.535449,1998.556043,-9499.584175
944.427407,-740.205942,-740.205942,-8656.879127
944.427727,-148.041188,-2368.659014,-9806.022374
944.428047,592.164754,-2960.823768,-9422.974625
944.428367,444.123565,-1406.391290,-9499.584175
944.428687,592.164754,666.185348,-9346.365076
944.429006,-1406.391290,4293.194464,-9499.584175
944.429326,-2738.761985,5329.482782,-10189.070123
944.429646,-1924.535449,3849.070898,-9499.584175
944.429966,0.000000,-370.102971,-10112.460574
944.430286,1702.473667,-2220.617826,-9576.193725
944.430606,-370.102971,-2146.597232,-10418.898773
944.430925,-4219.173869,-148.041188,-10418.898773
944.431245,-6809.894666,2590.720797,-9346.365076
944.431565,-4145.153275,5255.462188,-12180.918418
944.431885,-1332.370696,5033.400406,-10801.946522
944.432205,0.000000,1924.535449,-10418.898773
944.432525,-444.123565,-1258.350101,-9882.631924
944.432844,-222.061783,-3034.844362,-9576.193725
944.433164,1184.329507,-2812.782580,-10189.070123
944.433484,1480.411884,-1850.514855,-11031.775171
944.433804,-148.041188,-740.205942,-9959.241474
944.434124,-2368.659014,2516.700203,-10112.460574
944.434443,444.123565,2886.803174,-10495.508323
944.434763,2590.720797,2738.761985,-10878.556072
944.435083,1406.391290,1554.432478,-10725.336972
944.435403,-888.247130,444.123565,-10725.336972
944.435723,-2146.597232,-1924.535449,-10342.289223
944.436043,-518.144159,-2516.700203,-10035.851024
944.436362,2442.679609,-2812.782580,-9959.241474
944.436682,1480.411884,-1406.391290,-10572.117872
944.437002,148.041188,518.144159,-9959.241474
944.437322,0.000000,2220.617826,-10189.070123
944.437642,4219.173869,1036.288319,-10725.336972
944.437962,3627.009116,814.226536,-10189.070123
944.438281,1702.473667,-2220.617826,-9729.412825
944.438601,1924.535449,-3997.112087,-9422.974625
944.438921,3849.070898,-3775.050304,-9882.631924
944.439241,5033.400406,-1554.432478,-10189.070123
944.439561,2442.679609,-296.082377,-9959.241474
944.439881,592.164754,1036.288319,-10035.851024
944.440200,814.226536,888.247130,-9806.022374
944.440520,1702.473667,148.041188,-10035.851024
944.440840,2886.803174,-1110.308913,-9652.803275
944.441160,2886.803174,-1702.473667,-10418.898773
944.441480,3775.050304,-1628.453072,-10112.460574
944.441800,3108.864956,-1036.288319,-10342.289223
944.442119,2072.576638,148.041188,-10572.117872
944.442439,1628.453072,592.164754,-10572.117872
944.442759,1406.391290,1184.329507,-10418.898773
944.443079,-1184.329507,1258.350101,-9882.631924
944.443399,-888.247130,-518.144159,-9959.241474
944.443719,2146.597232,-1924.535449,-10035.851024
944.444038,2442.679609,-1924.535449,-10878.556072
944.444358,1480.411884,-1702.473667,-9882.631924
944.444678,-2294.638420,1184.329507,-9959.241474
944.444998,-2590.720797,3404.947333,-10265.679673
944.445318,-444.123565,3034.844362,-10265.679673
944.445637,-2072.576638,2368.659014,-10572.117872
944.445957,-4737.318029,-888.247130,-10725.336972
944.446277,-4811.338623,-3182.885551,-8886.707777
944.446597,-3552.988522,-4737.318029,-8733.488677
944.446917,1776.494261,-2960.823768,-9116.536426
944.447237,1258.350101,-592.164754,-10189.070123
944.447556,-1850.514855,740.205942,-9652.803275
944.447876,-1332.370696,592.164754,-9039.926876
944.448196,222.061783,-888.247130,-9193.145976
944.448516,0.000000,1406.391290,-9422.974625
944.448836,1406.391290,2220.617826,-10955.165621
944.449156,0.000000,1776.494261,-9882.631924
944.449475,-1184.329507,-888.247130,-9882.631924
944.449795,-148.041188,-1258.350101,-9729.412825
944.450115,-888.247130,-814.226536,-10725.336972
944.450435,-2960.823768,148.041188,-9652.803275
944.450755,-3775.050304,1258.350101,-9576.193725
944.451075,-2072.576638,3404.947333,-10878.556072
944.451394,-814.226536,4515.256246,-9806.022374
944.451714,-296.082377,3108.864956,-10801.946522
944.452034,2738.761985,1702.473667,-10189.070123
944.452354,6365.771101,1110.308913,-9959.241474
944.452674,5329.482782,1332.370696,-11414.822920
944.452994,3330.926739,1998.556043,-10112.460574
944.453313,1110.308913,1924.535449,-10725.336972
944.453633,2072.576638,3108.864956,-10189.070123
944.453953,2590.720797,3108.864956,-10342.289223
944.454273,2294.638420,2664.741391,-11184.994271
944.454593,2072.576638,2442.679609,-10878.556072
944.454913,1554.432478,814.226536,-10265.679673
944.455232,2146.597232,444.123565,-10112.460574
944.455552,2590.720797,1036.288319,-9806.022374
944.455872,3108.864956,370.102971,-10648.727422
944.456192,3034.844362,0.000000,-9882.631924
944.456512,3256.906145,1332.370696,-9729.412825
944.456832,2886.803174,1702.473667,-9806.022374
944.457151,1406.391290,1628.453072,-10572.117872
944.457471,888.247130,1184.329507,-10112.460574
944.457791,2368.659014,222.061783,-9346.365076
944.458111,2738.761985,-888.247130,-9116.536426
944.458431,0.000000,-1776.494261,-9499.584175
944.458750,-666.185348,-2146.597232,-9193.145976
944.459070,592.164754,-1110.308913,-9729.412825
944.459390,1036.288319,296.082377,-10112.460574
944.459710,592.164754,814.226536,-9193.145976
944.460030,518.144159,2220.617826,-9039.926876
944.460350,1554.432478,2146.597232,-10725.336972
944.460669,1480.411884,1998.556043,-9882.631924
944.460989,-2442.679609,-888.247130,-9729.412825
944.461309,-4293.194464,-3256.906145,-9882.631924
944.461629,-4071.132681,-3997.112087,-9116.536426
944.461949,-1332.370696,-3627.009116,-10418.898773
944.462269,444.123565,-1628.453072,-9576.193725
944.462588,-1110.308913,0.000000,-10801.946522
944.462908,-2294.638420,2146.597232,-10495.508323
944.463228,-1924.535449,2886.803174,-10801.946522
944.463548,74.020594,4441.235652,-11568.042020
944.463868,74.020594,2368.659014,-11414.822920
944.464188,0.000000,-370.102971,-10955.165621
944.464507,-740.205942,-3478.967927,-10801.946522
944.464827,-1924.535449,-2146.597232,-10265.679673
944.465147,-3034.844362,1036.288319,-11644.651570
944.465467,-2442.679609,3923.091493,-10878.556072
944.465787,-370.102971,4737.318029,-12257.527968
944.466107,888.247130,2886.803174,-11414.822920
944.466426,2294.638420,592.164754,-10725.336972
944.466746,962.267725,-1332.370696,-10725.336972
944.467066,296.082377,-1850.514855,-8810.098227
944.467386,1258.350101,-370.102971,-9652.803275
944.467706,3923.091493,370.102971,-10112.460574
944.468026,5995.668130,1110.308913,-10189.070123
944.468345,4515.256246,1480.411884,-9882.631924
944.468665,888.247130,2294.638420,-9652.803275
944.468985,-740.205942,2368.659014,-9652.803275
944.469305,2146.597232,1332.370696,-9959.241474
944.469625,4737.318029,-296.082377,-9882.631924
944.469944,3923.091493,-1184.329507,-8273.831378
944.470264,2368.659014,-2072.576638,-9039.926876
944.470584,3108.864956,-1184.329507,-9269.755526
944.470904,4885.359217,814.226536,-10265.679673
944.471224,4367.215058,3627.009116,-10189.070123
944.471544,2368.659014,2960.823768,-9652.803275
944.471863,1776.494261,1998.556043,-9806.022374
944.472183,3627.009116,444.123565,-10189.070123
944.472503,4293.194464,592.164754,-10035.851024
944.472823,2960.823768,518.144159,-10342.289223
944.473143,1924.535449,1998.556043,-9959.241474
944.473463,2294.638420,2368.659014,-10189.070123
944.473782,4145.153275,2072.576638,-11031.775171
944.474102,3552.988522,2220.617826,-10342.289223
944.474422,1184.329507,2220.617826,-11108.384721
944.474742,-888.247130,1776.494261,-10265.679673
944.475062,-1258.350101,2072.576638,-9652.803275
944.475382,370.102971,740.205942,-10495.508323
944.475701,2886.803174,1776.494261,-9652.803275
944.476021,1554.432478,1924.535449,-11261.603821
944.476341,-740.205942,2960.823768,-10342.289223
944.476661,-740.205942,3997.112087,-10342.289223
944.476981,1702.473667,3997.112087,-10112.460574
944.477301,2886.803174,3108.864956,-10189.070123
944.477620,0.000000,1776.494261,-10035.851024
944.477940,-2960.823768,1184.329507,-9882.631924
944.478260,-2886.803174,-148.041188,-9806.022374
944.478580,0.000000,2294.638420,-9193.145976
944.478900,2516.700203,3627.009116,-10189.070123
944.479220,3478.967927,4219.173869,-9499.584175
944.479539,1924.535449,3256.906145,-9959.241474
944.479859,2072.576638,2368.659014,-10495.508323
944.480179,222.061783,3478.967927,-9193.145976
944.480499,444.123565,3701.029710,-9806.022374
944.480819,2664.741391,3256.906145,-8733.488677
944.481139,3923.091493,2146.597232,-9499.584175
944.481458,2072.576638,1184.329507,-9959.241474
944.481778,2368.659014,222.061783,-9269.755526
944.482098,2072.576638,3627.009116,-10572.117872
944.482418,3849.070898,5181.441594,-10495.508323
944.482738,5107.421000,3997.112087,-9193.145976
944.483057,4589.276840,3478.967927,-10955.165621
944.483377,3923.091493,3034.844362,-9882.631924
944.483697,2294.638420,4737.318029,-10955.165621
944.484017,2294.638420,6069.688724,-11261.603821
944.484337,4959.379811,5033.400406,-10265.679673
944.484657,5773.606348,3849.070898,-10648.727422
944.484976,4589.276840,1332.370696,-10572.117872
944.485296,3108.864956,-888.247130,-9193.145976
944.485616,2664.741391,0.000000,-10572.117872
944.485936,3404.947333,888.247130,-10418.898773
944.486256,3034.844362,3404.947333,-10112.460574
944.486576,2368.659014,5699.585753,-11338.213370
944.486895,2664.741391,5181.441594,-10342.289223
944.487215,2812.782580,3404.947333,-10342.289223
944.487535,4589.276840,1998.556043,-11414.822920
944.487855,5847.626942,592.164754,-10112.460574
944.488175,5329.482782,1036.288319,-9806.022374
944.488495,2442.679609,1554.432478,-9806.022374
944.488814,1332.370696,2146.597232,-9729.412825
944.489134,296.082377,2368.659014,-10035.851024
944.489454,1998.556043,2442.679609,-9806.022374
944.489774,2072.576638,2960.823768,-9652.803275
944.490094,2368.659014,3034.844362,-9652.803275
944.490414,2294.638420,3552.988522,-9806.022374
944.490733,4589.276840,2072.576638,-10112.460574
944.491053,4515.256246,666.185348,-9806.022374
944.491373,962.267725,444.123565,-10878.556072
944.491693,-740.205942,1406.391290,-9422.974625
944.492013,222.061783,2886.803174,-9576.193725
944.492333,1332.370696,3849.070898,-10112.460574
944.492652,1332.370696,3552.988522,-8733.488677
944.492972,666.185348,1924.535449,-9652.803275
944.493292,1110.308913,1184.329507,-10035.851024
944.493612,1036.288319,1258.350101,-10112.460574
944.493932,0.000000,2590.720797,-10265.679673
944.494252,370.102971,3108.864956,-10189.070123
944.494572,666.185348,2294.638420,-10112.460574
944.494892,740.205942,1554.432478,-10265.679673
944.495212,962.267725,1628.453072,-10495.508323
944.495531,1924.535449,2664.741391,-11184.994271
944.495851,2442.679609,3256.906145,-10572.117872
944.496171,1998.556043,3404.947333,-10572.117872
944.496491,1036.288319,2664.741391,-10189.070123
944.496811,962.267725,1554.432478,-11031.775171
944.497131,518.144159,592.164754,-10342.289223
944.497451,666.185348,1332.370696,-9652.803275
944.497771,1924.535449,2516.700203,-10572.117872
944.498091,3552.988522,2590.720797,-10112.460574
944.498410,3404.947333,2368.659014,-10112.460574
944.498730,1036.288319,3627.009116,-9882.631924
944.499050,1702.473667,3775.050304,-9882.631924
944.499370,4219.173869,2886.803174,-10648.727422
944.499690,4737.318029,2146.597232,-9652.803275
944.500010,2812.782580,1850.514855,-9576.193725
944.500330,1924.535449,2220.617826,-9269.755526
944.500650,3923.091493,2738.761985,-9882.631924
944.500970,3997.112087,3923.091493,-10112.460574
944.501289,2516.700203,3849.070898,-8886.707777
944.501609,2886.803174,2960.823768,-9806.022374
944.501929,4663.297435,1776.494261,-9959.241474
944.502249,6439.791695,1406.391290,-9806.022374
944.502569,5477.523971,1850.514855,-9422.974625
944.502889,4367.215058,2664.741391,-9806.022374
944.503209,3923.091493,3849.070898,-9806.022374
944.503529,3997.112087,3997.112087,-10112.460574
944.503849,3627.009116,4737.318029,-10342.289223
944.504168,1850.514855,4145.153275,-10112.460574
944.504488,962.267725,2368.659014,-10342.289223
944.504808,740.205942,1628.453072,-9959.241474
944.505128,1776.494261,1554.432478,-9806.022374
944.505448,1628.453072,1998.556043,-11031.775171
944.505768,1406.391290,1998.556043,-10112.460574
944.506088,2442.679609,2738.761985,-9959.241474
944.506408,3182.885551,3182.885551,-9882.631924
944.506728,3478.967927,4589.276840,-10572.117872
944.507047,3923.091493,4663.297435,-10495.508323
944.507367,3034.844362,4367.215058,-10801.946522
944.507687,1110.308913,3775.050304,-10648.727422
944.508007,0.000000,2812.782580,-9729.412825
944.508327,148.041188,1406.391290,-10035.851024
944.508647,814.226536,666.185348,-10112.460574
944.508967,1628.453072,962.267725,-9576.193725
944.509287,-296.082377,1332.370696,-10265.679673
944.509607,-1184.329507,2146.597232,-9346.365076
944.509926,-444.123565,3478.967927,-9806.022374
944.510246,2738.761985,3034.844362,-10189.070123
944.510566,4959.379811,2294.638420,-9729.412825
944.510886,3701.029710,1702.473667,-10265.679673
944.511206,740.205942,1702.473667,-9959.241474
944.511526,0.000000,2220.617826,-9576.193725
944.511846,296.082377,2590.720797,-9882.631924
944.512166,1776.494261,1924.535449,-10265.679673
944.512486,2146.597232,814.226536,-9422.974625
944.512805,1406.391290,740.205942,-9806.022374
944.513125,1924.535449,1406.391290,-9882.631924
944.513445,2220.617826,2886.803174,-10112.460574
944.513765,888.247130,3923.091493,-10035.851024
944.514085,1258.350101,3404.947333,-11031.775171
944.514405,2590.720797,1406.391290,-10035.851024
944.514725,3182.885551,444.123565,-10342.289223
944.515045,2220.617826,962.267725,-9806.022374
944.515365,1480.411884,2590.720797,-10265.679673
944.515684,1776.494261,3997.112087,-10572.117872
944.516004,1998.556043,3701.029710,-10265.679673
944.516324,2220.617826,2442.679609,-10189.070123
944.516644,3034.844362,814.226536,-10035.851024
944.516964,4737.318029,-518.144159,-10342.289223
944.517284,4811.338623,962.267725,-10801.946522
944.517604,4959.379811,2886.803174,-10495.508323
944.517924,5033.400406,4663.297435,-10572.117872
944.518244,5699.585753,5181.441594,-10725.336972
944.518563,5477.523971,4515.256246,-10878.556072
944.518883,2294.638420,3997.112087,-10725.336972
944.519203,222.061783,2812.782580,-10572.117872
944.519523,1480.411884,740.205942,-9959.241474
944.519843,2886.803174,-444.123565,-9959.241474
944.520163,3034.844362,-592.164754,-9806.022374
944.520483,2590.720797,1036.288319,-9576.193725
944.520803,3108.864956,3997.112087,-9806.022374
944.521123,4663.297435,6291.750507,-10112.460574
944.521442,5847.626942,7179.997637,-10725.336972
944.521762,5033.400406,5921.647536,-10342.289223
944.522082,3775.050304,3108.864956,-10035.851024
944.522402,1776.494261,740.205942,-9652.803275
944.522722,0.000000,0.000000,-9346.365076
944.523042,-1036.288319,0.000000,-9346.365076
944.523362,370.102971,444.123565,-9116.536426
944.523682,1406.391290,1184.329507,-9422.974625
944.524002,2146.597232,2220.617826,-9422.974625
944.524321,1998.556043,3404.947333,-9959.241474
944.524641,3182.885551,5107.421000,-10035.851024
944.524961,5181.441594,5995.668130,-10495.508323
944.525281,5181.441594,5625.565159,-10342.289223
944.525601,3923.091493,3701.029710,-10342.289223
944.525921,1554.432478,2664.741391,-10112.460574
944.526241,148.041188,2368.659014,-10189.070123
944.526561,-370.102971,2812.782580,-10112.460574
944.526881,-740.205942,3330.926739,-9652.803275
944.527200,-1554.432478,2294.638420,-10035.851024
944.527520,-1924.535449,1850.514855,-10112.460574
944.527840,-1110.308913,1332.370696,-9882.631924
944.528160,888.247130,1554.432478,-9882.631924
944.528480,3849.070898,3034.844362,-9959.241474
944.528800,5255.462188,3997.112087,-10418.898773
944.529120,6143.709319,5107.421000,-10801.946522
944.529440,5551.544565,5773.606348,-10955.165621
944.529760,3330.926739,6513.812290,-10878.556072
944.530079,2368.659014,5033.400406,-10801.946522
944.530399,1554.432478,3627.009116,-10418.898773
944.530719,1332.370696,1776.494261,-9806.022374
944.531039,592.164754,148.041188,-9729.412825
944.531359,-1036.288319,0.000000,-9499.584175
944.531679,-740.205942,74.020594,-9346.365076
944.531999,148.041188,1184.329507,-9346.365076
944.532319,2146.597232,2590.720797,-9576.193725
944.532639,5033.400406,2812.782580,-9576.193725
944.532958,6365.771101,2368.659014,-9346.365076
944.533278,7031.956449,1258.350101,-9806.022374
944.533598,6217.729913,962.267725,-9806.022374
944.533918,4441.235652,1554.432478,-9959.241474
944.534238,1776.494261,2368.659014,-10035.851024
944.534558,-296.082377,2294.638420,-9959.241474
944.534878,-1258.350101,1480.411884,-10189.070123
944.535198,-888.247130,-518.144159,-9806.022374
944.535518,0.000000,-1332.370696,-9882.631924
944.535837,740.205942,-666.185348,-9882.631924
944.536157,1702.473667,814.226536,-10418.898773
944.536477,3330.926739,2886.803174,-10725.336972
944.536797,4145.153275,4441.235652,-10801.946522
944.537117,3849.070898,4959.379811,-10878.556072
944.537437,3256.906145,4737.318029,-11184.994271
944.537757,2960.823768,3256.906145,-11261.603821
944.538077,2072.576638,2294.638420,-10725.336972
944.538397,888.247130,1480.411884,-10725.336972
944.538716,0.000000,296.082377,-10342.289223
944.539036,-444.123565,518.144159,-9959.241474
944.539356,296.082377,1184.329507,-10265.679673
944.539676,1702.473667,1776.494261,-10495.508323
944.539996,2146.597232,2886.803174,-10342.289223
944.540316,3552.988522,3701.029710,-10189.070123
944.540636,4885.359217,4071.132681,-9882.631924
944.540956,6365.771101,4145.153275,-10189.070123
944.541276,7624.121203,3775.050304,-10265.679673
944.541595,5625.565159,5255.462188,-10342.289223
944.541915,3775.050304,5255.462188,-10265.679673
944.542235,1258.350101,4589.276840,-10112.460574
944.542555,-518.144159,3256.906145,-9576.193725
944.542875,-1110.308913,740.205942,-9269.755526
944.543195,-148.041188,-888.247130,-9193.145976
944.543515,1406.391290,-888.247130,-8963.317327
944.543835,2812.782580,592.164754,-9193.145976
944.544155,4515.256246,2812.782580,-9652.803275
944.544474,5477.523971,5625.565159,-9882.631924
944.544794,6513.812290,7254.018232,-10265.679673
944.545114,6365.771101,7179.997637,-10189.070123
944.545434,5329.482782,6217.729913,-9346.365076
944.545754,4071.132681,4071.132681,-10189.070123
944.546074,3256.906145,2516.700203,-9959.241474
944.546394,2072.576638,1776.494261,-10265.679673
944.546714,-444.123565,2072.576638,-9882.631924
944.547034,-2368.659014,2738.761985,-9652.803275
944.547353,-2294.638420,3034.844362,-9806.022374
944.547673,0.000000,2886.803174,-10418.898773
944.547993,1998.556043,2368.659014,-10189.070123
944.548313,3182.885551,2294.638420,-10725.336972
944.548633,3330.926739,2960.823768,-10342.289223
944.548953,3923.091493,4293.194464,-10189.070123
944.549273,4589.276840,5699.585753,-10725.336972
944.549593,5477.523971,6513.812290,-10035.851024
944.549913,4145.153275,5847.626942,-11031.775171
944.550232,962.267725,4441.235652,-10725.336972
944.550552,-2516.700203,3034.844362,-10342.289223
944.550872,-3478.967927,1406.391290,-9806.022374
944.551192,-2072.576638,370.102971,-9422.974625
944.551512,-740.205942,-518.144159,-9346.365076
944.551832,0.000000,74.020594,-9269.755526
944.552152,2072.576638,1702.473667,-9652.803275
944.552472,5033.400406,3256.906145,-9806.022374
944.552792,7031.956449,5625.565159,-10342.289223
944.553111,6957.935855,6809.894666,-10342.289223
944.553431,5773.606348,5773.606348,-10035.851024
944.553751,4219.173869,4071.132681,-9959.241474
944.554071,2072.576638,1628.453072,-9422.974625
944.554391,1332.370696,0.000000,-9422.974625
944.554711,666.185348,-740.205942,-9576.193725
944.555031,962.267725,-888.247130,-9806.022374
944.555351,148.041188,74.020594,-9422.974625
944.555671,-592.164754,1628.453072,-9806.022374
944.555990,962.267725,2590.720797,-9959.241474
944.556310,3923.091493,2886.803174,-10035.851024
944.556630,6291.750507,2516.700203,-10418.898773
944.556950,7920.203579,2368.659014,-10342.289223
944.557270,7920.203579,3034.844362,-10801.946522
944.557590,6143.709319,4145.153275,-10725.336972
944.557910,3404.947333,4737.318029,-10725.336972
944.558230,1184.329507,3997.112087,-10878.556072
944.558550,296.082377,1480.411884,-10572.117872
944.558869,222.061783,-740.205942,-10265.679673
944.559189,0.000000,-2294.638420,-10725.336972
944.559509,-1184.329507,-1406.391290,-9806.022374
944.559829,-1332.370696,296.082377,-10112.460574
944.560149,148.041188,2072.576638,-10342.289223
944.560469,2886.803174,2886.803174,-10112.460574
944.560789,5033.400406,3034.844362,-10342.289223
944.561109,6439.791695,4145.153275,-10725.336972
944.561429,5995.668130,3849.070898,-10572.117872
944.561748,4441.235652,4441.235652,-10725.336972
944.562068,2738.761985,4071.132681,-10495.508323
944.562388,1480.411884,2516.700203,-10418.898773
944.562708,-740.205942,592.164754,-10572.117872
944.563028,-3478.967927,-962.267725,-9806.022374
944.563348,-5403.503377,-1480.411884,-9193.145976
944.563668,-4219.173869,-1110.308913,-9576.193725
944.563988,1258.350101,-518.144159,-9499.584175
944.564308,4515.256246,962.267725,-9652.803275
944.564627,4885.359217,3034.844362,-10265.679673
944.564947,4071.132681,4737.318029,-9806.022374
944.565267,4145.153275,5847.626942,-10189.070123
944.565587,5847.626942,5847.626942,-10725.336972
944.565907,6217.729913,4515.256246,-10418.898773
944.566227,2886.803174,2146.597232,-10342.289223
944.566547,-444.123565,0.000000,-9346.365076
944.566867,-1702.473667,-962.267725,-9422.974625
944.567187,-1332.370696,0.000000,-10112.460574
944.567506,-1036.288319,740.205942,-9729.412825
944.567826,-888.247130,2294.638420,-9882.631924
944.568146,1554.432478,1850.514855,-8580.269578
944.568466,4885.359217,3034.844362,-10112.460574
944.568786,4885.359217,4515.256246,-10878.556072
944.569106,5921.647536,5921.647536,-11031.775171
944.569426,6587.832884,6661.853478,-10342.289223
944.569746,6735.874072,5995.668130,-10189.070123
944.570066,5625.565159,4589.276840,-10648.727422
944.570385,3775.050304,3404.947333,-10648.727422
944.570705,1702.473667,3404.947333,-10418.898773
944.571025,444.123565,3775.050304,-10495.508323
944.571345,74.020594,3478.967927,-10265.679673
944.571665,-296.082377,2146.597232,-9806.022374
944.571985,592.164754,1110.308913,-9116.536426
944.572305,2886.803174,1036.288319,-9652.803275
944.572625,5773.606348,2368.659014,-9729.412825
944.572945,6143.709319,4441.235652,-10035.851024
944.573264,5699.585753,6587.832884,-10189.070123
944.573584,6439.791695,7031.956449,-10035.851024
944.573904,7105.977043,5625.565159,-9959.241474
944.574224,3775.050304,4145.153275,-10265.679673
944.574544,444.123565,2516.700203,-9422.974625
944.574864,-1554.432478,1406.391290,-9959.241474
944.575184,-1702.473667,1110.308913,-8963.317327
944.575504,-2072.576638,148.041188,-9269.755526
944.575824,-2516.700203,0.000000,-9346.365076
944.576143,-740.205942,74.020594,-9499.584175
944.576463,2220.617826,1554.432478,-10265.679673
944.576783,4663.297435,5107.421000,-9039.926876
944.577103,5477.523971,6069.688724,-10418.898773
944.577423,6069.688724,6661.853478,-10418.898773
944.577743,5403.503377,6143.709319,-10648.727422
944.578063,4515.256246,4885.359217,-10648.727422
944.578383,888.247130,3256.906145,-10342.289223
944.578702,-2294.638420,1702.473667,-9806.022374
944.579022,-1776.494261,296.082377,-10112.460574
944.579342,-1628.453072,0.000000,-9882.631924
944.579662,-2220.617826,-74.020594,-10112.460574
944.579982,-3701.029710,666.185348,-9269.755526
944.580302,-1184.329507,1702.473667,-10495.508323
944.580622,1110.308913,3108.864956,-10648.727422
944.580942,4737.318029,5033.400406,-11797.870669
944.581262,6735.874072,5995.668130,-11031.775171
944.581581,5699.585753,4737.318029,-10801.946522
944.581901,5847.626942,4515.256246,-10495.508323
944.582221,5625.565159,3552.988522,-10878.556072
944.582541,4145.153275,3256.906145,-10955.165621
944.582861,666.185348,3701.029710,-9959.241474
944.583181,-814.226536,2294.638420,-9729.412825
944.583501,296.082377,-148.041188,-9576.193725
944.583821,370.102971,-1628.453072,-9193.145976
944.584141,1554.432478,-1702.473667,-9652.803275
944.584460,2886.803174,-2368.659014,-9959.241474
944.584780,4885.359217,0.000000,-8810.098227
944.585100,5403.503377,2664.741391,-10189.070123
944.585420,7031.956449,4737.318029,-9959.241474
944.585740,5921.647536,6365.771101,-10572.117872
944.586060,5033.400406,6809.894666,-10418.898773
944.586380,3627.009116,4219.173869,-10495.508323
944.586700,2220.617826,2590.720797,-9806.022374
944.587020,222.061783,-1110.308913,-10418.898773
944.587339,-592.164754,-3997.112087,-8733.488677
944.587659,-370.102971,-3330.926739,-9346.365076
944.587979,592.164754,-518.144159,-10418.898773
944.588299,1480.411884,2442.679609,-10189.070123
944.588619,2886.803174,5181.441594,-10342.289223
944.588939,3923.091493,6587.832884,-10801.946522
944.589259,5477.523971,5773.606348,-10035.851024
944.589579,5921.647536,2516.700203,-11108.384721
944.589899,4737.318029,1258.350101,-10801.946522
944.590218,4515.256246,-592.164754,-9652.803275
944.590538,2886.803174,0.000000,-10572.117872
944.590858,2516.700203,518.144159,-10572.117872
944.591178,1110.308913,1850.514855,-10189.070123
944.591498,-2368.659014,2738.761985,-10648.727422
944.591818,-2590.720797,2812.782580,-10035.851024
944.592138,-888.247130,1776.494261,-9806.022374
944.592458,2664.741391,0.000000,-10189.070123
944.592778,3256.906145,-1258.350101,-9806.022374
944.593098,1998.556043,-1332.370696,-9652.803275
944.593418,2146.597232,444.123565,-10418.898773
944.593738,3330.926739,2960.823768,-9346.365076
944.594058,2368.659014,5551.544565,-11568.042020
944.594378,1036.288319,5181.441594,-10801.946522
944.594698,370.102971,3627.009116,-9806.022374
944.595018,-296.082377,1110.308913,-9806.022374
944.595338,-296.082377,-1406.391290,-8963.317327
944.595658,-1702.473667,-1480.411884,-9652.803275
944.595978,-1480.411884,-1628.453072,-9959.241474
944.596298,-1850.514855,-888.247130,-9116.536426
944.596618,-2664.741391,592.164754,-9729.412825
944.596938,-1406.391290,1332.370696,-9652.803275
944.597258,2442.679609,2960.823768,-9806.022374
944.597578,5181.441594,4737.318029,-10648.727422
944.597898,4367.215058,5181.441594,-10189.070123
944.598218,3182.885551,4367.215058,-10572.117872
944.598538,2516.700203,1850.514855,-10495.508323
944.598858,1258.350101,592.164754,-10265.679673
944.599178,0.000000,0.000000,-10418.898773
944.599498,-2072.576638,-592.164754,-9729.412825
944.599818,-2294.638420,444.123565,-9576.193725
944.600138,-1924.535449,1702.473667,-11031.775171
944.600458,-370.102971,1480.411884,-10189.070123
944.600778,296.082377,1776.494261,-10342.289223
944.601099,888.247130,1406.391290,-8963.317327
944.601419,2368.659014,1702.473667,-10725.336972
944.601739,4589.276840,1554.432478,-10955.165621
944.602059,3997.112087,1332.370696,-9882.631924
944.602379,592.164754,962.267725,-10265.679673
944.602699,-1258.350101,222.061783,-10035.851024
944.603019,-592.164754,-370.102971,-10035.851024
944.603339,2368.659014,-1184.329507,-9576.193725
944.603659,2220.617826,592.164754,-10112.460574
944.603979,814.226536,1554.432478,-11338.213370
944.604299,74.020594,2368.659014,-9806.022374
944.604619,1924.535449,1924.535449,-10725.336972
944.604939,3034.844362,296.082377,-9499.584175
944.605259,3552.988522,-740.205942,-8656.879127
944.605579,2812.782580,-1776.494261,-10342.289223
944.605899,1924.535449,-2220.617826,-9652.803275
944.606219,592.164754,370.102971,-10955.165621
944.606539,2072.576638,3627.009116,-10725.336972
944.606859,2960.823768,5329.482782,-10112.460574
944.607179,2442.679609,4959.379811,-11184.994271
944.607499,2960.823768,2072.576638,-10342.289223
944.607819,2146.597232,-1258.350101,-10572.117872
944.608139,-1184.329507,-4071.132681,-9346.365076
944.608459,-3034.844362,-5921.647536,-8580.269578
944.608779,-2368.659014,-3849.070898,-9346.365076
944.609099,518.144159,222.061783,-10648.727422
944.609419,2738.761985,3182.885551,-10112.460574
944.609739,1554.432478,4515.256246,-11108.384721
944.610059,-740.205942,3256.906145,-10189.070123
944.610379,0.000000,1924.535449,-9959.241474
944.610699,74.020594,-518.144159,-10878.556072
944.611019,-148.041188,-3108.864956,-9039.926876
944.611339,-3627.009116,-3552.988522,-9576.193725
944.611659,-4219.173869,-3034.844362,-9116.536426
944.611979,-2664.741391,-370.102971,-9269.755526
944.612299,-814.226536,1332.370696,-10495.508323
944.612619,962.267725,1776.494261,-11031.775171
944.612939,-444.123565,1332.370696,-9499.584175
944.613259,222.061783,296.082377,-10418.898773
944.613579,1332.370696,-592.164754,-10112.460574
944.613899,1110.308913,-148.041188,-10418.898773
944.614219,-1998.556043,370.102971,-9882.631924
944.614539,-2368.659014,962.267725,-9576.193725
944.614859,0.000000,1554.432478,-10648.727422
944.615179,2072.576638,2072.576638,-10648.727422
944.615499,1406.391290,2368.659014,-10878.556072
944.615819,74.020594,2220.617826,-10878.556072
944.616139,-1258.350101,888.247130,-10342.289223
944.616459,-1110.308913,0.000000,-10342.289223
944.616779,-1036.288319,74.020594,-10878.556072
944.617099,-740.205942,-1702.473667,-9959.241474
944.617419,-1628.453072,-518.144159,-9806.022374
944.617739,296.082377,74.020594,-10418.898773
944.618059,3923.091493,666.185348,-10342.289223
944.618379,5847.626942,1702.473667,-11184.994271
944.618699,3182.885551,1998.556043,-9959.241474
944.619019,-1258.350101,296.082377,-10189.070123
944.619339,444.123565,-444.123565,-9652.803275
944.619659,3034.844362,-1110.308913,-10572.117872
944.619979,3404.947333,-2146.597232,-10035.851024
944.620299,3849.070898,-1628.453072,-10342.289223
944.620619,0.000000,-814.226536,-9269.755526
944.620939,888.247130,740.205942,-10112.460574
944.621259,2220.617826,2072.576638,-10418.898773
944.621579,2960.823768,1184.329507,-10035.851024
944.621899,1036.288319,1406.391290,-9652.803275
944.622219,74.020594,0.000000,-9652.803275
944.622539,1110.308913,-1184.329507,-9422.974625
944.622859,1702.473667,-2072.576638,-9729.412825
944.623179,2368.659014,-1406.391290,-9882.631924
944.623499,1258.350101,0.000000,-10112.460574
944.623819,518.144159,1406.391290,-8580.269578
944.624139,0.000000,2886.803174,-10801.946522
944.624459,740.205942,1628.453072,-10342.289223
944.624779,74.020594,0.000000,-9806.022374
944.625099,0.000000,-1998.556043,-10418.898773
944.625419,222.061783,-2812.782580,-8733.488677
944.625739,0.000000,-2590.720797,-9882.631924
944.626059,370.102971,-666.185348,-10189.070123
944.626379,0.000000,2442.679609,-10035.851024
944.626699,-666.185348,4071.132681,-10878.556072
944.627019,222.061783,3923.091493,-10801.946522
944.627339,296.082377,2220.617826,-11338.213370
944.627659,-148.041188,1776.494261,-10265.679673
944.627979,-2220.617826,888.247130,-10572.117872
944.628299,-3182.885551,-1702.473667,-9806.022374
944.628619,-1258.350101,-3034.844362,-10035.851024
944.628939,-518.144159,-3849.070898,-9499.584175
944.629259,-518.144159,-1702.473667,-9652.803275
944.629580,74.020594,1924.535449,-10035.851024
944.629900,-222.061783,6365.771101,-10342.289223
944.630220,1258.350101,7846.182985,-11568.042020
944.630540,1184.329507,4737.318029,-10572.117872
944.630860,370.102971,222.061783,-9806.022374
944.631180,-666.185348,-4737.318029,-8963.317327
944.631500,148.041188,-6513.812290,-8350.440928
944.631820,444.123565,-3478.967927,-9729.412825
944.632140,740.205942,1332.370696,-9959.241474
944.632460,222.061783,5107.421000,-10112.460574
944.632780,-222.061783,5699.585753,-10878.556072
944.633100,-814.226536,2960.823768,-10112.460574
944.633420,518.144159,74.020594,-9882.631924
944.633740,1110.308913,-2368.659014,-9652.803275
944.634060,148.041188,-4441.235652,-9269.755526
944.634380,666.185348,-5033.400406,-9116.536426
944.634700,1702.473667,-2294.638420,-9882.631924
944.635020,2590.720797,1406.391290,-10495.508323
944.635340,3997.112087,5847.626942,-11184.994271
944.635660,1924.535449,8660.409521,-11721.261119
944.635980,1924.535449,6957.935855,-11261.603821
944.636300,2886.803174,2442.679609,-10112.460574
944.636620,4071.132681,-2738.761985,-10648.727422
944.636940,1332.370696,-7031.956449,-8886.707777
944.637260,-1702.473667,-6735.874072,-8733.488677
944.637580,148.041188,-2368.659014,-9959.241474
944.637900,3034.844362,1924.535449,-10572.117872
944.638220,3775.050304,5403.503377,-11414.822920
944.638540,3330.926739,5329.482782,-11414.822920
944.638860,3552.988522,2294.638420,-10342.289223
944.639180,2442.679609,-370.102971,-10035.851024
944.639500,0.000000,-1702.473667,-9269.755526
944.639820,-740.205942,-1776.494261,-10265.679673
944.640140,-1628.453072,-1924.535449,-9806.022374
944.640460,222.061783,-1628.453072,-9346.365076
944.640780,2368.659014,-1332.370696,-10648.727422
944.641100,1776.494261,1036.288319,-10418.898773
944.641420,-1406.391290,2664.741391,-10801.946522
944.641740,-3775.050304,2516.700203,-9499.584175
944.642060,-2590.720797,1554.432478,-9729.412825
944.642380,-2072.576638,-1406.391290,-10878.556072
944.642700,-1036.288319,-4885.359217,-9959.241474
944.643020,-1480.411884,-4441.235652,-9039.926876
944.643340,-1406.391290,-1850.514855,-9652.803275
944.643660,222.061783,740.205942,-9422.974625
944.643980,1480.411884,3182.885551,-10648.727422
944.644300,444.123565,3701.029710,-10725.336972
944.644620,-1332.370696,2368.659014,-9652.803275
944.644940,-1924.535449,0.000000,-9806.022374
944.645260,-1036.288319,-2368.659014,-10342.289223
944.645580,-592.164754,-3330.926739,-9652.803275
944.645900,-2368.659014,-3256.906145,-10035.851024
944.646220,-3478.967927,-2146.597232,-9806.022374
944.646540,-1480.411884,370.102971,-9499.584175
944.646860,296.082377,2368.659014,-10725.336972
944.647180,962.267725,4441.235652,-11491.432470
944.647500,444.123565,4293.194464,-10801.946522
944.647820,-222.061783,1998.556043,-10878.556072
944.648140,-592.164754,-888.247130,-9882.631924
944.648460,0.000000,-3182.885551,-9499.584175
944.648780,1850.514855,-3404.947333,-10418.898773
944.649100,2368.659014,-2812.782580,-10112.460574
944.649420,1702.473667,0.000000,-9422.974625
944.649740,2146.597232,2368.659014,-10878.556072
944.650060,3627.009116,3478.967927,-10418.898773
944.650380,2590.720797,3256.906145,-10495.508323
944.650700,0.000000,592.164754,-10112.460574
944.651020,-592.164754,-1998.556043,-8886.707777
944.651340,1036.288319,-2812.782580,-9806.022374
944.651660,3775.050304,-1924.535449,-10265.679673
944.651980,3775.050304,592.164754,-9806.022374
944.652300,2146.597232,1628.453072,-9729.412825
944.652620,2072.576638,1924.535449,-9806.022374
944.652940,2368.659014,1406.391290,-10801.946522
944.653260,3552.988522,740.205942,-10265.679673
944.653580,1628.453072,74.020594,-9959.241474
944.653900,518.144159,-666.185348,-9346.365076
944.654220,1110.308913,222.061783,-10418.898773
944.654540,592.164754,-370.102971,-10112.460574
944.654860,962.267725,296.082377,-9959.241474
944.655180,1406.391290,1628.453072,-9039.926876
944.655500,2664.741391,2812.782580,-10648.727422
944.655820,2220.617826,3775.050304,-10878.556072
944.656140,1480.411884,3034.844362,-11338.213370
944.656460,-1850.514855,1554.432478,-10418.898773
944.656780,-3775.050304,-740.205942,-9882.631924
944.657100,-4589.276840,-2072.576638,-9039.926876
944.657420,-740.205942,-2072.576638,-9806.022374
944.657740,2516.700203,-518.144159,-9959.241474
944.658061,1924.535449,3478.967927,-11031.775171
944.658381,-666.185348,3775.050304,-10725.336972
944.658701,-1406.391290,3849.070898,-9959.241474
944.659021,-666.185348,814.226536,-10035.851024
944.659341,962.267725,-814.226536,-9422.974625
944.659661,-148.041188,-1184.329507,-9806.022374
944.659981,-1702.473667,-1480.411884,-9652.803275
944.660301,-1184.329507,-740.205942,-9806.022374
944.660621,740.205942,592.164754,-10342.289223
944.660941,-666.185348,2072.576638,-9729.412825
944.661261,-2442.679609,2368.659014,-10112.460574
944.661581,-4737.318029,370.102971,-9652.803275
944.661901,-2220.617826,-444.123565,-9729.412825
944.662221,-1258.350101,-1924.535449,-9193.145976
944.662541,-222.061783,-1480.411884,-10112.460574
944.662861,-1036.288319,-1258.350101,-9499.584175
944.663181,1110.308913,0.000000,-9959.241474
944.663501,3108.864956,518.144159,-10112.460574
944.663821,3997.112087,2146.597232,-9116.536426
944.664141,0.000000,1554.432478,-11261.603821
944.664461,0.000000,148.041188,-9806.022374
944.664781,-666.185348,0.000000,-9652.803275
944.665101,962.267725,-962.267725,-10572.117872
944.665421,2220.617826,-1406.391290,-9346.365076
944.665741,1406.391290,-2072.576638,-10725.336972
944.666061,1554.432478,-518.144159,-10801.946522
944.666381,666.185348,592.164754,-10878.556072
944.666701,1998.556043,1110.308913,-11721.261119
944.667021,1998.556043,1258.350101,-11184.994271
944.667341,1924.535449,148.041188,-10418.898773
944.667661,2294.638420,-296.082377,-10648.727422
944.667981,1036.288319,-592.164754,-10342.289223
944.668301,518.144159,-1110.308913,-10265.679673
944.668621,1998.556043,0.000000,-10265.679673
944.668941,3256.906145,740.205942,-10955.165621
944.669261,5255.462188,1036.288319,-11108.384721
944.669581,3182.885551,2146.597232,-10801.946522
944.669901,-1480.411884,2442.679609,-10495.508323
944.670221,-4367.215058,2516.700203,-10265.679673
944.670541,-3775.050304,1998.556043,-9499.584175
944.670861,74.020594,-296.082377,-9882.631924
944.671181,3182.885551,-3256.906145,-9576.193725
944.671501,3552.988522,-4219.173869,-10189.070123
944.671821,3182.885551,-4219.173869,-10035.851024
944.672141,2664.741391,-1110.308913,-9422.974625
944.672461,1258.350101,2886.803174,-9882.631924
944.672781,814.226536,4441.235652,-10801.946522
944.673101,-1702.473667,3849.070898,-9116.536426
944.673421,-3330.926739,1702.473667,-9806.022374
944.673741,-2738.761985,-1924.535449,-9346.365076
944.674061,-444.123565,-4737.318029,-9039.926876
944.674381,296.082377,-4811.338623,-9806.022374
944.674701,518.144159,-4441.235652,-9346.365076
944.675021,740.205942,-1406.391290,-9346.365076
944.675341,-814.226536,1924.535449,-10189.070123
944.675661,-740.205942,4589.276840,-9806.022374
944.675981,-1480.411884,5625.565159,-11108.384721
944.676301,-1332.370696,2960.823768,-10572.117872
944.676621,-814.226536,-518.144159,-9269.755526
944.676941,74.020594,-2590.720797,-10725.336972
944.677261,1776.494261,-3627.009116,-9806.022374
944.677581,-370.102971,-1702.473667,-10265.679673
944.677901,-370.102971,1480.411884,-10572.117872
944.678221,148.041188,2368.659014,-9882.631924
944.678541,666.185348,2368.659014,-10418.898773
944.678861,-1628.453072,2960.823768,-10878.556072
944.679181,-2886.803174,1702.473667,-9652.803275
944.679501,-2146.597232,-962.267725,-9806.022374
944.679821,1998.556043,-1480.411884,-10189.070123
944.680141,5625.565159,-666.185348,-10418.898773
944.680461,4367.215058,-148.041188,-10878.556072
944.680781,2812.782580,1036.288319,-10265.679673
944.681101,2368.659014,2294.638420,-9346.365076
944.681421,814.226536,2664.741391,-10265.679673
944.681741,-592.164754,1776.494261,-10189.070123
944.682061,-888.247130,370.102971,-9959.241474
944.682381,666.185348,-740.205942,-9652.803275
944.682701,4367.215058,-1036.288319,-10112.460574
944.683021,3404.947333,-1110.308913,-9882.631924
944.683341,1554.432478,-814.226536,-9959.241474
944.683661,2368.659014,370.102971,-9806.022374
944.683981,1776.494261,1554.432478,-9576.193725
944.684301,1554.432478,3182.885551,-10189.070123
944.684621,-1258.350101,2146.597232,-9806.022374
944.684941,-2220.617826,222.061783,-9882.631924
944.685261,-444.123565,-1036.288319,-9959.241474
944.685581,1554.432478,-2368.659014,-9499.584175
944.685901,1776.494261,-1776.494261,-9576.193725
944.686221,1480.411884,1036.288319,-10878.556072
944.686542,962.267725,2812.782580,-10495.508323
944.686862,222.061783,3552.988522,-10801.946522
944.687182,-962.267725,2442.679609,-9882.631924
944.687502,-1036.288319,296.082377,-9959.241474
944.687822,-2146.597232,-370.102971,-9882.631924
944.688142,-1184.329507,-2146.597232,-10495.508323
944.688462,-222.061783,-2368.659014,-10265.679673
944.688782,-2146.597232,-148.041188,-10112.460574
944.689102,592.164754,1332.370696,-10418.898773
944.689422,740.205942,2590.720797,-9269.755526
944.689742,296.082377,3330.926739,-9806.022374
944.690062,-148.041188,3182.885551,-10495.508323
944.690382,0.000000,1184.329507,-9729.412825
944.690702,1036.288319,-2664.741391,-10035.851024
944.691022,518.144159,-3701.029710,-9422.974625
944.691342,-2442.679609,-3034.844362,-8886.707777
944.691662,-3108.864956,-518.144159,-9806.022374
944.691982,-1110.308913,2294.638420,-9882.631924
944.692302,1184.329507,2960.823768,-10955.165621
944.692622,-666.185348,222.061783,-9806.022374
944.692942,-1110.308913,-296.082377,-9882.631924
944.693262,-814.226536,-2294.638420,-9652.803275
944.693582,2220.617826,-2516.700203,-8810.098227
944.693902,3552.988522,-1776.494261,-9882.631924
944.694222,2442.679609,0.000000,-9882.631924
944.694542,1258.350101,1332.370696,-9882.631924
944.694861,1406.391290,2072.576638,-11108.384721
944.695181,2664.741391,3108.864956,-10035.851024
944.695501,1332.370696,3552.988522,-10801.946522
944.695821,0.000000,1554.432478,-10495.508323
944.696141,2146.597232,-1258.350101,-9882.631924
944.696461,2294.638420,-3108.864956,-10189.070123
944.696781,0.000000,-3775.050304,-9806.022374
944.697101,-1332.370696,-2960.823768,-9346.365076
944.697421,1554.432478,370.102971,-10265.679673
944.697741,3627.009116,2146.597232,-10342.289223
944.698061,5699.585753,3775.050304,-10955.165621
944.698381,2368.659014,2442.679609,-10495.508323
944.698701,3923.091493,2294.638420,-10495.508323
944.699021,3849.070898,814.226536,-10495.508323
944.699341,2368.659014,0.000000,-9806.022374
944.699661,-1480.411884,-1184.329507,-10189.070123
944.699980,-2516.700203,-1776.494261,-9806.022374
944.700300,-444.123565,-814.226536,-9959.241474
944.700620,-74.020594,-222.061783,-10035.851024
944.700940,-2220.617826,370.102971,-9806.022374
944.701260,-1332.370696,1702.473667,-9806.022374
944.701580,-1628.453072,1850.514855,-10265.679673
944.701900,296.082377,222.061783,-9806.022374
944.702220,2368.659014,-1406.391290,-9729.412825
944.702540,74.020594,-1332.370696,-10112.460574
944.702860,0.000000,370.102971,-10418.898773
944.703180,740.205942,2960.823768,-10342.289223
944.703500,592.164754,3330.926739,-10112.460574
944.703820,-592.164754,4885.359217,-10878.556072
944.704140,-1776.494261,2886.803174,-10648.727422
944.704460,-962.267725,1850.514855,-10265.679673
944.704780,-2294.638420,-1332.370696,-9806.022374
944.705099,-1110.308913,-3034.844362,-9346.365076
944.705419,0.000000,-3775.050304,-9959.241474
944.705739,222.061783,-3108.864956,-8810.098227
944.706059,1406.391290,74.020594,-9652.803275
944.706379,0.000000,2590.720797,-10725.336972
944.706699,518.144159,4811.338623,-10801.946522
944.707019,-592.164754,3923.091493,-10265.679673
944.707339,-1184.329507,740.205942,-10112.460574
944.707659,-888.247130,-1998.556043,-9269.755526
944.707979,-666.185348,-4737.318029,-9422.974625
944.708299,1924.535449,-4441.235652,-9346.365076
944.708619,2442.679609,-1554.432478,-10418.898773
944.708939,3478.967927,2590.720797,-10878.556072
944.709259,2072.576638,5477.523971,-10342.289223
944.709579,222.061783,6217.729913,-11031.775171
944.709899,-1480.411884,4737.318029,-10572.117872
944.710218,-814.226536,518.144159,-10342.289223
944.710538,2368.659014,-2368.659014,-10189.070123
944.710858,3404.947333,-4293.194464,-10035.851024
944.711178,2368.659014,-4589.276840,-9422.974625
944.711498,592.164754,-1628.453072,-10265.679673
944.711818,-444.123565,1184.329507,-9959.241474
944.712138,1850.514855,2960.823768,-10418.898773
944.712458,2294.638420,2738.761985,-10189.070123
944.712778,2368.659014,1776.494261,-10572.117872
944.713098,814.226536,518.144159,-10342.289223
944.713418,1776.494261,-222.061783,-9806.022374
944.713738,3552.988522,-962.267725,-9959.241474
944.714058,2886.803174,-2738.761985,-9882.631924
944.714378,3256.906145,-2516.700203,-9806.022374
944.714698,1628.453072,-666.185348,-10265.679673
944.715017,962.267725,962.267725,-11031.775171
944.715337,-1036.288319,3701.029710,-10035.851024
944.715657,-1406.391290,4293.194464,-10572.117872
944.715977,-1702.473667,2072.576638,-10572.117872
944.716297,-370.102971,-1924.535449,-9806.022374
944.716617,-518.144159,-3330.926739,-10572.117872
944.716937,-1628.453072,-4441.235652,-9576.193725
944.717257,-1110.308913,-3552.988522,-9269.755526
944.717577,814.226536,1110.308913,-10189.070123
944.717897,2368.659014,4515.256246,-10189.070123
944.718217,962.267725,5477.523971,-10189.070123
944.718537,-962.267725,4293.194464,-10648.727422
944.718857,-1332.370696,1184.329507,-10495.508323
944.719177,-1554.432478,-1406.391290,-10342.289223
944.719497,1406.391290,-2590.720797,-9346.365076
944.719817,296.082377,-2886.803174,-9193.145976
944.720136,-962.267725,-1924.535449,-9499.584175
944.720456,-1036.288319,-814.226536,-9346.365076
944.720776,-962.267725,962.267725,-10648.727422
944.721096,-296.082377,1702.473667,-9652.803275
944.721416,1036.288319,2072.576638,-9959.241474
944.721736,1036.288319,1406.391290,-10418.898773
944.722056,1184.329507,1110.308913,-10189.070123
944.722376,0.000000,592.164754,-10112.460574
944.722696,-518.144159,-444.123565,-9806.022374
944.723016,-1480.411884,-222.061783,-10725.336972
944.723336,-2294.638420,-222.061783,-9882.631924
944.723656,-444.123565,296.082377,-9576.193725
944.723976,3034.844362,1628.453072,-11184.994271
944.724296,3923.091493,1480.411884,-10342.289223
