#time,accel_x,accel_y,accel_z
891.498318,740.205942,444.123565,-10035.851024
891.498638,740.205942,740.205942,-10801.946522
891.498958,296.082377,370.102971,-10265.679673
891.499278,296.082377,222.061783,-10035.851024
891.499598,222.061783,74.020594,-10265.679673
891.499918,296.082377,370.102971,-10878.556072
891.500237,518.144159,74.020594,-10418.898773
891.500557,888.247130,222.061783,-9882.631924
891.500877,814.226536,148.041188,-10265.679673
891.501197,666.185348,222.061783,-10112.460574
891.501517,444.123565,-222.061783,-10265.679673
891.501837,296.082377,-296.082377,-10035.851024
891.502156,370.102971,0.000000,-10112.460574
891.502476,666.185348,74.020594,-10265.679673
891.502796,666.185348,-592.164754,-10035.851024
891.503116,148.041188,222.061783,-10035.851024
891.503436,518.144159,444.123565,-10035.851024
891.503756,814.226536,370.102971,-10265.679673
891.504075,74.020594,444.123565,-9806.022374
891.504395,0.000000,-296.082377,-10112.460574
891.504715,666.185348,-222.061783,-9882.631924
891.505035,1036.288319,-222.061783,-10112.460574
891.505355,222.061783,-444.123565,-10112.460574
891.505675,-592.164754,-444.123565,-11184.994271
891.505994,-518.144159,-962.267725,-10112.460574
891.506314,222.061783,-814.226536,-10112.460574
891.506634,-518.144159,-148.041188,-10112.460574
891.506954,-888.247130,-444.123565,-9882.631924
891.507274,-814.226536,-592.164754,-10418.898773
891.507594,-74.020594,-1036.288319,-10418.898773
891.507913,-592.164754,-1184.329507,-10035.851024
891.508233,-1406.391290,-1480.411884,-9959.241474
891.508553,-1702.473667,-1110.308913,-9806.022374
891.508873,-666.185348,-1480.411884,-9959.241474
891.509193,-1036.288319,-1628.453072,-9882.631924
891.509513,-1850.514855,-2146.597232,-10035.851024
891.509833,-1628.453072,-2368.659014,-9959.241474
891.510152,-962.267725,-2220.617826,-9959.241474
891.510472,-592.164754,-1184.329507,-9882.631924
891.510792,-1480.411884,-1184.329507,-10265.679673
891.511112,-1924.535449,-1258.350101,-9806.022374
891.511432,-592.164754,-1184.329507,-9729.412825
891.511752,148.041188,-814.226536,-9959.241474
891.512071,-444.123565,-1258.350101,-10265.679673
891.512391,-2368.659014,-2516.700203,-10495.508323
891.512711,-2664.741391,-3256.906145,-9806.022374
891.513031,-2368.659014,-3552.988522,-9882.631924
891.513351,-1924.535449,-2812.782580,-9806.022374
891.513671,-2294.638420,-2738.761985,-10189.070123
891.513990,-2590.720797,-2442.679609,-10112.460574
891.514310,-1850.514855,-2146.597232,-10572.117872
891.514630,0.000000,-1332.370696,-10418.898773
891.514950,1406.391290,-592.164754,-10418.898773
891.515270,74.020594,-444.123565,-10801.946522
891.515590,-1258.350101,-518.144159,-11568.042020
891.515909,-2368.659014,-1332.370696,-10112.460574
891.516229,-3478.967927,-2738.761985,-9882.631924
891.516549,-5107.421000,-3552.988522,-9806.022374
891.516869,-5107.421000,-4663.297435,-8733.488677
891.517189,-3330.926739,-5329.482782,-9422.974625
891.517509,-1184.329507,-4737.318029,-9882.631924
891.517829,222.061783,-3034.844362,-10035.851024
891.518148,444.123565,-962.267725,-10265.679673
891.518468,1036.288319,962.267725,-10035.851024
891.518788,1776.494261,1998.556043,-10342.289223
891.519108,2146.597232,1628.453072,-10342.289223
891.519428,1036.288319,74.020594,-10112.460574
891.519748,-370.102971,-2146.597232,-10189.070123
891.520067,-2220.617826,-3330.926739,-10112.460574
891.520387,-4293.194464,-4145.153275,-9959.241474
891.520707,-6143.709319,-4293.194464,-9422.974625
891.521027,-5921.647536,-4589.276840,-9039.926876
891.521347,-3108.864956,-4219.173869,-9039.926876
891.521667,-148.041188,-4145.153275,-9806.022374
891.521986,1554.432478,-2368.659014,-10189.070123
891.522306,2368.659014,-222.061783,-10112.460574
891.522626,3552.988522,2442.679609,-11721.261119
891.522946,4663.297435,3256.906145,-11108.384721
891.523266,2294.638420,3182.885551,-11184.994271
891.523586,-1998.556043,740.205942,-10648.727422
891.523905,-5551.544565,-2664.741391,-10265.679673
891.524225,-5773.606348,-5551.544565,-9882.631924
891.524545,-5255.462188,-7179.997637,-9499.584175
891.524865,-4589.276840,-6957.935855,-9499.584175
891.525185,-3775.050304,-5255.462188,-9346.365076
891.525505,-2146.597232,-2368.659014,-9652.803275
891.525824,1332.370696,1110.308913,-10189.070123
891.526144,3108.864956,3256.906145,-10725.336972
891.526464,3108.864956,3404.947333,-10955.165621
891.526784,3404.947333,1258.350101,-10189.070123
891.527104,3034.844362,-666.185348,-10648.727422
891.527424,814.226536,-2368.659014,-10342.289223
891.527744,-2664.741391,-3034.844362,-10189.070123
891.528063,-5033.400406,-2812.782580,-9729.412825
891.528383,-6513.812290,-2590.720797,-9806.022374
891.528703,-7772.162391,-3404.947333,-9422.974625
891.529023,-7476.080014,-4219.173869,-9116.536426
891.529343,-4589.276840,-4959.379811,-9193.145976
891.529663,0.000000,-4367.215058,-9806.022374
891.529982,3552.988522,-1924.535449,-9882.631924
891.530302,3627.009116,962.267725,-10112.460574
891.530622,2294.638420,2960.823768,-10342.289223
891.530942,1036.288319,3997.112087,-10648.727422
891.531262,1036.288319,4071.132681,-10801.946522
891.531582,814.226536,1406.391290,-11031.775171
891.531901,-2294.638420,-2368.659014,-10495.508323
891.532221,-5255.462188,-5847.626942,-9806.022374
891.532541,-8068.244768,-6513.812290,-9346.365076
891.532861,-8882.471304,-6217.729913,-8733.488677
891.533181,-6587.832884,-4737.318029,-8733.488677
891.533501,-2368.659014,-3627.009116,-9269.755526
891.533820,1554.432478,-3849.070898,-10035.851024
891.534140,3478.967927,-2294.638420,-9422.974625
891.534460,3256.906145,74.020594,-10189.070123
891.534780,3997.112087,1924.535449,-10495.508323
891.535100,4441.235652,3404.947333,-10801.946522
891.535420,2812.782580,3182.885551,-10495.508323
891.535740,-740.205942,1036.288319,-10648.727422
891.536059,-4737.318029,-2664.741391,-10572.117872
891.536379,-7105.977043,-5773.606348,-9882.631924
891.536699,-6587.832884,-7328.038826,-9652.803275
891.537019,-5329.482782,-8438.347739,-9193.145976
891.537339,-4589.276840,-7179.997637,-9422.974625
891.537659,-3775.050304,-5699.585753,-9576.193725
891.537978,-1554.432478,-1850.514855,-10189.070123
891.538298,2812.782580,2368.659014,-10189.070123
891.538618,5551.544565,3478.967927,-11491.432470
891.538938,5477.523971,4145.153275,-11797.870669
891.539258,1258.350101,2072.576638,-11031.775171
891.539578,-2516.700203,-962.267725,-10648.727422
891.539897,-3923.091493,-3552.988522,-9806.022374
891.540217,-3923.091493,-5699.585753,-10035.851024
891.540537,-4885.359217,-6291.750507,-9652.803275
891.540857,-7328.038826,-6513.812290,-9499.584175
891.541177,-7550.100608,-6143.709319,-8886.707777
891.541497,-3997.112087,-5107.421000,-9806.022374
891.541816,-370.102971,-2516.700203,-9882.631924
891.542136,-888.247130,-1406.391290,-10035.851024
891.542456,-518.144159,-1406.391290,-9652.803275
891.542776,1036.288319,518.144159,-10112.460574
891.543096,3404.947333,740.205942,-10342.289223
891.543416,3627.009116,-148.041188,-10572.117872
891.543735,814.226536,-1776.494261,-10801.946522
891.544055,-1258.350101,-2886.803174,-9499.584175
891.544375,-3552.988522,-2886.803174,-10495.508323
891.544695,-6069.688724,-1702.473667,-10265.679673
891.545015,-7402.059420,-2664.741391,-9729.412825
891.545335,-5773.606348,-4367.215058,-9193.145976
891.545655,-1480.411884,-3849.070898,-9576.193725
891.545974,1184.329507,-4515.256246,-9806.022374
891.546294,1850.514855,-2442.679609,-9806.022374
891.546614,2738.761985,-370.102971,-10418.898773
891.546934,2812.782580,1184.329507,-10648.727422
891.547254,1480.411884,2368.659014,-10801.946522
891.547574,592.164754,2368.659014,-10265.679673
891.547893,518.144159,0.000000,-10801.946522
891.548213,370.102971,-1406.391290,-10035.851024
891.548533,-2368.659014,-3923.091493,-10189.070123
891.548853,-4737.318029,-4885.359217,-9652.803275
891.549173,-5625.565159,-3552.988522,-9959.241474
891.549493,-5181.441594,-3849.070898,-9806.022374
891.549812,-2812.782580,-4219.173869,-9346.365076
891.550132,-1036.288319,-3478.967927,-8886.707777
891.550452,444.123565,-2368.659014,-9576.193725
891.550772,2442.679609,-592.164754,-10725.336972
891.551092,3552.988522,1036.288319,-9959.241474
891.551412,2294.638420,3256.906145,-11031.775171
891.551731,0.000000,3701.029710,-10648.727422
891.552051,-2220.617826,222.061783,-10265.679673
891.552371,-2442.679609,-2960.823768,-9729.412825
891.552691,-3923.091493,-4589.276840,-9806.022374
891.553011,-4441.235652,-5477.523971,-9652.803275
891.553331,-3923.091493,-4219.173869,-9806.022374
891.553651,-4219.173869,-2294.638420,-9576.193725
891.553970,-3849.070898,-1406.391290,-9499.584175
891.554290,-1702.473667,-1628.453072,-9652.803275
891.554610,592.164754,-1184.329507,-9729.412825
891.554930,2368.659014,-370.102971,-10189.070123
891.555250,1998.556043,0.000000,-10495.508323
891.555570,1480.411884,1406.391290,-10112.460574
891.555890,222.061783,2442.679609,-10495.508323
891.556210,148.041188,1480.411884,-11031.775171
891.556530,-222.061783,666.185348,-10495.508323
891.556850,-2960.823768,-2294.638420,-9806.022374
891.557169,-3552.988522,-4145.153275,-10189.070123
891.557489,-3182.885551,-3256.906145,-9806.022374
891.557809,-4145.153275,-3478.967927,-10265.679673
891.558129,-3775.050304,-2294.638420,-9729.412825
891.558449,-740.205942,-1702.473667,-9806.022374
891.558769,2146.597232,-222.061783,-10801.946522
891.559089,1998.556043,222.061783,-10725.336972
891.559409,2368.659014,2738.761985,-10342.289223
891.559729,3256.906145,2442.679609,-10878.556072
891.560049,2368.659014,2220.617826,-10495.508323
891.560369,74.020594,-1554.432478,-10495.508323
891.560688,-2442.679609,-4589.276840,-9959.241474
891.561008,-3552.988522,-4293.194464,-8503.660028
891.561328,-4219.173869,-3330.926739,-9806.022374
891.561648,-3552.988522,-1628.453072,-9806.022374
891.561968,-3108.864956,-592.164754,-9346.365076
891.562288,444.123565,-2146.597232,-10035.851024
891.562608,3849.070898,-3256.906145,-9652.803275
891.562928,3775.050304,-2146.597232,-9806.022374
891.563248,814.226536,148.041188,-9959.241474
891.563568,-1332.370696,3330.926739,-9959.241474
891.563888,1036.288319,3849.070898,-10112.460574
891.564207,3627.009116,2368.659014,-10035.851024
891.564527,3552.988522,370.102971,-11108.384721
891.564847,814.226536,-2146.597232,-10572.117872
891.565167,-2368.659014,-3627.009116,-9806.022374
891.565487,-1998.556043,-2368.659014,-9346.365076
891.565807,-1554.432478,-370.102971,-10265.679673
891.566127,-1998.556043,-1998.556043,-9652.803275
891.566447,-1628.453072,-1036.288319,-9959.241474
891.566767,-518.144159,-1332.370696,-10189.070123
891.567087,3478.967927,444.123565,-10265.679673
891.567407,5329.482782,3034.844362,-10801.946522
891.567726,2812.782580,2516.700203,-10418.898773
891.568046,2442.679609,1702.473667,-10265.679673
891.568366,666.185348,0.000000,-10725.336972
891.568686,-444.123565,-1480.411884,-10342.289223
891.569006,-2368.659014,-1406.391290,-10035.851024
891.569326,-2220.617826,-962.267725,-10189.070123
891.569646,518.144159,-1110.308913,-9806.022374
891.569966,962.267725,-2368.659014,-10648.727422
891.570286,1332.370696,-1628.453072,-10035.851024
891.570606,370.102971,-888.247130,-9806.022374
891.570926,518.144159,1110.308913,-9806.022374
891.571245,4293.194464,1998.556043,-9959.241474
891.571565,3775.050304,3330.926739,-10342.289223
891.571885,1702.473667,814.226536,-9882.631924
891.572205,814.226536,-2146.597232,-9806.022374
891.572525,-148.041188,-1924.535449,-9806.022374
891.572845,-148.041188,0.000000,-9576.193725
891.573165,222.061783,2442.679609,-10112.460574
891.573485,74.020594,-74.020594,-9806.022374
891.573805,148.041188,-2664.741391,-9269.755526
891.574125,-444.123565,-3182.885551,-9193.145976
891.574445,-148.041188,-1406.391290,-9422.974625
891.574764,2368.659014,1332.370696,-10189.070123
891.575084,3108.864956,2442.679609,-10035.851024
891.575404,3404.947333,2738.761985,-10495.508323
891.575724,2294.638420,0.000000,-9729.412825
891.576044,-370.102971,-888.247130,-10418.898773
891.576364,222.061783,888.247130,-10189.070123
891.576684,666.185348,1480.411884,-10265.679673
891.577004,1480.411884,2664.741391,-10801.946522
891.577324,-444.123565,1036.288319,-10112.460574
891.577644,-2960.823768,-1628.453072,-9959.241474
891.577964,-3701.029710,-2738.761985,-9422.974625
891.578283,-1924.535449,-2368.659014,-9806.022374
891.578603,-740.205942,370.102971,-9806.022374
891.578923,518.144159,1184.329507,-10418.898773
891.579243,1554.432478,962.267725,-10801.946522
891.579563,1628.453072,1554.432478,-9346.365076
891.579883,-518.144159,2220.617826,-10265.679673
891.580203,-1628.453072,2220.617826,-10878.556072
891.580523,-518.144159,1628.453072,-10265.679673
891.580843,1258.350101,-444.123565,-9959.241474
891.581163,2072.576638,-2590.720797,-9806.022374
891.581483,74.020594,-2664.741391,-9422.974625
891.581802,-2812.782580,-1258.350101,-10112.460574
891.582122,-3108.864956,296.082377,-9806.022374
891.582442,-1184.329507,740.205942,-10265.679673
891.582762,0.000000,1776.494261,-9652.803275
891.583082,0.000000,296.082377,-9576.193725
891.583402,1184.329507,0.000000,-9806.022374
891.583722,3256.906145,1406.391290,-9729.412825
891.584042,3701.029710,1480.411884,-10342.289223
891.584362,3256.906145,1924.535449,-10035.851024
891.584682,2738.761985,1924.535449,-10572.117872
891.585002,0.000000,592.164754,-9422.974625
891.585321,-592.164754,518.144159,-10189.070123
891.585641,-814.226536,444.123565,-9422.974625
891.585961,592.164754,-740.205942,-10572.117872
891.586281,1628.453072,74.020594,-9882.631924
891.586601,444.123565,0.000000,-10342.289223
891.586921,1776.494261,1628.453072,-9806.022374
891.587241,2812.782580,1924.535449,-10878.556072
891.587561,3404.947333,1628.453072,-9882.631924
891.587881,3552.988522,1924.535449,-10418.898773
891.588201,3330.926739,2516.700203,-11951.089769
891.588521,2442.679609,1332.370696,-10418.898773
891.588840,1776.494261,-444.123565,-10418.898773
891.589160,888.247130,-1258.350101,-9882.631924
891.589480,592.164754,-1406.391290,-8886.707777
891.589800,222.061783,-962.267725,-10572.117872
891.590120,-1184.329507,-814.226536,-9652.803275
891.590440,-1258.350101,296.082377,-9806.022374
891.590760,296.082377,1554.432478,-10112.460574
891.591080,2072.576638,1850.514855,-10112.460574
891.591400,2590.720797,592.164754,-10572.117872
891.591720,2146.597232,74.020594,-10112.460574
891.592040,296.082377,1184.329507,-9959.241474
891.592359,370.102971,1554.432478,-11031.775171
891.592679,444.123565,518.144159,-10112.460574
891.592999,592.164754,-592.164754,-9806.022374
891.593319,-740.205942,-740.205942,-9729.412825
891.593639,-518.144159,-1406.391290,-9346.365076
891.593959,-518.144159,-370.102971,-10265.679673
891.594279,-1036.288319,-1332.370696,-9729.412825
891.594599,222.061783,-1258.350101,-9576.193725
891.594919,740.205942,-1110.308913,-9729.412825
891.595239,1110.308913,0.000000,-10189.070123
891.595559,-444.123565,-148.041188,-9959.241474
891.595878,-1924.535449,148.041188,-10418.898773
891.596198,-1702.473667,518.144159,-10265.679673
891.596518,0.000000,148.041188,-9959.241474
891.596838,0.000000,-148.041188,-10265.679673
891.597158,-1628.453072,888.247130,-10495.508323
891.597478,-3923.091493,-222.061783,-10495.508323
891.597798,-3849.070898,296.082377,-10572.117872
891.598118,-1924.535449,-370.102971,-8886.707777
891.598438,0.000000,-296.082377,-10418.898773
891.598758,518.144159,-1702.473667,-10495.508323
891.599078,-1036.288319,-2368.659014,-10189.070123
891.599397,0.000000,1406.391290,-10189.070123
891.599717,1184.329507,3478.967927,-10035.851024
891.600037,2442.679609,3552.988522,-11108.384721
891.600357,3256.906145,2220.617826,-10725.336972
891.600677,-222.061783,-1480.411884,-10112.460574
891.600997,-2442.679609,-740.205942,-9652.803275
891.601317,-1628.453072,148.041188,-9652.803275
891.601637,666.185348,518.144159,-10572.117872
891.601957,1628.453072,296.082377,-9959.241474
891.602277,1406.391290,-1258.350101,-10878.556072
891.602597,444.123565,-2072.576638,-9729.412825
891.602916,1998.556043,222.061783,-9806.022374
891.603236,2368.659014,1702.473667,-9959.241474
891.603556,4071.132681,2368.659014,-10265.679673
891.603876,5181.441594,-296.082377,-9729.412825
891.604196,2146.597232,148.041188,-9882.631924
891.604516,1332.370696,1184.329507,-10265.679673
891.604836,370.102971,740.205942,-9806.022374
891.605156,4071.132681,0.000000,-9729.412825
891.605476,3627.009116,-1110.308913,-9269.755526
891.605796,-222.061783,-1924.535449,-9652.803275
891.606116,-1554.432478,-1406.391290,-9193.145976
891.606435,-1702.473667,-444.123565,-9576.193725
891.606755,666.185348,814.226536,-9882.631924
891.607075,2960.823768,2146.597232,-10801.946522
891.607395,4071.132681,1258.350101,-10418.898773
891.607715,3849.070898,370.102971,-10265.679673
891.608035,2442.679609,2664.741391,-9729.412825
891.608355,740.205942,3701.029710,-10648.727422
891.608675,962.267725,3552.988522,-10725.336972
891.608995,1406.391290,2072.576638,-10725.336972
891.609315,0.000000,-666.185348,-10648.727422
891.609635,-1036.288319,-1480.411884,-10189.070123
891.609954,-1628.453072,-592.164754,-9882.631924
891.610274,-1924.535449,-444.123565,-10265.679673
891.610594,592.164754,2294.638420,-9959.241474
891.610914,1998.556043,2960.823768,-10955.165621
891.611234,1998.556043,1332.370696,-10801.946522
891.611554,-1110.308913,222.061783,-10112.460574
891.611874,-1850.514855,-444.123565,-10265.679673
891.612194,-222.061783,814.226536,-9422.974625
891.612514,3404.947333,1776.494261,-10725.336972
891.612834,3478.967927,1628.453072,-9959.241474
891.613154,1036.288319,962.267725,-10342.289223
891.613473,-1480.411884,-148.041188,-9806.022374
891.613793,-2146.597232,-2146.597232,-9576.193725
891.614113,-370.102971,-1628.453072,-9422.974625
891.614433,962.267725,-296.082377,-9882.631924
891.614753,222.061783,-666.185348,-9652.803275
891.615073,0.000000,296.082377,-9652.803275
891.615393,-962.267725,1406.391290,-9806.022374
891.615713,-1184.329507,2368.659014,-9959.241474
891.616033,222.061783,4219.173869,-10725.336972
891.616353,2368.659014,1776.494261,-9806.022374
891.616673,1850.514855,962.267725,-10112.460574
891.616992,0.000000,-370.102971,-9806.022374
891.617312,-518.144159,-2442.679609,-10189.070123
891.617632,-888.247130,-2442.679609,-9116.536426
891.617952,-148.041188,-666.185348,-9959.241474
891.618272,222.061783,1924.535449,-10418.898773
891.618592,-740.205942,3108.864956,-10342.289223
891.618912,-1258.350101,3701.029710,-10878.556072
891.619232,-1628.453072,1998.556043,-10265.679673
891.619552,-962.267725,518.144159,-9806.022374
891.619872,962.267725,-2664.741391,-9959.241474
891.620192,1554.432478,-1776.494261,-10112.460574
891.620511,1110.308913,74.020594,-10342.289223
891.620831,592.164754,1850.514855,-11261.603821
891.621151,814.226536,2738.761985,-10572.117872
891.621471,2146.597232,2368.659014,-10418.898773
891.621791,1110.308913,592.164754,-9882.631924
891.622111,148.041188,148.041188,-9882.631924
891.622431,-444.123565,1406.391290,-10572.117872
891.622751,-592.164754,0.000000,-9806.022374
891.623071,962.267725,-1628.453072,-9729.412825
891.623391,2664.741391,-2368.659014,-9652.803275
891.623711,3404.947333,-1998.556043,-9346.365076
891.624030,296.082377,814.226536,-9729.412825
891.624350,-444.123565,1702.473667,-9729.412825
891.624670,148.041188,2442.679609,-9806.022374
891.624990,1924.535449,592.164754,-9652.803275
891.625310,4071.132681,-1776.494261,-9729.412825
891.625630,888.247130,-2220.617826,-10342.289223
891.625950,-222.061783,-2886.803174,-9346.365076
891.626270,0.000000,-962.267725,-9806.022374
891.626590,962.267725,1258.350101,-9959.241474
891.626910,1702.473667,2072.576638,-10495.508323
891.627230,2072.576638,888.247130,-10648.727422
891.627549,1702.473667,74.020594,-9806.022374
891.627869,0.000000,888.247130,-10878.556072
891.628189,-222.061783,1480.411884,-10572.117872
891.628509,1850.514855,0.000000,-10342.289223
891.628829,2590.720797,-1184.329507,-10418.898773
891.629149,1184.329507,-1480.411884,-10342.289223
891.629469,-740.205942,0.000000,-10648.727422
891.629789,-1998.556043,1554.432478,-10495.508323
891.630109,-1332.370696,2812.782580,-10955.165621
891.630429,0.000000,2812.782580,-10878.556072
891.630749,0.000000,444.123565,-10495.508323
891.631068,-296.082377,-2368.659014,-9806.022374
891.631388,-148.041188,-3330.926739,-9959.241474
891.631708,1850.514855,-2516.700203,-9729.412825
891.632028,2368.659014,518.144159,-9882.631924
891.632348,1332.370696,1998.556043,-9959.241474
891.632668,-1184.329507,3404.947333,-9806.022374
891.632988,-2960.823768,1776.494261,-10342.289223
891.633308,-3701.029710,296.082377,-9729.412825
891.633628,-2368.659014,592.164754,-9116.536426
891.633948,-1184.329507,148.041188,-9039.926876
891.634268,2886.803174,1332.370696,-9959.241474
891.634587,4145.153275,1628.453072,-10418.898773
891.634907,2516.700203,370.102971,-9882.631924
891.635227,0.000000,-370.102971,-9499.584175
891.635547,148.041188,-2294.638420,-9729.412825
891.635867,1036.288319,-1850.514855,-9729.412825
891.636187,1110.308913,3256.906145,-10189.070123
891.636507,-222.061783,6809.894666,-10801.946522
891.636827,-444.123565,6883.915261,-11108.384721
891.637147,-1924.535449,3997.112087,-10878.556072
891.637467,296.082377,148.041188,-9959.241474
891.637787,740.205942,-4441.235652,-9729.412825
891.638106,1480.411884,-4663.297435,-10035.851024
891.638426,1554.432478,-3849.070898,-9499.584175
891.638746,-666.185348,-1480.411884,-10112.460574
891.639066,592.164754,666.185348,-10035.851024
891.639386,2812.782580,2738.761985,-10342.289223
891.639706,4737.318029,2812.782580,-10572.117872
891.640026,2960.823768,3627.009116,-10265.679673
891.640346,888.247130,3849.070898,-10801.946522
891.640666,1406.391290,2738.761985,-10035.851024
891.640986,2072.576638,-370.102971,-10035.851024
891.641306,1480.411884,-2516.700203,-9346.365076
891.641625,1184.329507,-3404.947333,-8886.707777
891.641945,-592.164754,-1554.432478,-9346.365076
891.642265,370.102971,2220.617826,-9729.412825
891.642585,518.144159,3775.050304,-9499.584175
891.642905,296.082377,3552.988522,-9806.022374
891.643225,1776.494261,888.247130,-8963.317327
891.643545,2220.617826,-1110.308913,-9652.803275
891.643865,1036.288319,-1628.453072,-9959.241474
891.644185,296.082377,-592.164754,-9422.974625
891.644505,-1110.308913,444.123565,-9806.022374
891.644825,1110.308913,148.041188,-9959.241474
891.645144,3034.844362,592.164754,-10189.070123
891.645464,2738.761985,444.123565,-10418.898773
891.645784,0.000000,1480.411884,-10189.070123
891.646104,-1924.535449,2072.576638,-10725.336972
891.646424,-1702.473667,1332.370696,-10418.898773
891.646744,0.000000,-740.205942,-10418.898773
891.647064,666.185348,-3108.864956,-10112.460574
891.647384,-1110.308913,-3034.844362,-10572.117872
891.647704,-2146.597232,-2146.597232,-10342.289223
891.648024,-814.226536,296.082377,-10878.556072
891.648344,1628.453072,2960.823768,-11031.775171
891.648663,2368.659014,3182.885551,-10572.117872
891.648983,-148.041188,2294.638420,-11108.384721
891.649303,-1702.473667,-592.164754,-10342.289223
891.649623,-1554.432478,-2146.597232,-9959.241474
891.649943,222.061783,-1850.514855,-10112.460574
891.650263,962.267725,-962.267725,-9959.241474
891.650583,0.000000,-296.082377,-10265.679673
891.650903,-888.247130,592.164754,-9882.631924
891.651223,-1184.329507,1998.556043,-9806.022374
891.651543,-962.267725,2442.679609,-10265.679673
891.651863,-444.123565,1110.308913,-10265.679673
891.652182,148.041188,-962.267725,-9346.365076
891.652502,-1406.391290,-2812.782580,-8886.707777
891.652822,-1554.432478,-3330.926739,-9116.536426
891.653142,-666.185348,-1184.329507,-9729.412825
891.653462,370.102971,370.102971,-9729.412825
891.653782,2516.700203,2442.679609,-9882.631924
891.654102,2368.659014,2368.659014,-10112.460574
891.654422,666.185348,1184.329507,-10112.460574
891.654742,-1110.308913,592.164754,-9959.241474
891.655062,-1702.473667,444.123565,-10648.727422
891.655382,1702.473667,1406.391290,-10572.117872
891.655701,4071.132681,1036.288319,-10418.898773
891.656021,3552.988522,-1850.514855,-9959.241474
891.656341,1110.308913,-2368.659014,-8580.269578
891.656661,444.123565,-2072.576638,-9729.412825
891.656981,2146.597232,-740.205942,-9959.241474
891.657301,2886.803174,592.164754,-10342.289223
891.657621,2590.720797,962.267725,-10801.946522
891.657941,518.144159,1628.453072,-9959.241474
891.658261,-1184.329507,2146.597232,-10342.289223
891.658581,-666.185348,-222.061783,-9882.631924
891.658901,2664.741391,-740.205942,-9806.022374
891.659221,5403.503377,-1480.411884,-10418.898773
891.659541,4071.132681,-370.102971,-10189.070123
891.659861,1258.350101,0.000000,-9806.022374
891.660181,-666.185348,888.247130,-9576.193725
891.660501,0.000000,2146.597232,-9652.803275
891.660821,2516.700203,1776.494261,-9806.022374
891.661141,1998.556043,2368.659014,-10035.851024
891.661461,1850.514855,370.102971,-9806.022374
891.661781,740.205942,-1554.432478,-9576.193725
891.662101,1406.391290,-1258.350101,-9806.022374
891.662421,444.123565,1406.391290,-9882.631924
891.662740,-1480.411884,2516.700203,-9882.631924
891.663060,666.185348,3108.864956,-10265.679673
891.663380,0.000000,1776.494261,-10418.898773
891.663700,0.000000,814.226536,-9499.584175
891.664020,-1184.329507,592.164754,-9576.193725
891.664340,-444.123565,444.123565,-10112.460574
891.664660,148.041188,0.000000,-10265.679673
891.664980,3404.947333,0.000000,-10648.727422
891.665300,296.082377,-444.123565,-10495.508323
891.665620,-3923.091493,-370.102971,-10342.289223
891.665940,-2516.700203,814.226536,-10035.851024
891.666260,518.144159,2072.576638,-10725.336972
891.666580,444.123565,2812.782580,-10342.289223
891.666900,-592.164754,148.041188,-11184.994271
891.667220,-1776.494261,-2738.761985,-10112.460574
891.667540,-3108.864956,-1998.556043,-9499.584175
891.667860,-2072.576638,888.247130,-10648.727422
891.668180,-2664.741391,2812.782580,-9959.241474
891.668500,-962.267725,3108.864956,-10878.556072
891.668820,-1110.308913,2072.576638,-10418.898773
891.669140,-370.102971,-814.226536,-9652.803275
891.669460,-1998.556043,-1554.432478,-10112.460574
891.669780,-148.041188,-518.144159,-9729.412825
891.670100,2516.700203,1406.391290,-9576.193725
891.670420,74.020594,2960.823768,-9806.022374
891.670739,0.000000,3034.844362,-9959.241474
891.671059,-370.102971,74.020594,-9269.755526
891.671379,518.144159,-1480.411884,-9806.022374
891.671699,370.102971,-1110.308913,-9193.145976
891.672019,2294.638420,-2590.720797,-10342.289223
891.672339,2738.761985,-1332.370696,-11338.213370
891.672659,2146.597232,148.041188,-9499.584175
891.672979,1702.473667,2960.823768,-10265.679673
891.673299,74.020594,3701.029710,-10648.727422
891.673619,814.226536,2368.659014,-10648.727422
891.673939,1776.494261,370.102971,-10265.679673
891.674259,2368.659014,-592.164754,-9959.241474
891.674579,1702.473667,-1924.535449,-10342.289223
891.674899,3256.906145,-2146.597232,-10189.070123
891.675219,4293.194464,-1110.308913,-10418.898773
891.675539,3923.091493,0.000000,-10418.898773
891.675859,3034.844362,1110.308913,-10648.727422
891.676179,1258.350101,1258.350101,-10342.289223
891.676499,0.000000,1110.308913,-10112.460574
891.676819,-296.082377,0.000000,-10189.070123
891.677139,962.267725,-740.205942,-9806.022374
891.677459,888.247130,-1480.411884,-10189.070123
891.677779,592.164754,-1406.391290,-9806.022374
891.678099,-444.123565,-1110.308913,-8350.440928
891.678418,-444.123565,-74.020594,-9959.241474
891.678738,0.000000,-222.061783,-9499.584175
891.679058,1480.411884,962.267725,-10112.460574
891.679378,888.247130,1258.350101,-10035.851024
891.679698,1184.329507,-296.082377,-9193.145976
891.680018,0.000000,-1406.391290,-9576.193725
891.680338,444.123565,-1406.391290,-9806.022374
891.680658,1184.329507,-1406.391290,-9652.803275
891.680978,1036.288319,592.164754,-9576.193725
891.681298,296.082377,1110.308913,-10418.898773
891.681618,-1702.473667,1480.411884,-10189.070123
891.681938,-1998.556043,0.000000,-10189.070123
891.682258,-1554.432478,-1850.514855,-9882.631924
891.682578,-1406.391290,-814.226536,-9576.193725
891.682898,-1110.308913,740.205942,-10955.165621
891.683218,888.247130,1406.391290,-10955.165621
891.683538,-666.185348,1036.288319,-10572.117872
891.683858,0.000000,-1406.391290,-10342.289223
891.684178,148.041188,-3108.864956,-9959.241474
891.684498,-296.082377,-2146.597232,-10112.460574
891.684818,-1036.288319,-518.144159,-10801.946522
891.685138,592.164754,2294.638420,-10189.070123
891.685458,740.205942,3775.050304,-10495.508323
891.685778,1480.411884,3256.906145,-11797.870669
891.686098,1702.473667,1480.411884,-10418.898773
891.686417,-1406.391290,-1554.432478,-10342.289223
891.686737,-2368.659014,-1998.556043,-9499.584175
891.687057,-962.267725,-1036.288319,-9193.145976
891.687377,-740.205942,370.102971,-9882.631924
891.687697,518.144159,962.267725,-9806.022374
891.688017,444.123565,370.102971,-9039.926876
891.688337,814.226536,0.000000,-9959.241474
891.688657,296.082377,-222.061783,-9269.755526
891.688977,-592.164754,1110.308913,-9193.145976
891.689297,1110.308913,2220.617826,-10035.851024
891.689617,2886.803174,1406.391290,-9729.412825
891.689937,2886.803174,-666.185348,-9959.241474
891.690257,444.123565,-1776.494261,-9652.803275
891.690577,-148.041188,-1406.391290,-9576.193725
891.690897,1628.453072,1110.308913,-11338.213370
891.691217,3034.844362,3478.967927,-10495.508323
891.691537,2886.803174,2664.741391,-10035.851024
891.691857,-518.144159,1036.288319,-10495.508323
891.692177,-1110.308913,0.000000,-9959.241474
891.692497,222.061783,518.144159,-10878.556072
891.692817,2368.659014,148.041188,-10725.336972
891.693137,4219.173869,-370.102971,-10265.679673
891.693457,3849.070898,-1036.288319,-10342.289223
891.693777,2738.761985,-592.164754,-10342.289223
891.694097,740.205942,740.205942,-10418.898773
891.694416,1036.288319,1480.411884,-10725.336972
891.694736,444.123565,2590.720797,-10418.898773
891.695056,-666.185348,814.226536,-9882.631924
891.695376,-592.164754,-370.102971,-9806.022374
891.695696,296.082377,-2220.617826,-9882.631924
891.696016,1776.494261,-2516.700203,-9422.974625
891.696336,1776.494261,-666.185348,-10265.679673
891.696656,1110.308913,222.061783,-9652.803275
891.696976,1258.350101,2294.638420,-9576.193725
891.697296,1258.350101,2516.700203,-10418.898773
891.697616,370.102971,2368.659014,-9576.193725
891.697936,74.020594,1480.411884,-9729.412825
891.698256,1332.370696,222.061783,-10342.289223
891.698576,0.000000,-814.226536,-9652.803275
891.698896,0.000000,-1332.370696,-10035.851024
891.699216,-1628.453072,0.000000,-9806.022374
891.699536,-1998.556043,0.000000,-9729.412825
891.699856,-888.247130,1258.350101,-10035.851024
891.700176,-370.102971,-370.102971,-10418.898773
891.700496,-592.164754,-1184.329507,-10418.898773
891.700816,-2886.803174,-1258.350101,-10112.460574
891.701136,-1998.556043,-222.061783,-10189.070123
891.701456,444.123565,518.144159,-10495.508323
891.701776,3034.844362,1184.329507,-11261.603821
891.702095,4145.153275,962.267725,-11338.213370
891.702415,1332.370696,-370.102971,-11108.384721
891.702735,-2072.576638,-1332.370696,-10648.727422
891.703055,-3404.947333,-1036.288319,-9806.022374
891.703375,-3330.926739,-1332.370696,-10648.727422
891.703695,-1776.494261,-1332.370696,-9729.412825
891.704015,888.247130,-1406.391290,-10265.679673
891.704335,1258.350101,-518.144159,-10572.117872
891.704655,444.123565,222.061783,-10878.556072
891.704975,-888.247130,888.247130,-10342.289223
891.705295,0.000000,296.082377,-10189.070123
891.705615,-444.123565,740.205942,-9806.022374
891.705935,-370.102971,444.123565,-10265.679673
891.706255,-2220.617826,0.000000,-9576.193725
891.706575,-1628.453072,444.123565,-10035.851024
891.706895,740.205942,222.061783,-9576.193725
891.707215,2220.617826,-592.164754,-9882.631924
891.707535,3256.906145,-2146.597232,-9499.584175
891.707855,1258.350101,-1628.453072,-9269.755526
891.708175,0.000000,-740.205942,-10342.289223
891.708495,-370.102971,0.000000,-9576.193725
891.708815,296.082377,814.226536,-9882.631924
891.709135,1258.350101,1258.350101,-10265.679673
891.709455,2294.638420,740.205942,-10265.679673
891.709775,2294.638420,370.102971,-10418.898773
891.710094,2738.761985,1036.288319,-10418.898773
891.710414,2146.597232,444.123565,-9959.241474
891.710734,1924.535449,444.123565,-10572.117872
891.711054,2516.700203,-1628.453072,-9806.022374
891.711374,2368.659014,-2146.597232,-10112.460574
891.711694,0.000000,-1184.329507,-10265.679673
891.712014,-518.144159,1184.329507,-10418.898773
891.712334,1776.494261,2812.782580,-10648.727422
891.712654,4737.318029,3404.947333,-10495.508323
891.712974,4589.276840,2220.617826,-10418.898773
891.713294,2368.659014,1110.308913,-10801.946522
891.713614,740.205942,-370.102971,-9806.022374
891.713934,740.205942,-962.267725,-9576.193725
891.714254,74.020594,814.226536,-9806.022374
891.714574,-370.102971,2072.576638,-9882.631924
891.714894,-1036.288319,1850.514855,-10035.851024
891.715214,-962.267725,2442.679609,-9806.022374
891.715534,148.041188,1332.370696,-9959.241474
891.715854,2146.597232,962.267725,-9806.022374
891.716174,2294.638420,1258.350101,-10342.289223
891.716494,1998.556043,370.102971,-9652.803275
891.716814,592.164754,1036.288319,-9652.803275
891.717134,-1258.350101,370.102971,-10035.851024
891.717454,-1036.288319,444.123565,-9422.974625
891.717773,-888.247130,296.082377,-9959.241474
891.718093,-148.041188,592.164754,-9806.022374
891.718413,518.144159,740.205942,-9882.631924
891.718733,74.020594,296.082377,-10265.679673
891.719053,-1850.514855,-148.041188,-10112.460574
891.719373,-3108.864956,-444.123565,-9806.022374
891.719693,-2738.761985,-444.123565,-9882.631924
891.720013,-888.247130,-740.205942,-10418.898773
891.720333,-296.082377,296.082377,-10342.289223
891.720653,-1332.370696,148.041188,-10342.289223
891.720973,0.000000,370.102971,-9652.803275
891.721293,1332.370696,888.247130,-10189.070123
891.721613,2886.803174,814.226536,-10648.727422
891.721933,814.226536,444.123565,-10112.460574
891.722253,-1406.391290,-222.061783,-9499.584175
891.722573,-1480.411884,-592.164754,-9652.803275
891.722893,-296.082377,-888.247130,-9959.241474
891.723213,74.020594,-666.185348,-9729.412825
891.723533,-814.226536,518.144159,-10265.679673
891.723853,222.061783,1258.350101,-10035.851024
891.724173,296.082377,1628.453072,-10189.070123
891.724493,2294.638420,1184.329507,-10112.460574
891.724813,2590.720797,962.267725,-9806.022374
891.725133,2072.576638,0.000000,-10035.851024
891.725453,962.267725,-888.247130,-9959.241474
891.725772,1554.432478,-2368.659014,-9882.631924
891.726092,-666.185348,-1332.370696,-9806.022374
891.726412,-1998.556043,370.102971,-10112.460574
891.726732,-1480.411884,2442.679609,-10189.070123
891.727052,518.144159,2442.679609,-10112.460574
891.727372,2072.576638,1850.514855,-10342.289223
891.727692,1258.350101,-148.041188,-10418.898773
891.728012,666.185348,-1924.535449,-10342.289223
891.728332,0.000000,-2294.638420,-9652.803275
891.728652,1628.453072,-2220.617826,-9729.412825
891.728972,2590.720797,-814.226536,-10112.460574
891.729292,4885.359217,296.082377,-10342.289223
891.729612,3701.029710,1628.453072,-11108.384721
891.729932,1776.494261,1554.432478,-10189.070123
891.730252,592.164754,1998.556043,-9959.241474
891.730572,1332.370696,148.041188,-10035.851024
891.730892,2590.720797,-888.247130,-10035.851024
891.731212,1998.556043,-1110.308913,-10648.727422
891.731532,-740.205942,-740.205942,-10035.851024
891.731852,-2516.700203,0.000000,-9729.412825
891.732172,-1480.411884,1110.308913,-8810.098227
891.732492,1480.411884,740.205942,-10189.070123
891.732812,2738.761985,148.041188,-9806.022374
891.733132,2516.700203,-222.061783,-10189.070123
891.733452,2294.638420,-296.082377,-9652.803275
891.733771,1554.432478,1110.308913,-9806.022374
891.734091,1406.391290,740.205942,-9806.022374
891.734411,2368.659014,518.144159,-10035.851024
891.734731,740.205942,518.144159,-9652.803275
891.735051,-370.102971,1406.391290,-11338.213370
891.735371,-296.082377,962.267725,-9806.022374
891.735691,148.041188,1258.350101,-10495.508323
891.736011,666.185348,0.000000,-9882.631924
891.736331,-1850.514855,-1110.308913,-9039.926876
891.736651,-3923.091493,-1406.391290,-10342.289223
891.736971,-1628.453072,-2220.617826,-9652.803275
891.737291,74.020594,-740.205942,-9882.631924
891.737611,592.164754,888.247130,-10189.070123
891.737931,740.205942,1702.473667,-9729.412825
891.738251,888.247130,518.144159,-10418.898773
891.738571,740.205942,666.185348,-10725.336972
891.738891,-518.144159,148.041188,-9882.631924
891.739211,-1998.556043,1036.288319,-10725.336972
891.739531,-962.267725,0.000000,-10418.898773
891.739851,0.000000,-1258.350101,-10418.898773
891.740171,-888.247130,-962.267725,-11108.384721
891.740491,-2738.761985,1036.288319,-10418.898773
891.740811,-4145.153275,3256.906145,-10725.336972
891.741131,-1924.535449,3775.050304,-10572.117872
891.741450,888.247130,2738.761985,-10572.117872
891.741770,1998.556043,1184.329507,-10495.508323
891.742090,888.247130,0.000000,-9959.241474
891.742410,-740.205942,74.020594,-9499.584175
891.742730,-1036.288319,1184.329507,-9806.022374
891.743050,666.185348,1628.453072,-9576.193725
891.743370,2738.761985,888.247130,-9806.022374
891.743690,1924.535449,444.123565,-9806.022374
891.744010,370.102971,-1110.308913,-9806.022374
891.744330,518.144159,-1554.432478,-9422.974625
891.744650,0.000000,-1702.473667,-9116.536426
891.744970,888.247130,-814.226536,-10342.289223
891.745290,2072.576638,148.041188,-9806.022374
891.745610,1850.514855,740.205942,-10189.070123
891.745930,1628.453072,444.123565,-10035.851024
891.746250,1998.556043,1110.308913,-9729.412825
891.746570,2738.761985,1850.514855,-10955.165621
891.746890,3404.947333,1110.308913,-10112.460574
891.747210,2072.576638,-444.123565,-10112.460574
891.747530,2220.617826,-1998.556043,-10572.117872
891.747850,1258.350101,-962.267725,-9039.926876
891.748170,666.185348,0.000000,-9806.022374
891.748490,1776.494261,2294.638420,-10495.508323
891.748810,3108.864956,2664.741391,-10418.898773
891.749130,4145.153275,2664.741391,-10572.117872
891.749449,3182.885551,1036.288319,-10572.117872
891.749769,1406.391290,0.000000,-9806.022374
891.750089,-296.082377,-222.061783,-10035.851024
891.750409,-74.020594,518.144159,-9499.584175
891.750729,1110.308913,1110.308913,-11568.042020
891.751049,814.226536,1332.370696,-10648.727422
891.751369,592.164754,0.000000,-10189.070123
891.751689,444.123565,592.164754,-9806.022374
891.752009,592.164754,814.226536,-10418.898773
891.752329,1702.473667,222.061783,-9806.022374
891.752649,962.267725,-518.144159,-10265.679673
891.752969,-370.102971,-1332.370696,-9806.022374
891.753289,-1776.494261,-962.267725,-9269.755526
891.753609,-1036.288319,814.226536,-9806.022374
891.753929,888.247130,1036.288319,-10035.851024
891.754249,1850.514855,1406.391290,-10495.508323
891.754569,-370.102971,148.041188,-10648.727422
891.754889,-2294.638420,-1258.350101,-9806.022374
891.755209,-3849.070898,-740.205942,-9422.974625
891.755529,-2146.597232,-518.144159,-10342.289223
891.755849,0.000000,74.020594,-10418.898773
891.756169,-592.164754,370.102971,-10342.289223
891.756489,-814.226536,-888.247130,-10265.679673
891.756809,-1332.370696,-518.144159,-10035.851024
891.757129,-3552.988522,-148.041188,-10418.898773
891.757449,-2960.823768,-370.102971,-9806.022374
891.757768,-518.144159,-148.041188,-10189.070123
891.758088,1702.473667,-518.144159,-10265.679673
891.758408,1036.288319,-444.123565,-9882.631924
891.758728,1258.350101,444.123565,-10035.851024
891.759048,-518.144159,814.226536,-10648.727422
891.759368,222.061783,444.123565,-9652.803275
891.759688,666.185348,0.000000,-10418.898773
891.760008,0.000000,-222.061783,-9806.022374
891.760328,-666.185348,-222.061783,-9959.241474
891.760648,-1480.411884,0.000000,-8427.050478
891.760968,-814.226536,518.144159,-9576.193725
891.761288,222.061783,222.061783,-10189.070123
891.761608,592.164754,148.041188,-9882.631924
891.761928,3256.906145,0.000000,-10112.460574
891.762248,2960.823768,-592.164754,-9729.412825
891.762568,2442.679609,148.041188,-10112.460574
891.762888,2220.617826,370.102971,-10189.070123
891.763208,1702.473667,1036.288319,-9882.631924
891.763528,1554.432478,814.226536,-10342.289223
891.763848,2590.720797,962.267725,-10495.508323
891.764168,1776.494261,888.247130,-10418.898773
891.764488,1554.432478,666.185348,-10418.898773
891.764808,2146.597232,888.247130,-10112.460574
891.765128,2220.617826,666.185348,-10035.851024
891.765448,1554.432478,148.041188,-10265.679673
891.765768,74.020594,-740.205942,-9806.022374
891.766088,148.041188,-888.247130,-10189.070123
891.766408,518.144159,222.061783,-9806.022374
891.766728,1258.350101,1850.514855,-10495.508323
891.767048,2368.659014,2812.782580,-10572.117872
891.767368,1332.370696,1998.556043,-10342.289223
891.767688,74.020594,2072.576638,-10265.679673
891.768008,1776.494261,1110.308913,-10112.460574
891.768328,1480.411884,-296.082377,-9729.412825
891.768647,1258.350101,-296.082377,-9806.022374
891.768967,296.082377,-1036.288319,-10035.851024
891.769287,0.000000,-148.041188,-10572.117872
891.769607,-444.123565,1184.329507,-9806.022374
891.769927,-666.185348,2072.576638,-10189.070123
891.770247,-222.061783,2220.617826,-9729.412825
891.770567,518.144159,2368.659014,-10495.508323
891.770887,74.020594,518.144159,-10342.289223
891.771207,592.164754,-1036.288319,-10035.851024
891.771527,0.000000,-1628.453072,-9882.631924
891.771847,1184.329507,-1406.391290,-9729.412825
891.772167,2220.617826,-370.102971,-10342.289223
891.772487,296.082377,2368.659014,-10342.289223
891.772807,-740.205942,3034.844362,-10342.289223
891.773127,-1480.411884,3182.885551,-10035.851024
891.773447,-740.205942,2368.659014,-10112.460574
891.773767,1332.370696,0.000000,-10189.070123
891.774087,1850.514855,-2294.638420,-9806.022374
891.774407,74.020594,-2886.803174,-10189.070123
891.774727,-296.082377,-666.185348,-9806.022374
891.775047,-1406.391290,2146.597232,-10342.289223
891.775367,-1110.308913,3108.864956,-10801.946522
891.775687,592.164754,2664.741391,-10265.679673
891.776007,-370.102971,1924.535449,-10418.898773
891.776327,-740.205942,444.123565,-9882.631924
891.776647,-666.185348,-1332.370696,-9193.145976
891.776967,-740.205942,-1776.494261,-10342.289223
891.777287,74.020594,-2072.576638,-9806.022374
891.777607,-444.123565,-1850.514855,-9882.631924
891.777927,-1776.494261,222.061783,-10189.070123
891.778247,-1850.514855,2368.659014,-9806.022374
891.778567,-1776.494261,3552.988522,-10955.165621
891.778887,74.020594,3330.926739,-10265.679673
891.779206,1332.370696,1628.453072,-9806.022374
891.779526,2146.597232,-1110.308913,-9959.241474
891.779846,888.247130,-4071.132681,-9346.365076
891.780166,1554.432478,-4071.132681,-9269.755526
891.780486,592.164754,-1850.514855,-9652.803275
891.780806,1776.494261,-444.123565,-10265.679673
891.781126,1036.288319,1110.308913,-9882.631924
891.781446,962.267725,592.164754,-10418.898773
891.781766,666.185348,296.082377,-10342.289223
891.782086,740.205942,-296.082377,-10495.508323
891.782406,1332.370696,222.061783,-10572.117872
891.782726,2220.617826,888.247130,-10495.508323
891.783046,592.164754,74.020594,-10495.508323
891.783366,1184.329507,-1480.411884,-10418.898773
891.783686,3256.906145,-1628.453072,-10035.851024
891.784006,2442.679609,370.102971,-9959.241474
891.784326,1110.308913,1480.411884,-10572.117872
891.784646,1332.370696,1628.453072,-9959.241474
891.784966,2368.659014,1258.350101,-10418.898773
891.785286,2738.761985,-888.247130,-9806.022374
891.785606,1184.329507,-1776.494261,-9346.365076
891.785926,444.123565,-1776.494261,-9499.584175
891.786246,666.185348,-592.164754,-9269.755526
891.786566,1258.350101,666.185348,-9729.412825
891.786886,888.247130,0.000000,-9729.412825
891.787206,1184.329507,-518.144159,-9346.365076
891.787526,1702.473667,-888.247130,-9806.022374
891.787846,1332.370696,1184.329507,-10342.289223
891.788166,814.226536,1924.535449,-10112.460574
891.788486,-370.102971,888.247130,-10418.898773
891.788806,-666.185348,-592.164754,-10112.460574
891.789126,-518.144159,-2368.659014,-9729.412825
891.789446,-370.102971,-1776.494261,-10189.070123
891.789766,666.185348,370.102971,-10572.117872
891.790085,1184.329507,2886.803174,-10648.727422
891.790405,74.020594,3627.009116,-11108.384721
891.790725,0.000000,2220.617826,-10189.070123
891.791045,0.000000,148.041188,-10418.898773
891.791365,666.185348,-2146.597232,-10955.165621
891.791685,148.041188,-2664.741391,-10572.117872
891.792005,-1036.288319,-962.267725,-10265.679673
891.792325,-1332.370696,740.205942,-10878.556072
891.792645,-740.205942,3256.906145,-10112.460574
891.792965,-3330.926739,4293.194464,-11338.213370
891.793285,-2960.823768,2590.720797,-10189.070123
891.793605,-2294.638420,1110.308913,-9576.193725
891.793925,-1628.453072,-592.164754,-9806.022374
891.794245,-666.185348,-2368.659014,-9116.536426
891.794565,-444.123565,-2664.741391,-9422.974625
891.794885,3627.009116,-518.144159,-9346.365076
891.795205,-148.041188,0.000000,-9652.803275
891.795525,-2368.659014,1332.370696,-9652.803275
891.795845,-2812.782580,2368.659014,-9576.193725
891.796165,666.185348,2294.638420,-9652.803275
891.796485,666.185348,2368.659014,-9576.193725
891.796805,1776.494261,1258.350101,-10112.460574
891.797125,1924.535449,-222.061783,-9806.022374
891.797445,2072.576638,-1406.391290,-10035.851024
891.797765,1850.514855,-148.041188,-11108.384721
891.798085,518.144159,296.082377,-9576.193725
891.798405,-1184.329507,962.267725,-9806.022374
891.798725,-1036.288319,1184.329507,-9422.974625
891.799045,148.041188,740.205942,-10189.070123
891.799365,1554.432478,592.164754,-10648.727422
891.799685,3182.885551,444.123565,-10418.898773
891.800005,2960.823768,296.082377,-9959.241474
891.800325,1776.494261,1184.329507,-10572.117872
891.800645,1924.535449,1258.350101,-10725.336972
891.800964,592.164754,1850.514855,-10495.508323
891.801284,888.247130,1702.473667,-10955.165621
891.801604,2590.720797,1776.494261,-10265.679673
891.801924,2146.597232,1258.350101,-10418.898773
891.802244,2812.782580,740.205942,-10801.946522
891.802564,740.205942,0.000000,-10189.070123
891.802884,814.226536,444.123565,-10265.679673
891.803204,444.123565,296.082377,-10112.460574
891.803524,962.267725,1480.411884,-9806.022374
891.803844,1480.411884,740.205942,-10189.070123
891.804164,1258.350101,888.247130,-9806.022374
891.804484,370.102971,370.102971,-9959.241474
891.804804,-222.061783,370.102971,-9959.241474
891.805124,222.061783,148.041188,-9269.755526
891.805444,1554.432478,1110.308913,-9729.412825
891.805764,2442.679609,1110.308913,-10112.460574
891.806084,2146.597232,-222.061783,-9882.631924
891.806404,0.000000,-962.267725,-9806.022374
891.806724,-1554.432478,-1850.514855,-9499.584175
891.807044,-1184.329507,-1776.494261,-8886.707777
891.807364,666.185348,-740.205942,-9729.412825
891.807684,2368.659014,-518.144159,-9882.631924
891.808004,1184.329507,0.000000,-10572.117872
891.808324,-592.164754,962.267725,-10189.070123
891.808644,296.082377,814.226536,-10112.460574
891.808964,2368.659014,1332.370696,-11184.994271
891.809284,1998.556043,-888.247130,-10265.679673
891.809604,-1628.453072,-1554.432478,-10572.117872
891.809924,-4515.256246,-1480.411884,-10035.851024
891.810244,-4663.297435,888.247130,-10342.289223
891.810564,-1998.556043,3034.844362,-9806.022374
891.810884,148.041188,2072.576638,-10572.117872
891.811204,888.247130,-740.205942,-10495.508323
891.811523,888.247130,-2664.741391,-10112.460574
891.811843,-962.267725,-3478.967927,-9882.631924
891.812163,-814.226536,-2146.597232,-9652.803275
891.812483,-1406.391290,0.000000,-10189.070123
891.812803,0.000000,888.247130,-10495.508323
891.813123,666.185348,1406.391290,-10112.460574
891.813443,-666.185348,1332.370696,-10112.460574
891.813763,-1332.370696,-592.164754,-10495.508323
891.814083,-222.061783,-1628.453072,-10035.851024
891.814403,-888.247130,-962.267725,-10342.289223
891.814723,0.000000,370.102971,-10648.727422
891.815043,-1702.473667,444.123565,-10572.117872
891.815363,-2220.617826,962.267725,-10189.070123
891.815683,-148.041188,518.144159,-9806.022374
891.816003,444.123565,-592.164754,-9806.022374
891.816323,3108.864956,-148.041188,-10265.679673
891.816643,666.185348,-148.041188,-9806.022374
891.816963,0.000000,-1480.411884,-9729.412825
891.817283,592.164754,-1184.329507,-9806.022374
891.817603,1406.391290,-1258.350101,-9422.974625
891.817923,1184.329507,-370.102971,-9806.022374
891.818243,1110.308913,-296.082377,-10342.289223
891.818563,1776.494261,962.267725,-10265.679673
891.818883,962.267725,592.164754,-9729.412825
891.819203,370.102971,1036.288319,-9576.193725
891.819523,740.205942,370.102971,-9576.193725
891.819843,2368.659014,74.020594,-10265.679673
891.820163,2590.720797,-1480.411884,-10112.460574
891.820483,3701.029710,-962.267725,-8273.831378
891.820803,2812.782580,74.020594,-9806.022374
891.821123,1480.411884,1628.453072,-9959.241474
891.821443,1702.473667,2368.659014,-10265.679673
891.821763,2590.720797,1998.556043,-10878.556072
891.822083,3478.967927,1850.514855,-9499.584175
891.822402,1480.411884,296.082377,-10495.508323
891.822722,888.247130,-666.185348,-10418.898773
891.823042,1184.329507,-1184.329507,-9422.974625
891.823362,1332.370696,74.020594,-11338.213370
891.823682,1776.494261,444.123565,-9882.631924
891.824002,-370.102971,518.144159,-10035.851024
891.824322,74.020594,2368.659014,-10725.336972
891.824642,888.247130,2442.679609,-10265.679673
891.824962,-888.247130,2812.782580,-10265.679673
891.825282,592.164754,1776.494261,-10418.898773
891.825602,1554.432478,148.041188,-9729.412825
891.825922,1850.514855,-1480.411884,-10265.679673
891.826242,1258.350101,-814.226536,-10418.898773
891.826562,-370.102971,0.000000,-9806.022374
891.826882,-1480.411884,666.185348,-9729.412825
891.827202,-1924.535449,1480.411884,-9652.803275
891.827522,518.144159,2146.597232,-9959.241474
891.827842,222.061783,1924.535449,-10725.336972
891.828162,-814.226536,296.082377,-9959.241474
891.828482,-370.102971,-1332.370696,-9576.193725
891.828802,-814.226536,-1036.288319,-10189.070123
891.829122,-1036.288319,-592.164754,-9729.412825
891.829442,-1850.514855,592.164754,-9729.412825
891.829762,-1998.556043,2368.659014,-10112.460574
891.830082,0.000000,3330.926739,-10265.679673
891.830402,0.000000,2368.659014,-10342.289223
891.830722,-370.102971,-444.123565,-9806.022374
891.831042,0.000000,-2368.659014,-9499.584175
891.831362,-1554.432478,-2368.659014,-9346.365076
891.831682,-1184.329507,-1258.350101,-9729.412825
891.832002,-740.205942,1480.411884,-9806.022374
891.832322,444.123565,2442.679609,-10495.508323
891.832642,444.123565,2664.741391,-10342.289223
891.832961,-444.123565,2960.823768,-10342.289223
891.833281,-1480.411884,2368.659014,-11874.480219
891.833601,-370.102971,1110.308913,-10572.117872
891.833921,2368.659014,74.020594,-10112.460574
891.834241,3034.844362,-962.267725,-10035.851024
891.834561,1628.453072,-1998.556043,-9652.803275
891.834881,444.123565,-962.267725,-9652.803275
891.835201,222.061783,222.061783,-10648.727422
891.835521,592.164754,2146.597232,-10112.460574
891.835841,1702.473667,1924.535449,-10495.508323
891.836161,2886.803174,444.123565,-9959.241474
891.836481,2146.597232,-1036.288319,-10265.679673
891.836801,740.205942,-2072.576638,-10418.898773
891.837121,814.226536,-1110.308913,-9959.241474
891.837441,1776.494261,-370.102971,-10035.851024
891.837761,3701.029710,444.123565,-10418.898773
891.838081,4441.235652,1036.288319,-10342.289223
891.838401,2146.597232,592.164754,-10342.289223
891.838721,-1406.391290,0.000000,-9959.241474
891.839041,0.000000,592.164754,-9806.022374
891.839361,2220.617826,592.164754,-10189.070123
891.839681,2738.761985,0.000000,-10265.679673
891.840001,2294.638420,-592.164754,-9806.022374
891.840321,592.164754,-296.082377,-9882.631924
891.840641,148.041188,0.000000,-10035.851024
891.840961,74.020594,296.082377,-8886.707777
891.841281,1184.329507,666.185348,-9882.631924
891.841601,1776.494261,370.102971,-10112.460574
891.841921,740.205942,0.000000,-9729.412825
891.842241,-444.123565,-1258.350101,-9806.022374
891.842561,-518.144159,-1110.308913,-9576.193725
891.842881,-1036.288319,-1628.453072,-9882.631924
891.843201,-518.144159,-1998.556043,-9806.022374
891.843521,-444.123565,-2294.638420,-8963.317327
891.843840,-518.144159,-1998.556043,-9652.803275
891.844160,-1480.411884,-296.082377,-9882.631924
891.844480,-1554.432478,296.082377,-10342.289223
891.844800,592.164754,296.082377,-10801.946522
891.845120,1184.329507,592.164754,-10955.165621
891.845440,1110.308913,-592.164754,-10265.679673
891.845760,-1776.494261,-1554.432478,-10035.851024
891.846080,-1554.432478,-444.123565,-10495.508323
891.846400,0.000000,1702.473667,-10648.727422
891.846720,-148.041188,4441.235652,-11414.822920
891.847040,-1110.308913,3108.864956,-10801.946522
891.847360,-1924.535449,0.000000,-10112.460574
891.847680,-1332.370696,-1406.391290,-10495.508323
891.848000,-666.185348,-2294.638420,-10035.851024
891.848320,-740.205942,-592.164754,-9882.631924
891.848640,-518.144159,1406.391290,-10495.508323
891.848960,740.205942,1480.411884,-10112.460574
891.849280,1184.329507,1258.350101,-10265.679673
891.849600,1184.329507,0.000000,-10495.508323
891.849920,518.144159,0.000000,-9422.974625
891.850240,74.020594,296.082377,-9959.241474
891.850560,1258.350101,592.164754,-9346.365076
891.850880,1332.370696,-296.082377,-9576.193725
891.851200,148.041188,-888.247130,-9039.926876
891.851520,-296.082377,-1332.370696,-9346.365076
891.851840,0.000000,-296.082377,-9193.145976
891.852160,2294.638420,1332.370696,-10112.460574
891.852480,2664.741391,1184.329507,-9576.193725
891.852800,1702.473667,1036.288319,-9959.241474
891.853120,2294.638420,296.082377,-10342.289223
891.853440,1850.514855,-296.082377,-9269.755526
891.853760,0.000000,0.000000,-9806.022374
891.854080,592.164754,518.144159,-10112.460574
891.854399,2220.617826,1480.411884,-9499.584175
891.854719,2368.659014,2516.700203,-9652.803275
891.855039,2220.617826,1702.473667,-10265.679673
891.855359,2294.638420,1332.370696,-10189.070123
891.855679,1628.453072,1110.308913,-10725.336972
891.855999,518.144159,592.164754,-10035.851024
891.856319,1258.350101,296.082377,-10035.851024
891.856639,1554.432478,0.000000,-10418.898773
891.856959,2590.720797,370.102971,-9806.022374
891.857279,2294.638420,814.226536,-10648.727422
891.857599,1036.288319,1776.494261,-10878.556072
891.857919,1406.391290,1924.535449,-10495.508323
891.858239,2072.576638,2368.659014,-10801.946522
891.858559,962.267725,1406.391290,-10418.898773
891.858879,-814.226536,-222.061783,-10189.070123
891.859199,-1924.535449,-888.247130,-10035.851024
891.859520,-962.267725,-1258.350101,-9652.803275
891.859840,592.164754,222.061783,-10189.070123
891.860160,1628.453072,2294.638420,-10572.117872
891.860480,1258.350101,2368.659014,-9806.022374
891.860800,0.000000,2516.700203,-9652.803275
891.861120,-296.082377,1406.391290,-10418.898773
891.861440,444.123565,222.061783,-9422.974625
891.861760,74.020594,370.102971,-9806.022374
891.862080,148.041188,-666.185348,-10035.851024
891.862400,814.226536,-2442.679609,-9193.145976
891.862720,-222.061783,-2664.741391,-9806.022374
891.863040,-1406.391290,-1702.473667,-9346.365076
891.863361,-2368.659014,370.102971,-10342.289223
891.863681,-2442.679609,2960.823768,-10265.679673
891.864001,-888.247130,2294.638420,-10342.289223
891.864321,-518.144159,370.102971,-10035.851024
891.864641,-666.185348,-1554.432478,-9193.145976
891.864961,-888.247130,-3552.988522,-9806.022374
891.865281,-1332.370696,-3182.885551,-9652.803275
891.865601,-1850.514855,-1554.432478,-10418.898773
891.865921,-888.247130,1036.288319,-9806.022374
891.866241,222.061783,3330.926739,-10801.946522
891.866561,962.267725,1998.556043,-11568.042020
891.866881,-148.041188,-74.020594,-10418.898773
891.867202,-1406.391290,-1776.494261,-10418.898773
891.867522,-1480.411884,-2516.700203,-11261.603821
891.867842,370.102971,-1258.350101,-10265.679673
891.868162,444.123565,0.000000,-10572.117872
891.868482,444.123565,444.123565,-10112.460574
891.868802,740.205942,1036.288319,-10035.851024
891.869122,592.164754,1184.329507,-10648.727422
891.869442,1110.308913,962.267725,-9959.241474
891.869762,814.226536,1184.329507,-10648.727422
891.870082,518.144159,148.041188,-9806.022374
891.870402,1036.288319,-2146.597232,-9039.926876
891.870722,2072.576638,-2590.720797,-9576.193725
891.871042,2294.638420,-1480.411884,-9422.974625
891.871363,3552.988522,-814.226536,-9882.631924
891.871683,3775.050304,1628.453072,-9959.241474
891.872003,3256.906145,1036.288319,-9882.631924
891.872323,814.226536,592.164754,-9269.755526
891.872643,962.267725,-888.247130,-10418.898773
891.872963,1406.391290,-2294.638420,-9499.584175
891.873283,1480.411884,-1110.308913,-8427.050478
891.873603,444.123565,888.247130,-10725.336972
891.873923,1480.411884,1332.370696,-10418.898773
891.874243,1332.370696,1776.494261,-11031.775171
891.874563,-296.082377,444.123565,-10572.117872
891.874883,-1036.288319,-222.061783,-9499.584175
891.875204,-518.144159,-296.082377,-9882.631924
891.875524,888.247130,-148.041188,-10112.460574
891.875844,1850.514855,1258.350101,-10189.070123
891.876164,666.185348,2738.761985,-10495.508323
891.876484,1332.370696,666.185348,-10265.679673
891.876804,1554.432478,444.123565,-9806.022374
891.877124,666.185348,1850.514855,-10955.165621
891.877444,1702.473667,740.205942,-10878.556072
891.877764,3404.947333,1184.329507,-10112.460574
891.878084,3478.967927,1406.391290,-10648.727422
891.878404,1850.514855,1184.329507,-9806.022374
891.878724,148.041188,592.164754,-9806.022374
891.879045,-888.247130,-740.205942,-9959.241474
891.879365,-962.267725,-666.185348,-9576.193725
891.879685,-1554.432478,-592.164754,-9193.145976
891.880005,-1110.308913,74.020594,-9729.412825
891.880325,-1258.350101,1480.411884,-9116.536426
891.880645,370.102971,2072.576638,-10418.898773
891.880965,1184.329507,1184.329507,-10189.070123
891.881285,1332.370696,518.144159,-10112.460574
891.881605,-666.185348,962.267725,-10035.851024
891.881925,-814.226536,1628.453072,-9806.022374
891.882245,-740.205942,2146.597232,-9652.803275
891.882565,296.082377,3182.885551,-10955.165621
891.882885,592.164754,740.205942,-9729.412825
891.883206,0.000000,-2146.597232,-9576.193725
891.883526,370.102971,-2442.679609,-9959.241474
891.883846,-2368.659014,-1036.288319,-9806.022374
891.884166,-2516.700203,888.247130,-9806.022374
891.884486,-370.102971,3182.885551,-10418.898773
891.884806,296.082377,2516.700203,-10342.289223
891.885126,74.020594,518.144159,-10878.556072
891.885446,370.102971,-888.247130,-10112.460574
891.885766,222.061783,-518.144159,-9806.022374
891.886086,518.144159,1406.391290,-10495.508323
891.886406,2368.659014,2146.597232,-10189.070123
891.886726,2072.576638,592.164754,-10035.851024
891.887047,1184.329507,370.102971,-10495.508323
891.887367,740.205942,0.000000,-9882.631924
891.887687,-518.144159,1184.329507,-9806.022374
891.888007,74.020594,2442.679609,-10801.946522
891.888327,1628.453072,1924.535449,-9422.974625
891.888647,1628.453072,1258.350101,-10418.898773
891.888967,1036.288319,-444.123565,-10189.070123
891.889287,-296.082377,-1998.556043,-9576.193725
891.889607,74.020594,-1776.494261,-10189.070123
891.889927,2072.576638,0.000000,-9882.631924
891.890247,3775.050304,444.123565,-9882.631924
891.890567,222.061783,444.123565,-10265.679673
891.890888,-1776.494261,0.000000,-9193.145976
891.891208,-888.247130,74.020594,-9882.631924
891.891528,1184.329507,0.000000,-10418.898773
891.891848,2960.823768,-1110.308913,-9806.022374
891.892168,2590.720797,-2368.659014,-9959.241474
891.892488,444.123565,-3034.844362,-9806.022374
891.892808,-740.205942,-2294.638420,-9269.755526
891.893128,-296.082377,74.020594,-11414.822920
891.893448,1184.329507,222.061783,-10495.508323
891.893768,3108.864956,222.061783,-10572.117872
891.894088,2886.803174,-370.102971,-10725.336972
891.894408,814.226536,-1110.308913,-9882.631924
891.894728,-740.205942,-592.164754,-10801.946522
891.895049,74.020594,-370.102971,-10648.727422
891.895369,2516.700203,1110.308913,-10648.727422
891.895689,1628.453072,1554.432478,-10648.727422
891.896009,518.144159,1702.473667,-11031.775171
891.896329,-1110.308913,666.185348,-9806.022374
891.896649,-740.205942,0.000000,-10495.508323
891.896969,-370.102971,0.000000,-10035.851024
891.897289,1628.453072,0.000000,-9959.241474
891.897609,1406.391290,-222.061783,-10418.898773
891.897929,-518.144159,0.000000,-10112.460574
891.898249,-1480.411884,1110.308913,-10112.460574
891.898569,-1480.411884,1628.453072,-10572.117872
891.898890,-740.205942,666.185348,-8580.269578
891.899210,1480.411884,-666.185348,-10265.679673
891.899530,1554.432478,-666.185348,-10035.851024
891.899850,-1332.370696,-962.267725,-9729.412825
891.900170,-2220.617826,-1480.411884,-9959.241474
891.900490,-1554.432478,-666.185348,-9193.145976
891.900810,-148.041188,-518.144159,-9959.241474
891.901130,-1332.370696,-222.061783,-9652.803275
891.901450,-2220.617826,148.041188,-10418.898773
891.901770,-2072.576638,2516.700203,-9499.584175
891.902090,-666.185348,2664.741391,-10342.289223
891.902410,2146.597232,1406.391290,-10878.556072
891.902731,3923.091493,-296.082377,-10265.679673
891.903051,1480.411884,-1036.288319,-10495.508323
891.903371,-1258.350101,-592.164754,-10112.460574
891.903691,-814.226536,1702.473667,-9882.631924
891.904011,-1406.391290,3849.070898,-10878.556072
891.904331,740.205942,2146.597232,-10112.460574
891.904651,1628.453072,1036.288319,-10189.070123
891.904971,1406.391290,592.164754,-10648.727422
891.905291,74.020594,-518.144159,-9806.022374
891.905611,-148.041188,1110.308913,-10418.898773
891.905931,370.102971,1924.535449,-10495.508323
891.906251,814.226536,2368.659014,-8963.317327
891.906571,1406.391290,2664.741391,-10495.508323
891.906892,2738.761985,1924.535449,-9882.631924
891.907212,2146.597232,1628.453072,-9576.193725
891.907532,2812.782580,1110.308913,-10265.679673
891.907852,3182.885551,-370.102971,-9269.755526
891.908172,3701.029710,-148.041188,-9652.803275
891.908492,2960.823768,888.247130,-10189.070123
891.908812,1406.391290,1924.535449,-9499.584175
891.909132,740.205942,3849.070898,-10189.070123
891.909452,1110.308913,2368.659014,-10648.727422
891.909772,4219.173869,-518.144159,-9422.974625
891.910092,2738.761985,0.000000,-9959.241474
891.910412,-1628.453072,-666.185348,-10112.460574
891.910733,-814.226536,-148.041188,-9346.365076
891.911053,888.247130,888.247130,-10265.679673
891.911373,2590.720797,666.185348,-10418.898773
891.911693,3404.947333,518.144159,-9729.412825
891.912013,1110.308913,888.247130,-10112.460574
891.912333,-1332.370696,1184.329507,-10265.679673
891.912653,-1554.432478,2442.679609,-9806.022374
891.912973,518.144159,1998.556043,-11108.384721
891.913293,2442.679609,888.247130,-9806.022374
891.913613,1406.391290,1110.308913,-10495.508323
891.913933,-370.102971,0.000000,-10418.898773
891.914253,0.000000,-518.144159,-9806.022374
891.914573,-296.082377,518.144159,-11951.089769
891.914894,-222.061783,666.185348,-10189.070123
891.915214,-888.247130,0.000000,-9576.193725
891.915534,-2294.638420,74.020594,-10189.070123
891.915854,-1850.514855,148.041188,-10342.289223
891.916174,-1184.329507,592.164754,-10112.460574
891.916494,-518.144159,1036.288319,-11261.603821
891.916814,518.144159,-1110.308913,-9729.412825
891.917134,-518.144159,-3108.864956,-9729.412825
891.917454,-740.205942,-2738.761985,-9882.631924
891.917774,148.041188,-1924.535449,-9806.022374
891.918094,-814.226536,296.082377,-10189.070123
891.918414,148.041188,1998.556043,-11108.384721
891.918735,296.082377,2590.720797,-11261.603821
891.919055,-962.267725,1184.329507,-10725.336972
891.919375,-1480.411884,-1258.350101,-10648.727422
891.919695,-2072.576638,-2072.576638,-9499.584175
891.920015,-1258.350101,-1998.556043,-10035.851024
891.920335,888.247130,-1924.535449,-10495.508323
891.920655,2516.700203,-1776.494261,-9806.022374
891.920975,592.164754,-518.144159,-10495.508323
891.921295,0.000000,-148.041188,-10495.508323
891.921615,-888.247130,2368.659014,-10112.460574
891.921935,-1036.288319,2146.597232,-11184.994271
891.922255,1406.391290,1702.473667,-9959.241474
891.922576,1850.514855,0.000000,-10112.460574
891.922896,1110.308913,-1332.370696,-10572.117872
891.923216,1480.411884,-2516.700203,-9422.974625
891.923536,1332.370696,-1258.350101,-9882.631924
891.923856,3404.947333,740.205942,-10725.336972
891.924176,3849.070898,1998.556043,-9882.631924
891.924496,2738.761985,2812.782580,-9652.803275
891.924816,1406.391290,1850.514855,-10265.679673
891.925136,1036.288319,962.267725,-9806.022374
891.925456,666.185348,-148.041188,-10035.851024
891.925776,814.226536,-1184.329507,-9269.755526
891.926096,1628.453072,-1776.494261,-9193.145976
891.926416,518.144159,-1554.432478,-10035.851024
891.926737,222.061783,-1332.370696,-9806.022374
891.927057,-444.123565,296.082377,-9652.803275
891.927377,2072.576638,2072.576638,-9806.022374
891.927697,3108.864956,2516.700203,-9806.022374
891.928017,2072.576638,1554.432478,-10725.336972
891.928337,1480.411884,0.000000,-10189.070123
891.928657,888.247130,-444.123565,-9499.584175
891.928977,74.020594,-518.144159,-10648.727422
891.929297,1110.308913,-148.041188,-10189.070123
891.929617,1554.432478,666.185348,-10342.289223
891.929937,0.000000,2072.576638,-10342.289223
891.930257,-518.144159,1406.391290,-10418.898773
891.930578,-1628.453072,1036.288319,-9882.631924
891.930898,-444.123565,740.205942,-10648.727422
891.931218,888.247130,-592.164754,-9729.412825
891.931538,1628.453072,0.000000,-10572.117872
891.931858,1258.350101,518.144159,-10342.289223
891.932178,222.061783,1184.329507,-9959.241474
891.932498,0.000000,2368.659014,-10342.289223
891.932818,222.061783,3330.926739,-10572.117872
891.933138,1554.432478,2812.782580,-9576.193725
891.933458,0.000000,2072.576638,-10572.117872
891.933778,-2294.638420,888.247130,-9729.412825
891.934098,-2294.638420,-518.144159,-9269.755526
891.934419,-518.144159,-1554.432478,-8580.269578
891.934739,1406.391290,-2146.597232,-9269.755526
891.935059,1554.432478,-740.205942,-9346.365076
891.935379,148.041188,666.185348,-9806.022374
891.935699,-1036.288319,1406.391290,-9882.631924
891.936019,-888.247130,2368.659014,-10189.070123
891.936339,-370.102971,1628.453072,-10112.460574
891.936659,592.164754,-518.144159,-9652.803275
891.936979,518.144159,-1406.391290,-9806.022374
891.937299,-1480.411884,-740.205942,-11184.994271
891.937619,-1480.411884,296.082377,-9576.193725
891.937939,-888.247130,1628.453072,-10342.289223
891.938259,444.123565,370.102971,-10572.117872
891.938580,2072.576638,-1184.329507,-9959.241474
891.938900,814.226536,-1406.391290,-11338.213370
891.939220,888.247130,-888.247130,-10725.336972
891.939540,1036.288319,1184.329507,-10418.898773
891.939860,222.061783,4367.215058,-11108.384721
891.940180,1480.411884,2812.782580,-10725.336972
891.940500,1036.288319,1554.432478,-11261.603821
891.940820,-148.041188,0.000000,-10418.898773
891.941140,-1924.535449,-2220.617826,-9806.022374
891.941460,-222.061783,-148.041188,-9806.022374
891.941780,1924.535449,444.123565,-10342.289223
891.942100,3182.885551,-74.020594,-9882.631924
891.942421,1702.473667,-962.267725,-9729.412825
891.942741,-666.185348,-1258.350101,-9652.803275
891.943061,-444.123565,222.061783,-9652.803275
891.943381,1924.535449,1184.329507,-9729.412825
891.943701,3182.885551,1628.453072,-9806.022374
891.944021,2960.823768,666.185348,-9193.145976
891.944341,2368.659014,-222.061783,-10112.460574
891.944661,444.123565,-1332.370696,-9652.803275
891.944981,888.247130,-1480.411884,-9193.145976
891.945301,3108.864956,-592.164754,-10112.460574
891.945621,3997.112087,74.020594,-9576.193725
891.945941,592.164754,814.226536,-9806.022374
891.946262,-2146.597232,888.247130,-10648.727422
891.946582,-1998.556043,740.205942,-9959.241474
891.946902,-1480.411884,370.102971,-10572.117872
891.947222,222.061783,-1110.308913,-10495.508323
891.947542,2664.741391,-1258.350101,-10189.070123
891.947862,1480.411884,-1036.288319,-10495.508323
891.948182,1554.432478,-1036.288319,-10648.727422
891.948502,1332.370696,888.247130,-10418.898773
891.948822,-962.267725,2960.823768,-12487.356617
891.949142,962.267725,1628.453072,-10725.336972
891.949462,1332.370696,74.020594,-10189.070123
891.949782,-740.205942,0.000000,-11261.603821
891.950102,-1332.370696,-1406.391290,-9806.022374
891.950423,-2738.761985,-222.061783,-10342.289223
891.950743,-888.247130,74.020594,-10648.727422
891.951063,74.020594,-740.205942,-9576.193725
891.951383,-1850.514855,-518.144159,-10265.679673
891.951703,-1184.329507,-1332.370696,-9806.022374
891.952023,0.000000,-740.205942,-9116.536426
891.952343,888.247130,1480.411884,-10878.556072
891.952663,444.123565,1998.556043,-10189.070123
891.952983,592.164754,1036.288319,-9806.022374
891.953303,-370.102971,74.020594,-10112.460574
891.953623,-1036.288319,-1406.391290,-9729.412825
891.953943,-2146.597232,-3108.864956,-9116.536426
891.954264,-2072.576638,-1258.350101,-10495.508323
891.954584,-1332.370696,-888.247130,-9116.536426
891.954904,-296.082377,1184.329507,-10418.898773
891.955224,-740.205942,1998.556043,-10265.679673
891.955544,-1110.308913,1480.411884,-9576.193725
891.955864,-962.267725,1406.391290,-10572.117872
891.956184,1332.370696,222.061783,-10265.679673
891.956504,3997.112087,-666.185348,-10495.508323
891.956824,3701.029710,-222.061783,-11031.775171
891.957144,2442.679609,-1036.288319,-10418.898773
891.957464,296.082377,1480.411884,-10035.851024
891.957784,222.061783,2738.761985,-10878.556072
891.958104,1998.556043,3330.926739,-10572.117872
891.958424,1184.329507,2368.659014,-10572.117872
891.958744,888.247130,888.247130,-11338.213370
891.959064,0.000000,-962.267725,-9346.365076
891.959384,444.123565,-740.205942,-9882.631924
891.959704,1776.494261,0.000000,-10189.070123
891.960024,3034.844362,666.185348,-9882.631924
891.960344,2738.761985,2812.782580,-10035.851024
891.960664,3849.070898,2738.761985,-10572.117872
891.960984,2738.761985,3108.864956,-9346.365076
891.961304,1406.391290,3182.885551,-10265.679673
891.961624,1406.391290,2368.659014,-9652.803275
891.961944,2368.659014,-592.164754,-9116.536426
891.962264,1998.556043,-2738.761985,-9729.412825
891.962584,1332.370696,-2220.617826,-8503.660028
891.962904,-370.102971,-1332.370696,-9116.536426
891.963224,1332.370696,444.123565,-10572.117872
891.963544,1998.556043,3108.864956,-9882.631924
891.963864,444.123565,3775.050304,-10572.117872
891.964184,-592.164754,1406.391290,-10265.679673
891.964504,-370.102971,962.267725,-9039.926876
891.964824,148.041188,296.082377,-10342.289223
891.965144,2368.659014,-888.247130,-10035.851024
891.965464,1776.494261,-814.226536,-9576.193725
891.965784,666.185348,74.020594,-10342.289223
891.966104,1258.350101,592.164754,-10112.460574
891.966424,-592.164754,2368.659014,-10648.727422
891.966744,-1776.494261,2516.700203,-10955.165621
891.967064,-592.164754,2812.782580,-10495.508323
891.967384,296.082377,1998.556043,-10189.070123
891.967704,-370.102971,-666.185348,-10725.336972
891.968024,-1184.329507,-2516.700203,-9193.145976
891.968344,-1776.494261,-2590.720797,-10418.898773
891.968664,-592.164754,-1406.391290,-11261.603821
891.968984,814.226536,962.267725,-10035.851024
891.969304,592.164754,3478.967927,-11261.603821
891.969624,-222.061783,3701.029710,-10342.289223
891.969944,-1110.308913,1554.432478,-9346.365076
891.970264,0.000000,-296.082377,-10648.727422
891.970584,370.102971,-3478.967927,-8810.098227
891.970904,592.164754,-5255.462188,-9576.193725
891.971224,-1184.329507,-3182.885551,-9576.193725
891.971544,-1258.350101,-1554.432478,-8733.488677
891.971864,-370.102971,1184.329507,-9959.241474
891.972184,-444.123565,1480.411884,-10265.679673
891.972504,-518.144159,1258.350101,-9882.631924
891.972824,-962.267725,666.185348,-10648.727422
891.973144,-1406.391290,0.000000,-10035.851024
891.973464,-1036.288319,-1776.494261,-9576.193725
891.973784,222.061783,-1924.535449,-10189.070123
891.974104,1110.308913,-2146.597232,-10342.289223
891.974424,1702.473667,-1036.288319,-10189.070123
891.974744,740.205942,370.102971,-10955.165621
891.975064,666.185348,-1258.350101,-10265.679673
891.975384,-518.144159,-370.102971,-10189.070123
891.975704,-518.144159,222.061783,-11491.432470
891.976024,2368.659014,-148.041188,-10725.336972
891.976344,1480.411884,962.267725,-10418.898773
891.976664,148.041188,1184.329507,-11721.261119
891.976984,518.144159,1406.391290,-10035.851024
891.977304,1554.432478,1036.288319,-10342.289223
891.977624,2516.700203,0.000000,-10801.946522
891.977944,1998.556043,-2368.659014,-9269.755526
891.978264,1702.473667,-666.185348,-10418.898773
891.978584,740.205942,222.061783,-10035.851024
891.978904,814.226536,1924.535449,-10035.851024
891.979224,0.000000,1036.288319,-9882.631924
891.979544,2960.823768,-1036.288319,-8963.317327
891.979864,3627.009116,-1110.308913,-9269.755526
891.980184,1924.535449,-1258.350101,-10035.851024
891.980504,2146.597232,74.020594,-9193.145976
891.980824,1702.473667,2072.576638,-9269.755526
891.981144,2664.741391,1406.391290,-10035.851024
891.981464,4145.153275,888.247130,-8503.660028
891.981784,1924.535449,-222.061783,-9882.631924
891.982104,74.020594,-1184.329507,-9652.803275
891.982424,666.185348,-222.061783,-9346.365076
891.982744,444.123565,1406.391290,-10572.117872
891.983064,888.247130,1554.432478,-10112.460574
891.983385,0.000000,444.123565,-9729.412825
891.983705,-2812.782580,-740.205942,-10189.070123
891.984025,-370.102971,-148.041188,-9806.022374
891.984345,-962.267725,1480.411884,-10725.336972
891.984665,1554.432478,3256.906145,-11261.603821
891.984985,2294.638420,1998.556043,-10189.070123
891.985305,2220.617826,148.041188,-11108.384721
891.985625,2220.617826,1628.453072,-10572.117872
891.985945,-592.164754,1924.535449,-10648.727422
891.986265,-3108.864956,1850.514855,-10878.556072
891.986585,-1184.329507,1628.453072,-10418.898773
891.986905,-148.041188,740.205942,-10035.851024
891.987225,-1850.514855,1110.308913,-10265.679673
891.987545,-2368.659014,296.082377,-10035.851024
891.987865,-1850.514855,370.102971,-9806.022374
891.988185,148.041188,1406.391290,-10035.851024
891.988505,2220.617826,814.226536,-9499.584175
891.988825,1998.556043,962.267725,-9806.022374
891.989145,0.000000,370.102971,-10112.460574
891.989465,-1110.308913,0.000000,-9576.193725
891.989785,-666.185348,0.000000,-9193.145976
891.990105,-740.205942,-222.061783,-9959.241474
891.990425,-518.144159,1480.411884,-9193.145976
891.990745,-296.082377,1036.288319,-9806.022374
891.991065,148.041188,0.000000,-10265.679673
891.991385,-666.185348,-666.185348,-9116.536426
891.991705,-888.247130,-962.267725,-10342.289223
891.992025,444.123565,-1036.288319,-9499.584175
891.992345,1776.494261,-1184.329507,-9576.193725
891.992665,1184.329507,-148.041188,-10418.898773
891.992985,2516.700203,-444.123565,-9652.803275
891.993305,2072.576638,962.267725,-10265.679673
891.993625,2072.576638,2146.597232,-10955.165621
891.993945,3182.885551,666.185348,-10342.289223
891.994265,1702.473667,518.144159,-9729.412825
891.994585,-888.247130,-444.123565,-10648.727422
891.994905,-1702.473667,-1406.391290,-9269.755526
891.995225,-1702.473667,0.000000,-10648.727422
891.995545,-740.205942,-1110.308913,-10342.289223
891.995865,1554.432478,-1406.391290,-9959.241474
891.996185,1258.350101,1184.329507,-11108.384721
891.996505,518.144159,74.020594,-9959.241474
891.996825,1554.432478,0.000000,-9576.193725
891.997145,3182.885551,148.041188,-10878.556072
891.997465,4145.153275,444.123565,-10189.070123
891.997785,4663.297435,1406.391290,-10189.070123
891.998105,3849.070898,2368.659014,-11414.822920
891.998425,3034.844362,1850.514855,-9729.412825
891.998745,2220.617826,222.061783,-10878.556072
891.999065,444.123565,-1406.391290,-9882.631924
891.999385,-370.102971,-2812.782580,-9193.145976
891.999705,-1998.556043,-1258.350101,-10418.898773
892.000025,-1924.535449,-1480.411884,-8810.098227
892.000345,-2294.638420,-518.144159,-9422.974625
892.000665,-1776.494261,1258.350101,-10725.336972
892.000985,666.185348,518.144159,-9882.631924
892.001305,2220.617826,-1332.370696,-9882.631924
892.001625,2368.659014,-2072.576638,-10495.508323
892.001945,1776.494261,-1332.370696,-10112.460574
892.002265,444.123565,0.000000,-9729.412825
892.002585,592.164754,1332.370696,-10189.070123
892.002905,1406.391290,1702.473667,-10342.289223
892.003225,148.041188,962.267725,-10112.460574
892.003545,148.041188,-1554.432478,-10418.898773
892.003865,0.000000,-1702.473667,-9422.974625
892.004185,-814.226536,-222.061783,-10418.898773
892.004505,0.000000,0.000000,-10418.898773
892.004825,740.205942,-296.082377,-9806.022374
892.005145,-888.247130,0.000000,-10112.460574
892.005465,0.000000,1258.350101,-9959.241474
892.005785,-666.185348,2886.803174,-9806.022374
892.006105,-222.061783,3182.885551,-11261.603821
892.006425,962.267725,1554.432478,-10265.679673
892.006745,740.205942,-296.082377,-9959.241474
892.007065,0.000000,-592.164754,-8963.317327
892.007385,-888.247130,-2072.576638,-9193.145976
892.007705,0.000000,-1998.556043,-9806.022374
892.008025,1628.453072,296.082377,-10342.289223
892.008345,1184.329507,666.185348,-9422.974625
892.008665,0.000000,1776.494261,-9729.412825
892.008985,-2516.700203,1184.329507,-9806.022374
892.009305,-592.164754,1628.453072,-10418.898773
892.009625,370.102971,1628.453072,-10648.727422
892.009945,1628.453072,-74.020594,-10035.851024
892.010265,518.144159,-1924.535449,-9576.193725
892.010585,-1258.350101,222.061783,-10725.336972
892.010905,-2368.659014,1776.494261,-9806.022374
892.011225,-1036.288319,2886.803174,-10495.508323
892.011545,-814.226536,2146.597232,-10265.679673
892.011865,888.247130,1924.535449,-10112.460574
892.012185,740.205942,296.082377,-10495.508323
892.012505,814.226536,-1628.453072,-10112.460574
892.012825,1332.370696,-962.267725,-9806.022374
892.013145,2516.700203,1332.370696,-10265.679673
892.013465,2442.679609,2442.679609,-10342.289223
892.013785,2516.700203,2368.659014,-9806.022374
892.014105,1998.556043,3552.988522,-10495.508323
892.014425,1036.288319,2664.741391,-10265.679673
892.014745,666.185348,148.041188,-9806.022374
892.015065,2146.597232,-1332.370696,-9882.631924
892.015385,3701.029710,-2516.700203,-9499.584175
892.015705,3404.947333,0.000000,-10878.556072
892.016025,74.020594,888.247130,-10572.117872
892.016345,-148.041188,1702.473667,-9422.974625
892.016665,-1332.370696,4219.173869,-10112.460574
892.016985,1110.308913,1110.308913,-10035.851024
892.017305,3775.050304,1924.535449,-9806.022374
892.017625,1998.556043,444.123565,-9576.193725
892.017945,1998.556043,-740.205942,-10648.727422
892.018265,1850.514855,666.185348,-9039.926876
892.018585,3256.906145,-444.123565,-10801.946522
892.018905,1776.494261,666.185348,-9806.022374
892.019225,370.102971,1924.535449,-9882.631924
892.019545,-1406.391290,0.000000,-10725.336972
892.019865,-740.205942,-370.102971,-9576.193725
892.020185,0.000000,-74.020594,-9959.241474
892.020505,1332.370696,814.226536,-11184.994271
892.020825,1406.391290,74.020594,-9499.584175
892.021145,740.205942,148.041188,-10648.727422
892.021465,-1480.411884,0.000000,-10725.336972
892.021785,-2072.576638,592.164754,-10112.460574
892.022105,-1480.411884,1110.308913,-10955.165621
892.022425,1110.308913,666.185348,-10418.898773
892.022745,592.164754,0.000000,-10342.289223
892.023065,-518.144159,-888.247130,-10878.556072
892.023385,-1924.535449,0.000000,-9959.241474
892.023705,-1924.535449,-2146.597232,-9652.803275
892.024025,1036.288319,-962.267725,-10495.508323
892.024345,-296.082377,-1850.514855,-10189.070123
892.024665,-1628.453072,-814.226536,-9729.412825
892.024985,-2220.617826,888.247130,-10189.070123
892.025305,-888.247130,148.041188,-9806.022374
892.025625,148.041188,-1110.308913,-9576.193725
892.025945,-1406.391290,-296.082377,-10035.851024
892.026265,-518.144159,-1776.494261,-9576.193725
892.026585,1480.411884,-370.102971,-10342.289223
892.026905,-1554.432478,-1628.453072,-9499.584175
892.027225,-1184.329507,-370.102971,-9806.022374
892.027545,-3701.029710,-888.247130,-9729.412825
892.027865,-1036.288319,-1110.308913,-10342.289223
892.028185,1036.288319,0.000000,-9346.365076
892.028505,1406.391290,1258.350101,-10648.727422
892.028825,666.185348,0.000000,-9729.412825
892.029145,1998.556043,-592.164754,-10572.117872
892.029465,814.226536,0.000000,-10495.508323
892.029785,1258.350101,-370.102971,-10112.460574
892.030105,1554.432478,222.061783,-9806.022374
892.030425,2146.597232,0.000000,-11031.775171
892.030745,2072.576638,1776.494261,-10495.508323
892.031065,1184.329507,2368.659014,-10495.508323
892.031385,2960.823768,1924.535449,-10112.460574
892.031705,3478.967927,-666.185348,-9499.584175
892.032025,2886.803174,-962.267725,-11108.384721
892.032345,1702.473667,-888.247130,-9806.022374
892.032665,222.061783,1110.308913,-9806.022374
892.032985,0.000000,1850.514855,-10648.727422
892.033305,1406.391290,592.164754,-9652.803275
892.033625,1332.370696,814.226536,-9499.584175
892.033945,2590.720797,1036.288319,-10725.336972
892.034265,2146.597232,0.000000,-8886.707777
892.034585,2072.576638,888.247130,-10648.727422
892.034905,2146.597232,0.000000,-9652.803275
892.035225,2590.720797,888.247130,-9499.584175
892.035545,1480.411884,1184.329507,-9806.022374
892.035865,518.144159,1406.391290,-9576.193725
892.036185,-740.205942,740.205942,-9499.584175
892.036505,-518.144159,1850.514855,-10189.070123
892.036825,1184.329507,0.000000,-9806.022374
892.037145,2220.617826,1258.350101,-10265.679673
892.037465,-814.226536,296.082377,-10112.460574
892.037785,0.000000,222.061783,-9499.584175
892.038105,518.144159,0.000000,-9806.022374
892.038425,1776.494261,-148.041188,-10342.289223
892.038745,1776.494261,-518.144159,-9039.926876
892.039065,-740.205942,1258.350101,-10418.898773
892.039385,-814.226536,3034.844362,-10112.460574
892.039705,-296.082377,4737.318029,-10418.898773
892.040025,444.123565,4145.153275,-10572.117872
892.040345,-222.061783,1332.370696,-10572.117872
892.040665,-1628.453072,-1850.514855,-9499.584175
892.040985,-1184.329507,-3256.906145,-10035.851024
892.041305,-1628.453072,-3034.844362,-9116.536426
892.041625,-1406.391290,-1036.288319,-9882.631924
892.041945,-1332.370696,2220.617826,-11261.603821
892.042265,-666.185348,3478.967927,-10035.851024
892.042585,0.000000,3701.029710,-10725.336972
892.042905,518.144159,1036.288319,-10495.508323
892.043225,-592.164754,0.000000,-10035.851024
892.043545,-740.205942,-1554.432478,-9652.803275
892.043865,74.020594,222.061783,-10495.508323
892.044185,-222.061783,-222.061783,-9499.584175
892.044505,-2294.638420,518.144159,-10648.727422
892.044825,-3478.967927,-296.082377,-9882.631924
892.045145,-1554.432478,148.041188,-9959.241474
892.045465,1036.288319,1332.370696,-10035.851024
892.045785,2442.679609,1036.288319,-10801.946522
892.046105,518.144159,0.000000,-9959.241474
892.046425,1406.391290,222.061783,-10725.336972
892.046745,1850.514855,-1332.370696,-9576.193725
892.047065,2294.638420,-962.267725,-9116.536426
892.047385,1036.288319,-444.123565,-10112.460574
892.047705,1184.329507,0.000000,-9882.631924
892.048025,2886.803174,1332.370696,-10265.679673
892.048345,2812.782580,1924.535449,-10801.946522
892.048665,1480.411884,1110.308913,-9346.365076
892.048985,1480.411884,0.000000,-10189.070123
892.049305,3701.029710,-1332.370696,-10265.679673
892.049625,4663.297435,-666.185348,-9806.022374
892.049945,2442.679609,296.082377,-11338.213370
892.050265,-444.123565,0.000000,-9806.022374
892.050585,-814.226536,0.000000,-9576.193725
892.050905,296.082377,1110.308913,-11184.994271
892.051225,1776.494261,740.205942,-10418.898773
892.051545,2368.659014,1554.432478,-10725.336972
892.051865,2368.659014,666.185348,-10725.336972
892.052185,2886.803174,296.082377,-9729.412825
892.052505,1776.494261,666.185348,-10955.165621
892.052825,1406.391290,-2368.659014,-9806.022374
892.053145,-592.164754,-1628.453072,-9193.145976
892.053465,-1850.514855,-592.164754,-10495.508323
892.053785,444.123565,0.000000,-9499.584175
892.054105,1776.494261,-518.144159,-9729.412825
892.054425,148.041188,444.123565,-10648.727422
892.054745,0.000000,-814.226536,-9576.193725
892.055065,0.000000,-592.164754,-9806.022374
892.055385,-962.267725,-370.102971,-10342.289223
892.055705,-1480.411884,-370.102971,-9882.631924
892.056025,-2294.638420,222.061783,-9806.022374
892.056345,-592.164754,-296.082377,-10035.851024
892.056665,1184.329507,-962.267725,-9806.022374
892.056985,592.164754,148.041188,-10342.289223
892.057305,0.000000,370.102971,-10572.117872
892.057625,-222.061783,1110.308913,-9882.631924
892.057945,-962.267725,1998.556043,-10648.727422
892.058265,-296.082377,518.144159,-10648.727422
892.058585,740.205942,-518.144159,-9193.145976
892.058905,-444.123565,-888.247130,-11184.994271
892.059225,-962.267725,444.123565,-10189.070123
892.059545,-1332.370696,1924.535449,-10112.460574
892.059865,148.041188,2368.659014,-10801.946522
892.060185,1702.473667,1702.473667,-10265.679673
892.060505,0.000000,296.082377,-10955.165621
892.060825,-1110.308913,-1110.308913,-10342.289223
892.061145,-444.123565,-1998.556043,-9346.365076
892.061465,74.020594,-222.061783,-10572.117872
892.061785,-444.123565,296.082377,-10878.556072
892.062105,-1628.453072,666.185348,-9729.412825
892.062425,-1184.329507,1258.350101,-10035.851024
892.062745,1184.329507,1406.391290,-9652.803275
892.063065,2146.597232,1480.411884,-10189.070123
892.063385,2368.659014,1554.432478,-10878.556072
892.063705,2146.597232,-592.164754,-9652.803275
892.064025,148.041188,-666.185348,-9576.193725
892.064345,74.020594,-444.123565,-9806.022374
892.064665,444.123565,222.061783,-9576.193725
892.064985,518.144159,1480.411884,-10112.460574
892.065305,2590.720797,814.226536,-10495.508323
892.065625,3552.988522,888.247130,-8963.317327
892.065945,1850.514855,1332.370696,-10112.460574
892.066265,740.205942,1702.473667,-9652.803275
892.066585,370.102971,1184.329507,-9806.022374
892.066904,1184.329507,888.247130,-11031.775171
892.067224,2590.720797,-666.185348,-10035.851024
892.067544,2664.741391,-2442.679609,-9116.536426
892.067864,1554.432478,-3478.967927,-10035.851024
892.068184,2368.659014,-740.205942,-9652.803275
892.068504,1554.432478,2960.823768,-9729.412825
892.068824,2368.659014,4885.359217,-10572.117872
892.069144,2072.576638,3627.009116,-10265.679673
892.069464,0.000000,1184.329507,-10112.460574
892.069784,-1036.288319,-1406.391290,-10112.460574
892.070104,-1110.308913,-1702.473667,-9422.974625
892.070424,518.144159,-1332.370696,-9882.631924
892.070744,2442.679609,-1998.556043,-9959.241474
892.071064,2738.761985,518.144159,-10112.460574
892.071384,814.226536,2516.700203,-10878.556072
892.071704,0.000000,2368.659014,-10878.556072
892.072024,-888.247130,370.102971,-10035.851024
892.072344,814.226536,740.205942,-10572.117872
892.072664,1110.308913,0.000000,-9882.631924
892.072984,370.102971,666.185348,-10112.460574
892.073304,0.000000,-444.123565,-10648.727422
892.073624,740.205942,0.000000,-9882.631924
892.073944,74.020594,444.123565,-10418.898773
892.074264,0.000000,370.102971,-10648.727422
892.074584,814.226536,370.102971,-9806.022374
892.074904,-740.205942,666.185348,-10725.336972
892.075224,-2220.617826,518.144159,-10035.851024
892.075544,-2442.679609,-814.226536,-9422.974625
892.075864,-1554.432478,-444.123565,-10189.070123
892.076184,-666.185348,-1554.432478,-9882.631924
892.076504,0.000000,-444.123565,-10112.460574
892.076824,-1036.288319,444.123565,-10418.898773
892.077143,-2146.597232,0.000000,-9959.241474
892.077463,-740.205942,-296.082377,-9652.803275
892.077783,888.247130,666.185348,-10189.070123
892.078103,2960.823768,-518.144159,-9652.803275
892.078423,2146.597232,-1258.350101,-10572.117872
892.078743,296.082377,-2664.741391,-9806.022374
892.079063,-814.226536,-2738.761985,-9499.584175
892.079383,-1184.329507,-1258.350101,-9729.412825
892.079703,-1036.288319,666.185348,-8580.269578
892.080023,-592.164754,2590.720797,-9576.193725
892.080343,-518.144159,3404.947333,-10418.898773
892.080663,-962.267725,1406.391290,-10572.117872
892.080983,-814.226536,-1480.411884,-9729.412825
892.081303,444.123565,-4515.256246,-10648.727422
892.081623,1184.329507,-4145.153275,-9806.022374
892.081943,1110.308913,-2146.597232,-9882.631924
892.082263,0.000000,1110.308913,-11261.603821
892.082583,-2146.597232,3552.988522,-9959.241474
892.082903,-1998.556043,3330.926739,-11184.994271
892.083223,222.061783,2368.659014,-11108.384721
892.083543,3404.947333,1184.329507,-10572.117872
892.083863,3701.029710,-370.102971,-10648.727422
892.084183,4885.359217,-962.267725,-11414.822920
892.084503,2220.617826,-444.123565,-9959.241474
892.084823,148.041188,74.020594,-10801.946522
892.085143,296.082377,370.102971,-10265.679673
892.085463,1924.535449,814.226536,-9806.022374
892.085783,1258.350101,1998.556043,-10572.117872
892.086103,1480.411884,2812.782580,-9959.241474
892.086423,1332.370696,2146.597232,-10112.460574
892.086743,2664.741391,222.061783,-10189.070123
892.087063,4145.153275,-1110.308913,-9346.365076
892.087382,2442.679609,-1554.432478,-9729.412825
892.087702,370.102971,-1554.432478,-9269.755526
892.088022,962.267725,74.020594,-8963.317327
892.088342,2220.617826,2368.659014,-9882.631924
892.088662,2886.803174,1924.535449,-9499.584175
892.088982,888.247130,1702.473667,-9039.926876
892.089302,1554.432478,148.041188,-10572.117872
892.089622,888.247130,-888.247130,-9499.584175
892.089942,888.247130,-1258.350101,-9346.365076
892.090262,-1110.308913,-74.020594,-9959.241474
892.090582,222.061783,-666.185348,-9652.803275
892.090902,-370.102971,222.061783,-10035.851024
892.091222,-962.267725,592.164754,-9806.022374
892.091542,-444.123565,1924.535449,-9806.022374
892.091862,1776.494261,2368.659014,-9806.022374
892.092182,3256.906145,518.144159,-10801.946522
892.092502,2072.576638,148.041188,-9576.193725
892.092822,-888.247130,-1480.411884,-10572.117872
892.093142,-740.205942,-1258.350101,-10572.117872
892.093462,-1406.391290,222.061783,-9652.803275
892.093782,-2368.659014,2664.741391,-11108.384721
892.094102,-888.247130,2368.659014,-10495.508323
892.094422,888.247130,1998.556043,-10648.727422
892.094742,74.020594,1480.411884,-11491.432470
892.095062,-518.144159,370.102971,-9959.241474
892.095382,-740.205942,740.205942,-10572.117872
892.095702,370.102971,370.102971,-10801.946522
892.096022,2516.700203,74.020594,-9729.412825
892.096342,-296.082377,666.185348,-10035.851024
892.096662,-1554.432478,222.061783,-10342.289223
892.096982,-1702.473667,1406.391290,-9652.803275
892.097302,-1332.370696,1776.494261,-10801.946522
892.097621,-592.164754,1628.453072,-9959.241474
892.097941,814.226536,1406.391290,-10035.851024
892.098261,-518.144159,0.000000,-10572.117872
892.098581,-148.041188,-2146.597232,-9499.584175
892.098901,-1776.494261,-1628.453072,-9039.926876
892.099221,-2590.720797,-444.123565,-10035.851024
892.099541,1184.329507,148.041188,-9576.193725
892.099861,1850.514855,666.185348,-9806.022374
892.100181,1332.370696,888.247130,-10189.070123
892.100501,370.102971,444.123565,-9116.536426
892.100821,1036.288319,370.102971,-10725.336972
892.101141,1332.370696,518.144159,-10035.851024
892.101461,1332.370696,814.226536,-9882.631924
892.101781,-814.226536,74.020594,-10572.117872
892.102101,-370.102971,-1258.350101,-9959.241474
892.102421,1998.556043,-814.226536,-9116.536426
892.102741,2220.617826,740.205942,-10878.556072
892.103061,3034.844362,1036.288319,-9806.022374
892.103381,1998.556043,-148.041188,-10265.679673
892.103701,518.144159,-370.102971,-10572.117872
892.104021,666.185348,-296.082377,-9729.412825
892.104341,1258.350101,814.226536,-10189.070123
892.104661,1702.473667,1850.514855,-11031.775171
892.104981,2886.803174,518.144159,-10112.460574
892.105301,2220.617826,-296.082377,-10572.117872
892.105621,444.123565,-1924.535449,-10189.070123
892.105941,1702.473667,-1480.411884,-9499.584175
892.106261,1184.329507,370.102971,-10112.460574
892.106581,518.144159,1184.329507,-10342.289223
892.106901,222.061783,1480.411884,-9806.022374
892.107221,-296.082377,518.144159,-10342.289223
892.107541,1258.350101,-592.164754,-9499.584175
892.107860,1480.411884,-1332.370696,-9959.241474
892.108180,1036.288319,296.082377,-10955.165621
892.108500,74.020594,1110.308913,-9959.241474
892.108820,-1406.391290,666.185348,-10112.460574
892.109140,-1850.514855,74.020594,-10495.508323
892.109460,-740.205942,-1036.288319,-9652.803275
892.109780,666.185348,-1406.391290,-9729.412825
892.110100,1998.556043,0.000000,-9882.631924
892.110420,814.226536,148.041188,-10265.679673
892.110740,296.082377,1554.432478,-10801.946522
892.111060,222.061783,666.185348,-9806.022374
892.111380,-148.041188,296.082377,-9959.241474
892.111700,148.041188,0.000000,-10572.117872
892.112020,-370.102971,74.020594,-10265.679673
892.112340,-592.164754,740.205942,-9959.241474
892.112660,296.082377,814.226536,-11108.384721
892.112980,1776.494261,666.185348,-10112.460574
892.113300,1184.329507,-518.144159,-10265.679673
892.113620,-518.144159,-666.185348,-10342.289223
892.113940,-814.226536,0.000000,-10495.508323
892.114260,148.041188,1258.350101,-10572.117872
892.114580,-518.144159,592.164754,-10572.117872
892.114900,-2146.597232,0.000000,-9269.755526
892.115220,-3701.029710,0.000000,-8963.317327
892.115540,-1110.308913,-888.247130,-9039.926876
892.115860,740.205942,-962.267725,-9729.412825
892.116180,1110.308913,0.000000,-10189.070123
892.116500,1554.432478,148.041188,-9576.193725
892.116820,1406.391290,74.020594,-9193.145976
892.117140,148.041188,962.267725,-9806.022374
892.117460,-1554.432478,-222.061783,-9652.803275
892.117779,-1850.514855,-518.144159,-9652.803275
892.118099,-2294.638420,-888.247130,-9806.022374
892.118419,-148.041188,-666.185348,-9652.803275
892.118739,962.267725,1258.350101,-10189.070123
892.119059,2738.761985,1406.391290,-10725.336972
892.119379,2738.761985,1036.288319,-10801.946522
892.119699,2812.782580,1332.370696,-9806.022374
892.120019,1776.494261,1036.288319,-10189.070123
892.120339,666.185348,1258.350101,-10035.851024
892.120659,0.000000,1924.535449,-11031.775171
892.120979,1036.288319,2738.761985,-10955.165621
892.121299,2664.741391,2738.761985,-10572.117872
892.121619,2516.700203,1924.535449,-11721.261119
892.121939,1776.494261,518.144159,-10495.508323
892.122259,296.082377,740.205942,-10495.508323
892.122579,444.123565,2368.659014,-10801.946522
892.122899,1998.556043,2442.679609,-10112.460574
892.123219,814.226536,1554.432478,-10495.508323
892.123539,1702.473667,370.102971,-10495.508323
892.123859,2960.823768,-370.102971,-10265.679673
892.124179,3478.967927,0.000000,-10265.679673
892.124499,2886.803174,-444.123565,-9729.412825
892.124819,1554.432478,518.144159,-9422.974625
892.125139,0.000000,1406.391290,-10112.460574
892.125459,1332.370696,1258.350101,-9576.193725
892.125779,666.185348,1036.288319,-9652.803275
892.126099,592.164754,222.061783,-9806.022374
892.126419,518.144159,74.020594,-9269.755526
892.126739,888.247130,666.185348,-9729.412825
892.127059,888.247130,-888.247130,-9652.803275
892.127379,0.000000,-1406.391290,-8963.317327
892.127699,-1554.432478,-888.247130,-9499.584175
892.128018,-1702.473667,-222.061783,-10342.289223
892.128338,0.000000,370.102971,-9499.584175
892.128658,666.185348,1702.473667,-10112.460574
892.128978,666.185348,740.205942,-10189.070123
892.129298,0.000000,0.000000,-10112.460574
892.129618,518.144159,0.000000,-10342.289223
892.129938,1628.453072,-888.247130,-9806.022374
892.130258,740.205942,-592.164754,-9959.241474
892.130578,-592.164754,-592.164754,-10648.727422
892.130898,-1036.288319,-962.267725,-10342.289223
892.131218,-1554.432478,-592.164754,-10495.508323
892.131538,-2368.659014,0.000000,-10878.556072
892.131858,-1480.411884,222.061783,-10189.070123
892.132178,-888.247130,888.247130,-10955.165621
892.132498,-444.123565,1184.329507,-12257.527968
892.132818,1258.350101,666.185348,-10648.727422
892.133138,1480.411884,0.000000,-10878.556072
892.133458,-740.205942,-666.185348,-10725.336972
892.133778,-2960.823768,-222.061783,-9422.974625
892.134098,-2738.761985,222.061783,-11414.822920
892.134418,-370.102971,1998.556043,-9959.241474
892.134738,444.123565,1776.494261,-10648.727422
892.135058,-1332.370696,-148.041188,-10725.336972
892.135378,1110.308913,-3034.844362,-9346.365076
892.135698,1258.350101,-1702.473667,-9806.022374
892.136018,888.247130,-888.247130,-9806.022374
892.136338,-888.247130,888.247130,-8886.707777
892.136658,-1554.432478,1332.370696,-9729.412825
892.136978,2220.617826,1036.288319,-9806.022374
892.137298,4145.153275,1628.453072,-9193.145976
892.137618,4293.194464,1924.535449,-10189.070123
892.137938,2516.700203,1628.453072,-9806.022374
892.138257,296.082377,1480.411884,-9576.193725
892.138577,740.205942,444.123565,-10035.851024
892.138897,444.123565,-814.226536,-9346.365076
892.139217,518.144159,-1406.391290,-9193.145976
892.139537,1184.329507,-296.082377,-10189.070123
892.139857,4071.132681,2664.741391,-10112.460574
892.140177,3775.050304,4959.379811,-10572.117872
892.140497,4589.276840,4515.256246,-11108.384721
892.140817,4589.276840,2146.597232,-9806.022374
892.141137,3108.864956,592.164754,-10955.165621
892.141457,2368.659014,740.205942,-10572.117872
892.141777,3034.844362,1332.370696,-10265.679673
892.142097,3627.009116,3108.864956,-10725.336972
892.142417,3849.070898,3108.864956,-12027.699319
892.142737,2664.741391,2812.782580,-10342.289223
892.143057,1776.494261,3034.844362,-10495.508323
892.143377,1924.535449,4219.173869,-10878.556072
892.143697,3182.885551,2886.803174,-10725.336972
892.144017,4441.235652,2072.576638,-10189.070123
892.144337,3627.009116,1036.288319,-10725.336972
892.144657,1480.411884,1850.514855,-9729.412825
892.144977,0.000000,3478.967927,-9806.022374
892.145297,1924.535449,5107.421000,-10801.946522
892.145617,3034.844362,4367.215058,-9729.412825
892.145937,1332.370696,3034.844362,-10112.460574
892.146257,1258.350101,1480.411884,-9729.412825
892.146577,1702.473667,-148.041188,-9269.755526
892.146897,3256.906145,0.000000,-9499.584175
892.147217,3034.844362,2294.638420,-10112.460574
892.147537,2220.617826,2590.720797,-9729.412825
892.147857,888.247130,2590.720797,-9193.145976
892.148177,1480.411884,3256.906145,-9806.022374
892.148496,3627.009116,4367.215058,-9422.974625
892.148816,3627.009116,4441.235652,-10265.679673
892.149136,4589.276840,3404.947333,-9959.241474
892.149456,4515.256246,2294.638420,-9806.022374
892.149776,2738.761985,1036.288319,-10035.851024
892.150096,0.000000,1554.432478,-9576.193725
892.150416,-888.247130,1036.288319,-9499.584175
892.150736,592.164754,2294.638420,-10189.070123
892.151056,1924.535449,2738.761985,-10112.460574
892.151376,1702.473667,3627.009116,-10265.679673
892.151696,1850.514855,4071.132681,-10878.556072
892.152016,1628.453072,4293.194464,-10495.508323
892.152336,2072.576638,3775.050304,-10495.508323
892.152656,3478.967927,2368.659014,-10189.070123
892.152976,4367.215058,1850.514855,-10418.898773
892.153296,3923.091493,2368.659014,-10495.508323
892.153616,2294.638420,3034.844362,-10495.508323
892.153936,2368.659014,3775.050304,-10342.289223
892.154256,1110.308913,3182.885551,-10112.460574
892.154576,-296.082377,2220.617826,-10189.070123
892.154896,-1702.473667,666.185348,-9499.584175
892.155216,148.041188,74.020594,-9116.536426
892.155536,2738.761985,-148.041188,-9422.974625
892.155856,2960.823768,1110.308913,-10189.070123
892.156176,3182.885551,2960.823768,-10112.460574
892.156496,4293.194464,3701.029710,-10418.898773
892.156816,4219.173869,4589.276840,-10189.070123
892.157136,1850.514855,3849.070898,-10572.117872
892.157456,444.123565,2442.679609,-9499.584175
892.157776,1998.556043,592.164754,-10112.460574
892.158096,4071.132681,1184.329507,-10112.460574
892.158416,2442.679609,740.205942,-10035.851024
892.158735,1110.308913,1776.494261,-9729.412825
892.159055,1480.411884,3034.844362,-10189.070123
892.159375,3627.009116,3923.091493,-10418.898773
892.159695,2368.659014,4589.276840,-10725.336972
892.160015,962.267725,2664.741391,-10112.460574
892.160335,2294.638420,1406.391290,-10342.289223
892.160655,5403.503377,148.041188,-10495.508323
892.160975,5921.647536,1850.514855,-10725.336972
892.161295,4219.173869,3775.050304,-10572.117872
892.161615,2368.659014,5995.668130,-10495.508323
892.161935,2590.720797,6513.812290,-10648.727422
892.162255,3923.091493,5477.523971,-10572.117872
892.162575,1998.556043,3256.906145,-10648.727422
892.162895,-518.144159,666.185348,-9959.241474
892.163215,-222.061783,-1036.288319,-9499.584175
892.163535,962.267725,-1184.329507,-9499.584175
892.163855,2220.617826,740.205942,-10035.851024
892.164175,2072.576638,1628.453072,-9499.584175
892.164495,1702.473667,3256.906145,-9959.241474
892.164815,3034.844362,4071.132681,-9882.631924
892.165135,4737.318029,4663.297435,-10189.070123
892.165455,4959.379811,4145.153275,-10648.727422
892.165776,4663.297435,3182.885551,-10035.851024
892.166096,2368.659014,2220.617826,-10035.851024
892.166416,1036.288319,740.205942,-9652.803275
892.166736,222.061783,148.041188,-9576.193725
892.167056,962.267725,222.061783,-10112.460574
892.167376,1998.556043,518.144159,-9652.803275
892.167696,1776.494261,2368.659014,-10035.851024
892.168016,74.020594,2442.679609,-10572.117872
892.168336,814.226536,2590.720797,-9806.022374
892.168656,2886.803174,3256.906145,-10572.117872
892.168976,4663.297435,2516.700203,-10342.289223
892.169296,4737.318029,2220.617826,-9882.631924
892.169616,3256.906145,2220.617826,-10725.336972
892.169936,370.102971,2368.659014,-10725.336972
892.170256,-444.123565,2886.803174,-10035.851024
892.170576,0.000000,2368.659014,-10648.727422
892.170896,1480.411884,1184.329507,-10189.070123
892.171216,1850.514855,592.164754,-9882.631924
892.171536,2294.638420,1628.453072,-10572.117872
892.171856,2664.741391,3775.050304,-10418.898773
892.172176,2442.679609,5181.441594,-10572.117872
892.172496,2442.679609,5181.441594,-9806.022374
892.172816,4145.153275,3701.029710,-9959.241474
892.173136,4811.338623,2072.576638,-10418.898773
892.173456,3478.967927,1480.411884,-10112.460574
892.173776,1850.514855,2220.617826,-10189.070123
892.174096,1554.432478,3330.926739,-10035.851024
892.174416,1554.432478,3182.885551,-9882.631924
892.174736,592.164754,2294.638420,-9806.022374
892.175056,296.082377,592.164754,-9422.974625
892.175376,1258.350101,888.247130,-9346.365076
892.175696,2886.803174,370.102971,-9652.803275
892.176016,4441.235652,2146.597232,-9499.584175
892.176336,5181.441594,4145.153275,-10265.679673
892.176656,5699.585753,5551.544565,-9806.022374
892.176976,5551.544565,5033.400406,-9959.241474
892.177296,3182.885551,4663.297435,-10189.070123
892.177617,962.267725,3256.906145,-10189.070123
892.177937,222.061783,1110.308913,-9806.022374
892.178257,1776.494261,-1110.308913,-9882.631924
892.178577,2072.576638,-1480.411884,-9652.803275
892.178897,1480.411884,0.000000,-9576.193725
892.179217,1480.411884,2516.700203,-9959.241474
892.179537,3034.844362,5033.400406,-9882.631924
892.179857,5403.503377,6735.874072,-10725.336972
892.180177,6143.709319,5995.668130,-11031.775171
892.180497,4589.276840,4515.256246,-11031.775171
892.180817,2590.720797,2442.679609,-10725.336972
892.181137,592.164754,1332.370696,-9652.803275
892.181457,-666.185348,1406.391290,-9806.022374
892.181777,-444.123565,1480.411884,-9959.241474
892.182097,592.164754,1554.432478,-9959.241474
892.182417,888.247130,1998.556043,-10035.851024
892.182737,1406.391290,2664.741391,-10418.898773
892.183057,2664.741391,3923.091493,-10265.679673
892.183377,4737.318029,5033.400406,-10572.117872
892.183697,5847.626942,4885.359217,-10265.679673
892.184017,4959.379811,4219.173869,-10189.070123
892.184337,3256.906145,3034.844362,-9959.241474
892.184657,2294.638420,2516.700203,-9959.241474
892.184977,1480.411884,2738.761985,-10035.851024
892.185297,-518.144159,3404.947333,-10035.851024
892.185617,-1036.288319,2220.617826,-9499.584175
892.185937,-1776.494261,814.226536,-9499.584175
892.186257,-1628.453072,-370.102971,-9269.755526
892.186577,-296.082377,-296.082377,-9346.365076
892.186897,2220.617826,740.205942,-9576.193725
892.187217,4367.215058,2220.617826,-9576.193725
892.187537,5995.668130,3849.070898,-9882.631924
892.187857,6439.791695,5107.421000,-10342.289223
892.188177,5625.565159,5477.523971,-10648.727422
892.188497,3923.091493,5329.482782,-10725.336972
892.188817,2294.638420,4441.235652,-10648.727422
892.189138,962.267725,2516.700203,-10189.070123
892.189458,222.061783,1036.288319,-10189.070123
892.189778,-444.123565,0.000000,-9806.022374
892.190098,-1554.432478,-296.082377,-10112.460574
892.190418,-1406.391290,814.226536,-10035.851024
892.190738,296.082377,2294.638420,-10035.851024
892.191058,3034.844362,3256.906145,-10265.679673
892.191378,4885.359217,3849.070898,-10035.851024
892.191698,6217.729913,3330.926739,-10418.898773
892.192018,6365.771101,2664.741391,-10035.851024
892.192338,4811.338623,2220.617826,-10648.727422
892.192658,2072.576638,2368.659014,-10265.679673
892.192978,-148.041188,2146.597232,-10035.851024
892.193298,-1406.391290,1480.411884,-9882.631924
892.193618,-1480.411884,370.102971,-9806.022374
892.193938,-1924.535449,-444.123565,-9576.193725
892.194258,-148.041188,-740.205942,-9806.022374
892.194578,962.267725,0.000000,-9806.022374
892.194898,2146.597232,1702.473667,-10035.851024
892.195218,3849.070898,2590.720797,-10342.289223
892.195538,4145.153275,4071.132681,-10265.679673
892.195858,4219.173869,4071.132681,-10418.898773
892.196178,3923.091493,3775.050304,-10495.508323
892.196498,3256.906145,2886.803174,-10648.727422
892.196818,2146.597232,1850.514855,-10265.679673
892.197138,592.164754,1110.308913,-9806.022374
892.197458,148.041188,740.205942,-9882.631924
892.197778,370.102971,814.226536,-9882.631924
892.198098,1554.432478,1184.329507,-9729.412825
892.198418,2368.659014,2294.638420,-9959.241474
892.198738,3182.885551,3034.844362,-10265.679673
892.199058,4811.338623,3775.050304,-9959.241474
892.199378,6439.791695,4071.132681,-10418.898773
892.199698,7254.018232,4589.276840,-10035.851024
892.200018,6957.935855,5329.482782,-10801.946522
892.200338,5403.503377,5625.565159,-10878.556072
892.200658,3034.844362,5403.503377,-10648.727422
892.200979,666.185348,4071.132681,-9193.145976
892.201299,-962.267725,1998.556043,-9729.412825
892.201619,-814.226536,148.041188,-9806.022374
892.201939,296.082377,-1036.288319,-9422.974625
892.202259,1554.432478,-518.144159,-9422.974625
892.202579,3478.967927,1628.453072,-9269.755526
892.202899,4589.276840,4367.215058,-10189.070123
892.203219,5699.585753,6883.915261,-10265.679673
892.203539,6291.750507,7624.121203,-10418.898773
892.203859,6217.729913,7920.203579,-10801.946522
892.204179,4811.338623,5477.523971,-10342.289223
892.204499,4145.153275,3404.947333,-10342.289223
892.204819,2886.803174,2294.638420,-9959.241474
892.205139,370.102971,2072.576638,-10189.070123
892.205459,-2146.597232,2220.617826,-9806.022374
892.205779,-3256.906145,3108.864956,-9652.803275
892.206099,-1554.432478,2738.761985,-10112.460574
892.206419,888.247130,2442.679609,-10035.851024
892.206739,3182.885551,1554.432478,-9806.022374
892.207059,2368.659014,2516.700203,-10112.460574
892.207379,2368.659014,3701.029710,-9882.631924
892.207699,3923.091493,4959.379811,-10342.289223
892.208019,5329.482782,6439.791695,-9882.631924
892.208339,5625.565159,5921.647536,-10572.117872
892.208659,3775.050304,4811.338623,-10955.165621
892.208979,222.061783,3404.947333,-10495.508323
892.209299,-2368.659014,1998.556043,-10035.851024
892.209619,-2220.617826,1184.329507,-9652.803275
892.209939,-962.267725,74.020594,-9729.412825
892.210259,-444.123565,-296.082377,-9576.193725
892.210579,370.102971,222.061783,-9116.536426
892.210899,2738.761985,1998.556043,-9806.022374
892.211219,5773.606348,4663.297435,-10265.679673
892.211539,6661.853478,6661.853478,-10725.336972
892.211859,6143.709319,6439.791695,-10418.898773
892.212179,5255.462188,5329.482782,-10418.898773
892.212500,3775.050304,3627.009116,-10418.898773
892.212820,1776.494261,814.226536,-9729.412825
892.213140,370.102971,-296.082377,-9499.584175
892.213460,222.061783,-1036.288319,-9806.022374
892.213780,74.020594,-592.164754,-10725.336972
892.214100,-666.185348,740.205942,-9806.022374
892.214420,0.000000,1702.473667,-9806.022374
892.214740,2664.741391,2812.782580,-9882.631924
892.215060,5107.421000,3034.844362,-10112.460574
892.215380,6513.812290,2886.803174,-10418.898773
892.215700,8216.285956,3182.885551,-10342.289223
892.216020,7254.018232,3997.112087,-10801.946522
892.216340,4663.297435,4071.132681,-10495.508323
892.216660,2442.679609,3330.926739,-10112.460574
892.216980,518.144159,2072.576638,-10342.289223
892.217300,592.164754,-148.041188,-10035.851024
892.217620,518.144159,-2220.617826,-10189.070123
892.217940,0.000000,-1998.556043,-10035.851024
892.218260,-740.205942,-296.082377,-9193.145976
892.218580,0.000000,2072.576638,-9959.241474
892.218900,2590.720797,3256.906145,-10265.679673
892.219220,4367.215058,3478.967927,-9806.022374
892.219540,4737.318029,3997.112087,-10801.946522
892.219860,5699.585753,2886.803174,-10418.898773
892.220180,4959.379811,3775.050304,-10495.508323
892.220500,3034.844362,3997.112087,-10495.508323
892.220820,2294.638420,2886.803174,-9882.631924
892.221140,74.020594,1924.535449,-10035.851024
892.221460,-2516.700203,370.102971,-9959.241474
892.221780,-4071.132681,-1036.288319,-9116.536426
892.222100,-5033.400406,-1036.288319,-9346.365076
892.222420,-1628.453072,-814.226536,-10572.117872
892.222740,3478.967927,0.000000,-9116.536426
892.223060,5477.523971,1776.494261,-10112.460574
892.223380,5403.503377,3478.967927,-9882.631924
892.223700,4663.297435,5107.421000,-9039.926876
892.224020,5551.544565,5995.668130,-10955.165621
892.224341,6513.812290,5625.565159,-10265.679673
892.224661,4145.153275,3923.091493,-10878.556072
892.224981,222.061783,2368.659014,-9806.022374
892.225301,-1554.432478,-296.082377,-9269.755526
892.225621,-2368.659014,0.000000,-9959.241474
892.225941,-1628.453072,-148.041188,-9882.631924
892.226261,-1480.411884,592.164754,-9499.584175
892.226581,0.000000,1850.514855,-9806.022374
892.226901,3849.070898,2220.617826,-10035.851024
892.227221,7031.956449,4515.256246,-10648.727422
892.227541,7402.059420,5995.668130,-11184.994271
892.227861,6365.771101,7179.997637,-10265.679673
892.228181,6217.729913,7179.997637,-10955.165621
892.228501,6735.874072,5477.523971,-10878.556072
892.228821,5773.606348,3404.947333,-10572.117872
892.229141,2442.679609,3182.885551,-10495.508323
892.229461,-1110.308913,2886.803174,-10648.727422
892.229781,-1258.350101,2442.679609,-10112.460574
892.230101,-1850.514855,2146.597232,-10189.070123
892.230421,-814.226536,1554.432478,-9346.365076
892.230741,1628.453072,1850.514855,-9729.412825
892.231061,5329.482782,2368.659014,-9729.412825
892.231381,7550.100608,3701.029710,-10189.070123
892.231701,6661.853478,5107.421000,-10035.851024
892.232021,5477.523971,6439.791695,-10035.851024
892.232341,5625.565159,6661.853478,-10189.070123
892.232661,4367.215058,5255.462188,-10112.460574
892.232981,2072.576638,3404.947333,-9499.584175
892.233301,0.000000,1628.453072,-9499.584175
892.233621,518.144159,592.164754,-9729.412825
892.233941,-740.205942,74.020594,-9269.755526
892.234261,-2294.638420,148.041188,-9269.755526
892.234581,-1628.453072,666.185348,-9193.145976
892.234901,-370.102971,1406.391290,-9422.974625
892.235221,1258.350101,4441.235652,-9346.365076
892.235541,2886.803174,5181.441594,-10265.679673
892.235862,4145.153275,5477.523971,-10418.898773
892.236182,5699.585753,4441.235652,-10801.946522
892.236502,6365.771101,3256.906145,-10725.336972
892.236822,4515.256246,2886.803174,-11031.775171
892.237142,1184.329507,3330.926739,-10265.679673
892.237462,-1776.494261,3404.947333,-10342.289223
892.237782,-1924.535449,2960.823768,-10572.117872
892.238102,-2442.679609,1924.535449,-10495.508323
892.238422,-2294.638420,0.000000,-9116.536426
892.238742,-1924.535449,-814.226536,-9499.584175
892.239062,2146.597232,296.082377,-10648.727422
892.239382,3182.885551,1924.535449,-9882.631924
892.239702,3775.050304,4663.297435,-10801.946522
892.240022,7698.141797,5255.462188,-9959.241474
892.240342,7772.162391,3627.009116,-10418.898773
892.240662,6587.832884,1776.494261,-10572.117872
892.240982,5699.585753,370.102971,-9959.241474
892.241302,666.185348,888.247130,-9806.022374
892.241622,-1036.288319,2368.659014,-9499.584175
892.241942,0.000000,2738.761985,-10572.117872
892.242262,1184.329507,1406.391290,-9729.412825
892.242582,1702.473667,74.020594,-9729.412825
892.242902,1480.411884,222.061783,-9806.022374
892.243222,1332.370696,-740.205942,-9882.631924
892.243542,2368.659014,888.247130,-9806.022374
892.243862,4367.215058,1628.453072,-10265.679673
892.244182,4959.379811,2812.782580,-9806.022374
892.244502,4441.235652,3108.864956,-10342.289223
892.244822,4293.194464,2886.803174,-10878.556072
892.245142,2960.823768,1480.411884,-10572.117872
892.245462,518.144159,1406.391290,-10189.070123
892.245782,-962.267725,74.020594,-10801.946522
892.246102,-1554.432478,-1480.411884,-9576.193725
892.246422,-1702.473667,-2442.679609,-9652.803275
892.246742,-1332.370696,-2368.659014,-10725.336972
892.247062,370.102971,-1702.473667,-10189.070123
892.247383,2590.720797,888.247130,-10189.070123
892.247703,2812.782580,2590.720797,-10955.165621
892.248023,3330.926739,2960.823768,-9346.365076
892.248343,2886.803174,2812.782580,-10418.898773
892.248663,2294.638420,1332.370696,-10955.165621
892.248983,1924.535449,148.041188,-9576.193725
892.249303,370.102971,-666.185348,-10265.679673
892.249623,0.000000,-1998.556043,-9959.241474
892.249943,-666.185348,-2368.659014,-9346.365076
892.250263,-592.164754,-814.226536,-9576.193725
892.250583,-2220.617826,74.020594,-9882.631924
892.250903,-2294.638420,888.247130,-9729.412825
892.251223,-1332.370696,740.205942,-9882.631924
892.251543,592.164754,74.020594,-10189.070123
892.251863,2664.741391,-148.041188,-9346.365076
892.252183,3256.906145,518.144159,-10572.117872
892.252503,2886.803174,222.061783,-10955.165621
892.252823,1702.473667,0.000000,-8963.317327
892.253143,-962.267725,814.226536,-10495.508323
892.253463,-1480.411884,888.247130,-9652.803275
892.253783,-1184.329507,222.061783,-9499.584175
892.254103,-666.185348,518.144159,-10801.946522
892.254423,74.020594,-814.226536,-10112.460574
892.254743,-1406.391290,-1998.556043,-10572.117872
892.255063,-2368.659014,-2220.617826,-10265.679673
892.255383,-2812.782580,-814.226536,-9806.022374
892.255703,-1110.308913,962.267725,-10725.336972
892.256023,-222.061783,2516.700203,-11108.384721
892.256343,592.164754,3034.844362,-9806.022374
892.256663,592.164754,3330.926739,-10801.946522
892.256983,2442.679609,1924.535449,-11644.651570
892.257303,2886.803174,1110.308913,-9959.241474
892.257623,0.000000,666.185348,-11031.775171
892.257943,-1924.535449,0.000000,-9499.584175
892.258263,-1850.514855,0.000000,-9116.536426
892.258583,-1332.370696,74.020594,-10725.336972
892.258903,-296.082377,-666.185348,-9346.365076
892.259224,-1110.308913,-518.144159,-9346.365076
892.259544,-444.123565,-370.102971,-10189.070123
892.259864,1776.494261,444.123565,-8810.098227
892.260184,3552.988522,1776.494261,-10342.289223
892.260504,3923.091493,2516.700203,-10342.289223
892.260824,3108.864956,2590.720797,-9193.145976
892.261144,1776.494261,3034.844362,-10342.289223
892.261482,2294.638420,1924.535449,-9806.022374
892.261802,1776.494261,222.061783,-9576.193725
892.262122,-518.144159,-1998.556043,-10189.070123
892.262442,-1480.411884,-2738.761985,-8886.707777
892.262762,-1628.453072,-814.226536,-9116.536426
892.263082,-148.041188,962.267725,-10648.727422
892.263402,2812.782580,1332.370696,-9652.803275
892.263722,2146.597232,2146.597232,-9806.022374
892.264042,296.082377,1628.453072,-10265.679673
892.264362,740.205942,-148.041188,-9576.193725
892.264682,2812.782580,-666.185348,-10418.898773
892.265002,5033.400406,-222.061783,-10801.946522
892.265322,4737.318029,666.185348,-9806.022374
892.265642,1998.556043,2368.659014,-11108.384721
892.265962,666.185348,2368.659014,-10878.556072
892.266282,0.000000,2072.576638,-10189.070123
892.266602,-370.102971,3034.844362,-12563.966167
892.266922,-2220.617826,444.123565,-10112.460574
892.267242,-1998.556043,-962.267725,-10112.460574
892.267562,0.000000,-2220.617826,-10801.946522
892.267882,2590.720797,-1998.556043,-10112.460574
892.268202,3552.988522,222.061783,-10878.556072
892.268522,3627.009116,2590.720797,-10801.946522
892.268842,3627.009116,3034.844362,-10418.898773
892.269162,2812.782580,4071.132681,-10725.336972
892.269482,2368.659014,2960.823768,-10648.727422
892.269802,74.020594,1184.329507,-9116.536426
892.270122,-1628.453072,-1036.288319,-9806.022374
892.270442,-962.267725,-3849.070898,-9729.412825
892.270762,222.061783,-4737.318029,-8886.707777
892.271082,-592.164754,-3923.091493,-9729.412825
892.271402,-2368.659014,-1924.535449,-8886.707777
892.271722,-3034.844362,1924.535449,-9499.584175
892.272042,-1554.432478,3552.988522,-11568.042020
892.272362,1406.391290,2220.617826,-9806.022374
892.272682,2368.659014,444.123565,-9806.022374
892.273003,1332.370696,-1628.453072,-9806.022374
892.273323,592.164754,-3256.906145,-9039.926876
892.273643,370.102971,-1850.514855,-9652.803275
892.273963,-222.061783,0.000000,-10035.851024
892.274283,-2368.659014,814.226536,-9959.241474
892.274603,-4811.338623,1924.535449,-10265.679673
892.274923,-3701.029710,592.164754,-10265.679673
892.275243,-1332.370696,74.020594,-9882.631924
892.275563,-740.205942,444.123565,-10801.946522
892.275883,296.082377,222.061783,-10648.727422
892.276203,740.205942,222.061783,-10189.070123
892.276523,2442.679609,1332.370696,-10955.165621
892.276843,3034.844362,1184.329507,-10495.508323
892.277163,2072.576638,1998.556043,-11261.603821
892.277483,0.000000,2812.782580,-11491.432470
892.277803,-518.144159,2442.679609,-9959.241474
892.278123,-962.267725,1332.370696,-10265.679673
892.278443,-592.164754,148.041188,-10955.165621
892.278763,518.144159,-962.267725,-9806.022374
892.279083,1036.288319,-1036.288319,-10342.289223
892.279403,1406.391290,592.164754,-9576.193725
892.279723,1554.432478,0.000000,-9806.022374
892.280043,1924.535449,1258.350101,-9806.022374
892.280363,3034.844362,740.205942,-9882.631924
892.280683,2294.638420,888.247130,-9652.803275
892.281003,370.102971,370.102971,-9806.022374
892.281323,1036.288319,0.000000,-9116.536426
892.281643,2146.597232,-222.061783,-9422.974625
892.281963,2442.679609,-814.226536,-10112.460574
892.282283,2146.597232,-2812.782580,-9269.755526
892.282603,0.000000,-3034.844362,-8656.879127
892.282923,-1998.556043,-2368.659014,-9806.022374
892.283243,-1776.494261,-2146.597232,-8810.098227
892.283563,518.144159,-666.185348,-9269.755526
892.283883,1998.556043,1184.329507,-10878.556072
892.284203,2738.761985,2072.576638,-9882.631924
892.284523,2442.679609,1776.494261,-11338.213370
892.284843,2960.823768,74.020594,-10035.851024
892.285163,2442.679609,-1110.308913,-9806.022374
892.285483,814.226536,-888.247130,-11031.775171
892.285803,-1258.350101,-740.205942,-9882.631924
892.286123,-1702.473667,148.041188,-10801.946522
892.286443,-222.061783,1998.556043,-10112.460574
892.286763,3034.844362,1850.514855,-10342.289223
892.287083,1998.556043,1184.329507,-11031.775171
892.287403,518.144159,222.061783,-11261.603821
892.287723,-1110.308913,-888.247130,-10265.679673
892.288043,-1258.350101,-518.144159,-10418.898773
892.288363,962.267725,370.102971,-10725.336972
892.288683,2220.617826,962.267725,-10801.946522
892.289003,962.267725,1184.329507,-11338.213370
892.289323,-592.164754,1406.391290,-10342.289223
892.289643,-3034.844362,1110.308913,-9806.022374
892.289963,-2590.720797,1184.329507,-10648.727422
892.290283,0.000000,592.164754,-9806.022374
892.290603,370.102971,-592.164754,-9729.412825
892.290923,-222.061783,-1332.370696,-10189.070123
892.291243,-1184.329507,-2368.659014,-9039.926876
892.291563,-1702.473667,-1332.370696,-9729.412825
892.291883,-814.226536,444.123565,-9806.022374
892.292203,-962.267725,740.205942,-9193.145976
892.292523,740.205942,1110.308913,-9652.803275
892.292843,1036.288319,888.247130,-10035.851024
892.293163,1332.370696,370.102971,-9422.974625
892.293483,518.144159,296.082377,-10035.851024
892.293803,0.000000,-444.123565,-9882.631924
892.294123,518.144159,-370.102971,-9882.631924
892.294443,-518.144159,-518.144159,-10418.898773
892.294763,-222.061783,-222.061783,-9652.803275
