#time,accel_x,accel_y,accel_z
957.065779,148.041188,666.185348,-9806.022374
957.066099,222.061783,666.185348,-10112.460574
957.066420,0.000000,0.000000,-9959.241474
957.066740,518.144159,-296.082377,-9729.412825
957.067060,444.123565,-148.041188,-10035.851024
957.067381,666.185348,0.000000,-10035.851024
957.067701,666.185348,444.123565,-9806.022374
957.068021,-222.061783,1110.308913,-10035.851024
957.068341,814.226536,666.185348,-9806.022374
957.068662,666.185348,444.123565,-10112.460574
957.068982,814.226536,0.000000,-10112.460574
957.069302,962.267725,-666.185348,-9882.631924
957.069623,666.185348,0.000000,-9806.022374
957.069943,0.000000,222.061783,-10112.460574
957.070263,-444.123565,444.123565,-10112.460574
957.070583,0.000000,592.164754,-10112.460574
957.070904,296.082377,962.267725,-10265.679673
957.071224,518.144159,296.082377,-10342.289223
957.071544,0.000000,370.102971,-10418.898773
957.071864,370.102971,296.082377,-10112.460574
957.072185,1258.350101,592.164754,-10725.336972
957.072505,592.164754,888.247130,-10572.117872
957.072825,-296.082377,222.061783,-10189.070123
957.073146,-444.123565,0.000000,-9959.241474
957.073466,74.020594,-296.082377,-10112.460574
957.073786,0.000000,296.082377,-9959.241474
957.074106,-666.185348,-148.041188,-10265.679673
957.074427,-888.247130,0.000000,-10342.289223
957.074747,0.000000,0.000000,-9882.631924
957.075067,0.000000,148.041188,-10035.851024
957.075388,-222.061783,0.000000,-10112.460574
957.075708,-296.082377,-222.061783,-10265.679673
957.076028,0.000000,-518.144159,-10112.460574
957.076348,-518.144159,-740.205942,-10189.070123
957.076669,-1406.391290,-888.247130,-10035.851024
957.076989,-1258.350101,-1258.350101,-9806.022374
957.077309,-1110.308913,-962.267725,-9882.631924
957.077630,-1258.350101,-740.205942,-9652.803275
957.077950,-2220.617826,-888.247130,-9806.022374
957.078270,-1924.535449,-1480.411884,-9652.803275
957.078590,-888.247130,-1628.453072,-9959.241474
957.078911,-296.082377,-962.267725,-9806.022374
957.079231,-888.247130,-1110.308913,-10112.460574
957.079551,-1406.391290,-1332.370696,-9806.022374
957.079872,-888.247130,-1258.350101,-9806.022374
957.080192,0.000000,-1036.288319,-10189.070123
957.080512,-740.205942,-1110.308913,-10035.851024
957.080832,-2146.597232,-1110.308913,-10878.556072
957.081153,-3108.864956,-2442.679609,-9806.022374
957.081473,-2886.803174,-2960.823768,-9652.803275
957.081793,-1850.514855,-3182.885551,-9729.412825
957.082114,-1480.411884,-3404.947333,-10112.460574
957.082434,-2220.617826,-3923.091493,-10035.851024
957.082754,-2220.617826,-3701.029710,-9576.193725
957.083074,74.020594,-2368.659014,-9959.241474
957.083395,1702.473667,-1332.370696,-10418.898773
957.083715,1258.350101,-740.205942,-10418.898773
957.084035,-740.205942,-1406.391290,-10495.508323
957.084356,-2516.700203,-2516.700203,-10189.070123
957.084676,-3330.926739,-3849.070898,-10112.460574
957.084996,-4145.153275,-4219.173869,-9806.022374
957.085316,-5181.441594,-5255.462188,-9576.193725
957.085637,-4219.173869,-5921.647536,-9499.584175
957.085957,-2368.659014,-5699.585753,-9729.412825
957.086277,-222.061783,-4737.318029,-9882.631924
957.086598,370.102971,-2516.700203,-9576.193725
957.086918,666.185348,-296.082377,-10418.898773
957.087238,1628.453072,888.247130,-10572.117872
957.087558,2146.597232,1332.370696,-10725.336972
957.087879,1332.370696,370.102971,-11108.384721
957.088199,-148.041188,-1702.473667,-10418.898773
957.088519,-2368.659014,-3478.967927,-10189.070123
957.088840,-3849.070898,-3997.112087,-10495.508323
957.089160,-5181.441594,-3849.070898,-10035.851024
957.089480,-5921.647536,-4219.173869,-9652.803275
957.089800,-3997.112087,-4885.359217,-9193.145976
957.090121,-962.267725,-4589.276840,-9806.022374
957.090441,1110.308913,-3330.926739,-10112.460574
957.090761,2220.617826,-1036.288319,-10112.460574
957.091082,3034.844362,1184.329507,-10035.851024
957.091402,3923.091493,2886.803174,-10801.946522
957.091722,2664.741391,3182.885551,-11108.384721
957.092042,-666.185348,740.205942,-10495.508323
957.092363,-4663.297435,-2220.617826,-10112.460574
957.092683,-6957.935855,-4959.379811,-9499.584175
957.093003,-6217.729913,-7402.059420,-9346.365076
957.093324,-4515.256246,-7920.203579,-9193.145976
957.093644,-3552.988522,-6143.709319,-8963.317327
957.093964,-2072.576638,-2590.720797,-9806.022374
957.094284,222.061783,814.226536,-10418.898773
957.094605,2368.659014,3182.885551,-10572.117872
957.094925,2590.720797,3330.926739,-10418.898773
957.095245,2886.803174,2368.659014,-10572.117872
957.095566,3552.988522,222.061783,-10572.117872
957.095886,2220.617826,0.000000,-10725.336972
957.096206,-1036.288319,-740.205942,-10265.679673
957.096526,-3701.029710,-2072.576638,-9959.241474
957.096847,-4589.276840,-2368.659014,-9806.022374
957.097167,-6439.791695,-3330.926739,-9806.022374
957.097487,-7179.997637,-4885.359217,-9346.365076
957.097808,-5921.647536,-5995.668130,-9806.022374
957.098128,-2294.638420,-5181.441594,-9576.193725
957.098448,1554.432478,-1998.556043,-9882.631924
957.098768,3182.885551,2146.597232,-10342.289223
957.099089,2368.659014,4293.194464,-10725.336972
957.099409,2368.659014,6143.709319,-10648.727422
957.099729,2368.659014,3701.029710,-10725.336972
957.100050,1998.556043,296.082377,-10495.508323
957.100370,-592.164754,-2960.823768,-10265.679673
957.100690,-4367.215058,-4737.318029,-9729.412825
957.101010,-7476.080014,-4811.338623,-9652.803275
957.101331,-9030.512492,-3775.050304,-9269.755526
957.101651,-7920.203579,-2368.659014,-8886.707777
957.101971,-4071.132681,-2072.576638,-9269.755526
957.102292,0.000000,-3182.885551,-9499.584175
957.102612,3256.906145,-2664.741391,-10112.460574
957.102932,2886.803174,-962.267725,-10189.070123
957.103252,3108.864956,1406.391290,-10189.070123
957.103573,3256.906145,3997.112087,-10418.898773
957.103893,2368.659014,4071.132681,-10648.727422
957.104213,370.102971,2812.782580,-10801.946522
957.104534,-3478.967927,-740.205942,-10112.460574
957.104854,-6365.771101,-4515.256246,-9882.631924
957.105174,-6883.915261,-7698.141797,-9499.584175
957.105494,-6365.771101,-8734.430116,-9269.755526
957.105815,-5033.400406,-8956.491898,-9346.365076
957.106135,-3997.112087,-7328.038826,-9269.755526
957.106455,-2220.617826,-3182.885551,-11338.213370
957.106776,888.247130,444.123565,-10725.336972
957.107096,5329.482782,3330.926739,-11031.775171
957.107416,6291.750507,3182.885551,-11797.870669
957.107736,3552.988522,1776.494261,-10878.556072
957.108057,-518.144159,-666.185348,-10878.556072
957.108377,-2516.700203,-2738.761985,-10189.070123
957.108697,-3552.988522,-3997.112087,-10189.070123
957.109018,-4071.132681,-5403.503377,-9959.241474
957.109338,-6661.853478,-6809.894666,-9959.241474
957.109658,-7624.121203,-8068.244768,-8733.488677
957.109978,-5773.606348,-6513.812290,-9346.365076
957.110299,-1554.432478,-3256.906145,-10265.679673
957.110619,222.061783,-1258.350101,-10189.070123
957.110939,370.102971,-296.082377,-10035.851024
957.111260,1480.411884,-148.041188,-9959.241474
957.111580,3849.070898,666.185348,-10648.727422
957.111900,4959.379811,666.185348,-10801.946522
957.112220,2960.823768,-222.061783,-10648.727422
957.112541,-148.041188,-1850.514855,-10189.070123
957.112861,-3404.947333,-2886.803174,-10418.898773
957.113181,-4811.338623,-4219.173869,-9959.241474
957.113502,-6809.894666,-4885.359217,-9882.631924
957.113822,-5403.503377,-4885.359217,-9499.584175
957.114142,-3478.967927,-4071.132681,-9729.412825
957.114462,-1406.391290,-3404.947333,-10112.460574
957.114783,-444.123565,-2960.823768,-9882.631924
957.115103,666.185348,-1628.453072,-10495.508323
957.115423,1554.432478,222.061783,-10725.336972
957.115744,518.144159,814.226536,-11031.775171
957.116064,-370.102971,1554.432478,-10112.460574
957.116384,518.144159,1332.370696,-10342.289223
957.116704,2220.617826,-148.041188,-10878.556072
957.117025,-296.082377,-2738.761985,-10801.946522
957.117345,-2664.741391,-5329.482782,-9882.631924
957.117665,-4071.132681,-5551.544565,-9882.631924
957.117986,-4663.297435,-3997.112087,-9882.631924
957.118306,-4071.132681,-2146.597232,-9346.365076
957.118626,-4515.256246,-2368.659014,-9729.412825
957.118946,-2294.638420,-2220.617826,-8810.098227
957.119267,-296.082377,-1924.535449,-10035.851024
957.119587,2220.617826,0.000000,-10112.460574
957.119907,2368.659014,1184.329507,-10418.898773
957.120228,1480.411884,1258.350101,-10725.336972
957.120548,518.144159,1776.494261,-10112.460574
957.120868,-888.247130,-888.247130,-10265.679673
957.121188,-3627.009116,-2886.803174,-9193.145976
957.121508,-5403.503377,-3849.070898,-9882.631924
957.121828,-4663.297435,-3552.988522,-9652.803275
957.122149,-2960.823768,-2368.659014,-9806.022374
957.122469,-2146.597232,-2368.659014,-9652.803275
957.122789,-888.247130,-3034.844362,-9269.755526
957.123109,-740.205942,-3182.885551,-9576.193725
957.123429,74.020594,-2072.576638,-9882.631924
957.123749,370.102971,0.000000,-10955.165621
957.124070,370.102971,1776.494261,-10725.336972
957.124390,-148.041188,3923.091493,-10418.898773
957.124710,-1036.288319,1702.473667,-10418.898773
957.125030,-962.267725,-814.226536,-9959.241474
957.125350,-962.267725,-2220.617826,-10035.851024
957.125670,-1110.308913,-3627.009116,-10648.727422
957.125991,-1184.329507,-5551.544565,-10265.679673
957.126311,-2516.700203,-4737.318029,-9499.584175
957.126631,-4589.276840,-3478.967927,-9499.584175
957.126951,-3552.988522,-2960.823768,-9346.365076
957.127271,-888.247130,-740.205942,-10495.508323
957.127591,2590.720797,-296.082377,-10725.336972
957.127912,2368.659014,-518.144159,-9806.022374
957.128232,1406.391290,888.247130,-10112.460574
957.128552,1554.432478,-666.185348,-10648.727422
957.128872,1628.453072,-2146.597232,-10189.070123
957.129192,-518.144159,-2146.597232,-10035.851024
957.129512,-4145.153275,-3404.947333,-9959.241474
957.129833,-7698.141797,-3256.906145,-9729.412825
957.130153,-7772.162391,-5107.421000,-9269.755526
957.130473,-4885.359217,-4219.173869,-8886.707777
957.130793,-814.226536,-3478.967927,-9346.365076
957.131113,222.061783,-3552.988522,-10342.289223
957.131433,74.020594,-2220.617826,-10189.070123
957.131754,222.061783,-1850.514855,-10112.460574
957.132074,-370.102971,-1702.473667,-9422.974625
957.132394,-592.164754,-1110.308913,-9729.412825
957.132714,1110.308913,-1480.411884,-10342.289223
957.133034,296.082377,-2516.700203,-10572.117872
957.133354,-2738.761985,-3256.906145,-10189.070123
957.133675,-4441.235652,-2516.700203,-9729.412825
957.133995,-4515.256246,-2886.803174,-9729.412825
957.134315,-4441.235652,-2738.761985,-9576.193725
957.134635,-3701.029710,-4441.235652,-10035.851024
957.134955,-4663.297435,-4515.256246,-9116.536426
957.135275,-4811.338623,-3997.112087,-9729.412825
957.135596,-2812.782580,-2368.659014,-10265.679673
957.135916,740.205942,-1184.329507,-10265.679673
957.136236,1036.288319,666.185348,-10648.727422
957.136556,-1406.391290,-222.061783,-10189.070123
957.136876,-2146.597232,0.000000,-10418.898773
957.137196,74.020594,-1702.473667,-10265.679673
957.137517,3701.029710,-3182.885551,-10572.117872
957.137837,1628.453072,-2146.597232,-10572.117872
957.138157,-2960.823768,-2368.659014,-9806.022374
957.138477,-4219.173869,-4367.215058,-9422.974625
957.138797,-3034.844362,-2442.679609,-9652.803275
957.139117,-1702.473667,-2738.761985,-10725.336972
957.139438,-222.061783,-3923.091493,-9652.803275
957.139758,3256.906145,-4071.132681,-9346.365076
957.140078,2886.803174,-2146.597232,-9806.022374
957.140398,2072.576638,148.041188,-9806.022374
957.140718,1480.411884,3923.091493,-11721.261119
957.141038,666.185348,2368.659014,-10725.336972
957.141359,0.000000,-814.226536,-10342.289223
957.141679,1110.308913,-3627.009116,-9193.145976
957.141999,3034.844362,-2368.659014,-9806.022374
957.142319,1850.514855,-1036.288319,-10955.165621
957.142639,-2072.576638,-296.082377,-10189.070123
957.142959,-3627.009116,296.082377,-10265.679673
957.143280,-1850.514855,-740.205942,-9959.241474
957.143600,3627.009116,-4515.256246,-9652.803275
957.143920,3775.050304,-4145.153275,-10955.165621
957.144240,370.102971,-1998.556043,-9882.631924
957.144560,-3627.009116,1702.473667,-9729.412825
957.144880,-2220.617826,2368.659014,-10418.898773
957.145200,2960.823768,3182.885551,-11031.775171
957.145521,4145.153275,3182.885551,-11031.775171
957.145841,370.102971,74.020594,-10572.117872
957.146161,-2590.720797,-296.082377,-10035.851024
957.146481,-3108.864956,-1036.288319,-10418.898773
957.146801,-222.061783,-740.205942,-10495.508323
957.147121,888.247130,1184.329507,-10342.289223
957.147442,-1110.308913,0.000000,-10418.898773
957.147762,-4293.194464,370.102971,-9729.412825
957.148082,-2960.823768,1332.370696,-10265.679673
957.148402,1776.494261,4441.235652,-10189.070123
957.148722,5773.606348,4367.215058,-10878.556072
957.149042,5403.503377,3330.926739,-10342.289223
957.149363,1184.329507,-370.102971,-10878.556072
957.149683,-888.247130,-2738.761985,-9806.022374
957.150003,-2220.617826,0.000000,-9652.803275
957.150323,-1554.432478,3330.926739,-9882.631924
957.150643,-1184.329507,3627.009116,-9652.803275
957.150963,148.041188,1702.473667,-9652.803275
957.151284,148.041188,-2368.659014,-9576.193725
957.151604,148.041188,-2072.576638,-9039.926876
957.151924,1924.535449,-888.247130,-9576.193725
957.152244,3997.112087,814.226536,-9806.022374
957.152564,6513.812290,2590.720797,-9806.022374
957.152884,4293.194464,4219.173869,-11184.994271
957.153205,1776.494261,5033.400406,-9959.241474
957.153525,222.061783,3478.967927,-10189.070123
957.153845,1258.350101,518.144159,-10878.556072
957.154165,2738.761985,-148.041188,-9652.803275
957.154485,1924.535449,-1406.391290,-10725.336972
957.154805,-444.123565,-962.267725,-9652.803275
957.155126,-3182.885551,-740.205942,-9959.241474
957.155446,-1850.514855,-666.185348,-9499.584175
957.155766,1702.473667,1554.432478,-10112.460574
957.156086,3478.967927,1258.350101,-10572.117872
957.156406,2368.659014,2146.597232,-10189.070123
957.156726,3404.947333,1110.308913,-10725.336972
957.157047,2590.720797,1924.535449,-10801.946522
957.157367,962.267725,666.185348,-10112.460574
957.157687,2220.617826,888.247130,-10189.070123
957.158007,1998.556043,0.000000,-11184.994271
957.158327,-666.185348,-1184.329507,-10265.679673
957.158647,-740.205942,-2294.638420,-9806.022374
957.158968,-5181.441594,-4663.297435,-9806.022374
957.159288,-3701.029710,-3256.906145,-8350.440928
957.159608,-3849.070898,-2220.617826,-10648.727422
957.159928,-518.144159,-2738.761985,-9346.365076
957.160248,1110.308913,-2368.659014,-9652.803275
957.160568,518.144159,444.123565,-10648.727422
957.160889,2960.823768,1258.350101,-10265.679673
957.161209,3775.050304,2516.700203,-11338.213370
957.161529,814.226536,1702.473667,-10342.289223
957.161849,-3256.906145,1036.288319,-10112.460574
957.162169,-5033.400406,-740.205942,-10035.851024
957.162489,-2590.720797,-2886.803174,-9499.584175
957.162810,-666.185348,-2960.823768,-10572.117872
957.163130,148.041188,-3034.844362,-10189.070123
957.163450,-1850.514855,-1554.432478,-10725.336972
957.163770,-1480.411884,-1776.494261,-10572.117872
957.164090,-888.247130,-740.205942,-9729.412825
957.164410,888.247130,2072.576638,-10342.289223
957.164731,2664.741391,2664.741391,-10189.070123
957.165051,2960.823768,1332.370696,-10878.556072
957.165371,2368.659014,-296.082377,-10342.289223
957.165691,888.247130,-1554.432478,-9959.241474
957.166011,-1480.411884,-666.185348,-10189.070123
957.166331,-1184.329507,296.082377,-9806.022374
957.166652,-1702.473667,1480.411884,-10801.946522
957.166972,-1702.473667,-666.185348,-10265.679673
957.167292,-1924.535449,-3256.906145,-9806.022374
957.167612,148.041188,-5403.503377,-9346.365076
957.167932,2294.638420,-4515.256246,-9346.365076
957.168252,3034.844362,-1702.473667,-10035.851024
957.168573,3997.112087,1406.391290,-9959.241474
957.168893,4145.153275,3478.967927,-10342.289223
957.169213,4737.318029,4737.318029,-10189.070123
957.169533,5033.400406,3182.885551,-10495.508323
957.169853,5329.482782,1036.288319,-11491.432470
957.170173,2368.659014,-2368.659014,-10035.851024
957.170494,518.144159,-2664.741391,-9499.584175
957.170814,-2516.700203,-740.205942,-10189.070123
957.171134,-4885.359217,148.041188,-9652.803275
957.171454,-3478.967927,2664.741391,-9269.755526
957.171774,444.123565,1332.370696,-10035.851024
957.172094,6883.915261,-518.144159,-10035.851024
957.172415,7476.080014,-1776.494261,-10878.556072
957.172735,4515.256246,-888.247130,-9959.241474
957.173055,148.041188,1110.308913,-10265.679673
957.173375,1258.350101,3404.947333,-9882.631924
957.173695,1628.453072,4071.132681,-11261.603821
957.174015,-370.102971,1628.453072,-11797.870669
957.174335,-3701.029710,-222.061783,-9959.241474
957.174656,-4737.318029,0.000000,-10648.727422
957.174976,-3478.967927,1702.473667,-9729.412825
957.175296,0.000000,2072.576638,-10955.165621
957.175616,2442.679609,1628.453072,-10725.336972
957.175936,1406.391290,370.102971,-10342.289223
957.176256,1702.473667,2146.597232,-9729.412825
957.176577,814.226536,3849.070898,-10342.289223
957.176897,2442.679609,5773.606348,-10878.556072
957.177217,2516.700203,5255.462188,-10342.289223
957.177537,740.205942,4071.132681,-12027.699319
957.177857,-1258.350101,1776.494261,-9269.755526
957.178177,-3478.967927,666.185348,-9039.926876
957.178498,-3997.112087,888.247130,-10035.851024
957.178818,-1184.329507,1406.391290,-9269.755526
957.179138,-3182.885551,148.041188,-9346.365076
957.179458,-3701.029710,-2516.700203,-8810.098227
957.179778,-444.123565,-4959.379811,-7814.174080
957.180098,2368.659014,-3552.988522,-9039.926876
957.180419,4219.173869,0.000000,-9729.412825
957.180739,3552.988522,4737.318029,-9499.584175
957.181059,2072.576638,6143.709319,-10725.336972
957.181379,3108.864956,4663.297435,-10035.851024
957.181699,888.247130,2368.659014,-10189.070123
957.182019,-2146.597232,-2368.659014,-9882.631924
957.182340,-3330.926739,-5551.544565,-8886.707777
957.182660,-2664.741391,-5995.668130,-8886.707777
957.182980,-2072.576638,-3923.091493,-9729.412825
957.183300,-740.205942,-296.082377,-9116.536426
957.183620,1998.556043,2516.700203,-10955.165621
957.183940,5699.585753,3997.112087,-10955.165621
957.184261,5181.441594,3923.091493,-10801.946522
957.184581,3923.091493,2442.679609,-11261.603821
957.184901,3627.009116,222.061783,-10112.460574
957.185221,2664.741391,-1110.308913,-10112.460574
957.185541,2294.638420,-1776.494261,-10495.508323
957.185861,962.267725,444.123565,-10418.898773
957.186182,666.185348,444.123565,-10878.556072
957.186502,444.123565,1258.350101,-10878.556072
957.186822,74.020594,1036.288319,-10572.117872
957.187142,-740.205942,0.000000,-10418.898773
957.187462,-2590.720797,-1850.514855,-9729.412825
957.187782,-2294.638420,-3404.947333,-10495.508323
957.188103,-1036.288319,-2516.700203,-9806.022374
957.188423,962.267725,-1110.308913,-10955.165621
957.188743,1998.556043,444.123565,-9959.241474
957.189063,2368.659014,0.000000,-10035.851024
957.189383,3256.906145,0.000000,-9882.631924
957.189703,2368.659014,666.185348,-10342.289223
957.190024,0.000000,0.000000,-9882.631924
957.190344,-3034.844362,-1332.370696,-9576.193725
957.190664,-2516.700203,-2294.638420,-8963.317327
957.190984,-1628.453072,-3034.844362,-9499.584175
957.191304,-1702.473667,-3034.844362,-9806.022374
957.191624,-2368.659014,-1628.453072,-9116.536426
957.191945,-1850.514855,-1184.329507,-10035.851024
957.192265,2738.761985,-222.061783,-9193.145976
957.192585,4737.318029,1998.556043,-10418.898773
957.192905,1702.473667,3775.050304,-10418.898773
957.193225,-296.082377,3330.926739,-10035.851024
957.193545,518.144159,888.247130,-9729.412825
957.193866,1184.329507,-1628.453072,-9959.241474
957.194186,740.205942,-3034.844362,-10189.070123
957.194506,-962.267725,-1258.350101,-9729.412825
957.194826,-2738.761985,814.226536,-11108.384721
957.195146,-592.164754,2442.679609,-10265.679673
957.195466,2368.659014,2220.617826,-10112.460574
957.195787,1702.473667,296.082377,-10418.898773
957.196107,962.267725,-814.226536,-9652.803275
957.196427,2072.576638,-1998.556043,-10189.070123
957.196747,3182.885551,-962.267725,-10495.508323
957.197067,3627.009116,1406.391290,-10725.336972
957.197387,3923.091493,4219.173869,-10495.508323
957.197708,3997.112087,5181.441594,-10955.165621
957.198028,2368.659014,4737.318029,-10495.508323
957.198348,962.267725,1184.329507,-10801.946522
957.198668,-592.164754,-1702.473667,-10342.289223
957.198988,-1702.473667,-1406.391290,-10418.898773
957.199308,-2886.803174,-1776.494261,-9346.365076
957.199629,-1776.494261,148.041188,-9116.536426
957.199949,-666.185348,666.185348,-9576.193725
957.200269,2442.679609,2590.720797,-9576.193725
957.200589,4663.297435,2368.659014,-9806.022374
957.200909,4959.379811,592.164754,-9269.755526
957.201229,2812.782580,296.082377,-9576.193725
957.201550,1554.432478,-1036.288319,-9346.365076
957.201870,1258.350101,814.226536,-9729.412825
957.202190,-518.144159,1628.453072,-9116.536426
957.202510,148.041188,1554.432478,-10265.679673
957.202830,-2960.823768,-1332.370696,-9269.755526
957.203150,-4367.215058,-1702.473667,-9499.584175
957.203470,-3478.967927,-740.205942,-10265.679673
957.203791,-1110.308913,-1480.411884,-9193.145976
957.204111,0.000000,-1480.411884,-9806.022374
957.204431,1776.494261,0.000000,-9959.241474
957.204751,2516.700203,1554.432478,-10265.679673
957.205071,814.226536,5255.462188,-11338.213370
957.205391,-962.267725,6587.832884,-10189.070123
957.205712,1480.411884,3627.009116,-11031.775171
957.206032,3034.844362,148.041188,-10342.289223
957.206352,3775.050304,-296.082377,-10955.165621
957.206672,962.267725,-962.267725,-11108.384721
957.206992,-2220.617826,-222.061783,-9882.631924
957.207312,-3034.844362,2960.823768,-11031.775171
957.207633,-3108.864956,2516.700203,-11797.870669
957.207953,740.205942,2368.659014,-10878.556072
957.208273,-444.123565,2886.803174,-9882.631924
957.208593,-296.082377,2664.741391,-11108.384721
957.208913,1702.473667,3034.844362,-10112.460574
957.209233,1924.535449,1258.350101,-10112.460574
957.209554,3478.967927,-962.267725,-9039.926876
957.209874,2590.720797,-2812.782580,-9193.145976
957.210194,3256.906145,-4959.379811,-9729.412825
957.210514,2738.761985,-3478.967927,-9116.536426
957.210834,296.082377,-1258.350101,-9652.803275
957.211154,148.041188,1332.370696,-9346.365076
957.211475,-1702.473667,1702.473667,-9193.145976
957.211795,0.000000,296.082377,-9269.755526
957.212115,1332.370696,-2294.638420,-9039.926876
957.212435,2738.761985,-4071.132681,-9346.365076
957.212755,3627.009116,-2442.679609,-9499.584175
957.213075,2664.741391,-1036.288319,-9806.022374
957.213396,1998.556043,962.267725,-8733.488677
957.213716,2294.638420,962.267725,-9959.241474
957.214036,2960.823768,1184.329507,-9806.022374
957.214356,1776.494261,814.226536,-10035.851024
957.214676,-962.267725,740.205942,-9806.022374
957.214996,-2442.679609,518.144159,-10189.070123
957.215317,-740.205942,-444.123565,-9959.241474
957.215637,1628.453072,-1924.535449,-10265.679673
957.215957,740.205942,-1554.432478,-10265.679673
957.216277,-1702.473667,-222.061783,-10495.508323
957.216597,-1554.432478,1628.453072,-11261.603821
957.216917,-1480.411884,3552.988522,-10725.336972
957.217238,-444.123565,3478.967927,-11184.994271
957.217558,666.185348,1184.329507,-10342.289223
957.217878,0.000000,-1776.494261,-10189.070123
957.218198,1554.432478,-3404.947333,-10112.460574
957.218518,148.041188,-3182.885551,-10418.898773
957.218838,-592.164754,-1258.350101,-9959.241474
957.219159,-74.020594,2368.659014,-10342.289223
957.219479,1110.308913,4737.318029,-10418.898773
957.219799,-1036.288319,4367.215058,-10801.946522
957.220119,-3997.112087,1110.308913,-11721.261119
957.220439,-5625.565159,-814.226536,-8733.488677
957.220759,-5847.626942,-222.061783,-10265.679673
957.221080,-2368.659014,-1480.411884,-8886.707777
957.221400,2960.823768,-1776.494261,-9422.974625
957.221720,3923.091493,-666.185348,-10189.070123
957.222040,1628.453072,962.267725,-8810.098227
957.222360,0.000000,2220.617826,-9959.241474
957.222680,-370.102971,2886.803174,-9193.145976
957.223001,-1110.308913,2516.700203,-9499.584175
957.223321,1258.350101,1480.411884,-8427.050478
957.223641,3552.988522,74.020594,-9652.803275
957.223961,3256.906145,-1480.411884,-9729.412825
957.224280,518.144159,-2664.741391,-9959.241474
957.224600,962.267725,-1406.391290,-9039.926876
957.224920,1702.473667,1110.308913,-10035.851024
957.225240,1036.288319,2664.741391,-10035.851024
957.225560,370.102971,2812.782580,-10342.289223
957.225880,1406.391290,518.144159,-10725.336972
957.226200,2442.679609,-1258.350101,-9959.241474
957.226520,2146.597232,-1850.514855,-10725.336972
957.226840,2072.576638,148.041188,-10189.070123
957.227160,1628.453072,1036.288319,-10572.117872
957.227480,2664.741391,4441.235652,-12257.527968
957.227800,3256.906145,3108.864956,-12027.699319
957.228120,2294.638420,2220.617826,-10955.165621
957.228440,-518.144159,1036.288319,-10572.117872
957.228760,962.267725,-222.061783,-9652.803275
957.229080,2590.720797,222.061783,-11031.775171
957.229400,2220.617826,370.102971,-10189.070123
957.229720,2886.803174,-1406.391290,-10189.070123
957.230040,1406.391290,-1998.556043,-9959.241474
957.230360,1924.535449,-444.123565,-9806.022374
957.230680,518.144159,2664.741391,-9729.412825
957.231000,-962.267725,4589.276840,-9882.631924
957.231320,-592.164754,2664.741391,-9499.584175
957.231640,814.226536,-1406.391290,-9806.022374
957.231960,148.041188,-4293.194464,-10342.289223
957.232280,-2368.659014,-4367.215058,-8810.098227
957.232600,-2220.617826,-2590.720797,-9193.145976
957.232920,-1036.288319,-666.185348,-9116.536426
957.233240,0.000000,296.082377,-9193.145976
957.233560,-1406.391290,1406.391290,-9806.022374
957.233880,-1554.432478,518.144159,-9729.412825
957.234200,-2368.659014,-222.061783,-9269.755526
957.234520,-1406.391290,74.020594,-9652.803275
957.234840,1850.514855,-296.082377,-10189.070123
957.235160,2294.638420,-370.102971,-10342.289223
957.235480,1332.370696,370.102971,-9882.631924
957.235800,-370.102971,0.000000,-10495.508323
957.236120,-666.185348,1776.494261,-11031.775171
957.236440,-3182.885551,2220.617826,-10725.336972
957.236760,-3182.885551,1406.391290,-10572.117872
957.237080,-3034.844362,1924.535449,-10265.679673
957.237400,-666.185348,1628.453072,-11261.603821
957.237720,1184.329507,518.144159,-10955.165621
957.238040,2294.638420,-1036.288319,-11721.261119
957.238360,4515.256246,-666.185348,-10495.508323
957.238680,5403.503377,2220.617826,-10418.898773
957.239000,5847.626942,4441.235652,-11414.822920
957.239320,0.000000,4441.235652,-11261.603821
957.239640,-3627.009116,2960.823768,-9806.022374
957.239960,-740.205942,-1406.391290,-9499.584175
957.240280,5847.626942,-5329.482782,-9193.145976
957.240600,5181.441594,-5329.482782,-9729.412825
957.240920,222.061783,-3034.844362,-9346.365076
957.241240,-1702.473667,222.061783,-8886.707777
957.241560,0.000000,2368.659014,-9729.412825
957.241880,3478.967927,2516.700203,-9422.974625
957.242200,2294.638420,296.082377,-8656.879127
957.242520,-592.164754,-2812.782580,-8810.098227
957.242840,1184.329507,-3182.885551,-8427.050478
957.243160,5329.482782,-3034.844362,-8886.707777
957.243480,5551.544565,-1850.514855,-8886.707777
957.243800,3627.009116,-666.185348,-9422.974625
957.244120,1702.473667,370.102971,-10035.851024
957.244440,296.082377,2738.761985,-10189.070123
957.244760,-1036.288319,3701.029710,-10342.289223
957.245080,-3034.844362,1998.556043,-9806.022374
957.245400,-3108.864956,-148.041188,-10495.508323
957.245720,-888.247130,-148.041188,-10418.898773
957.246040,-1258.350101,-1332.370696,-10648.727422
957.246360,-2812.782580,-2368.659014,-9806.022374
957.246680,-2886.803174,-1776.494261,-10648.727422
957.247000,-1628.453072,666.185348,-10265.679673
957.247320,370.102971,3034.844362,-11874.480219
957.247640,-1184.329507,4219.173869,-11721.261119
957.247960,-3034.844362,3775.050304,-10648.727422
957.248280,-3330.926739,1628.453072,-11644.651570
957.248600,370.102971,518.144159,-10189.070123
957.248920,1184.329507,-1110.308913,-11414.822920
957.249240,962.267725,-1702.473667,-10495.508323
957.249560,1110.308913,0.000000,-10342.289223
957.249880,370.102971,1702.473667,-10878.556072
957.250200,74.020594,3478.967927,-10725.336972
957.250520,0.000000,2738.761985,-10342.289223
957.250839,-3404.947333,1776.494261,-9269.755526
957.251159,-1406.391290,-1628.453072,-9116.536426
957.251479,1406.391290,-2368.659014,-9116.536426
957.251799,814.226536,-3997.112087,-9576.193725
957.252119,3478.967927,-2960.823768,-9039.926876
957.252439,1480.411884,0.000000,-9039.926876
957.252759,1850.514855,1406.391290,-8733.488677
957.253079,962.267725,2960.823768,-9652.803275
957.253399,-2146.597232,1406.391290,-8810.098227
957.253719,-296.082377,-370.102971,-8733.488677
957.254039,2516.700203,-1628.453072,-8810.098227
957.254359,6143.709319,-1184.329507,-9346.365076
957.254679,7105.977043,-1406.391290,-11338.213370
957.254999,4959.379811,740.205942,-9806.022374
957.255319,666.185348,1776.494261,-10112.460574
957.255639,296.082377,1702.473667,-9422.974625
957.255959,-296.082377,1702.473667,-10189.070123
957.256279,666.185348,1406.391290,-11261.603821
957.256599,2368.659014,1332.370696,-10572.117872
957.256919,2442.679609,-222.061783,-11261.603821
957.257239,3552.988522,-148.041188,-11338.213370
957.257559,2220.617826,-2146.597232,-11414.822920
957.257879,-666.185348,-370.102971,-11338.213370
957.258199,-1628.453072,1924.535449,-10801.946522
957.258519,740.205942,3256.906145,-11108.384721
957.258839,2590.720797,3552.988522,-11491.432470
957.259159,1110.308913,2072.576638,-11951.089769
957.259479,-1850.514855,0.000000,-11108.384721
957.259799,-2220.617826,-666.185348,-10725.336972
957.260119,-444.123565,-740.205942,-9729.412825
957.260439,592.164754,0.000000,-10495.508323
957.260759,962.267725,222.061783,-9806.022374
957.261079,0.000000,592.164754,-10418.898773
957.261399,-740.205942,518.144159,-9729.412825
957.261719,-2294.638420,740.205942,-8886.707777
957.262039,-2516.700203,-444.123565,-9652.803275
957.262359,-1036.288319,-1332.370696,-8427.050478
957.262679,-1480.411884,-1702.473667,-9039.926876
957.262999,-370.102971,-1036.288319,-8733.488677
957.263319,-2294.638420,-814.226536,-8810.098227
957.263639,-888.247130,740.205942,-9652.803275
957.263959,-2072.576638,666.185348,-9269.755526
957.264279,-1036.288319,1258.350101,-9193.145976
957.264599,74.020594,296.082377,-8963.317327
957.264919,-1406.391290,-962.267725,-9269.755526
957.265239,-1628.453072,296.082377,-9729.412825
957.265559,-1110.308913,518.144159,-9652.803275
957.265879,1776.494261,1554.432478,-9729.412825
957.266199,2812.782580,814.226536,-10725.336972
957.266519,2812.782580,814.226536,-10878.556072
957.266839,0.000000,0.000000,-10648.727422
957.267159,-1480.411884,-1110.308913,-10648.727422
957.267479,-370.102971,1258.350101,-10112.460574
957.267799,1554.432478,1776.494261,-11414.822920
957.268119,1258.350101,3404.947333,-11491.432470
957.268439,1998.556043,1554.432478,-11414.822920
957.268759,2368.659014,592.164754,-11184.994271
957.269079,3701.029710,-444.123565,-11108.384721
957.269399,2664.741391,0.000000,-11261.603821
957.269719,1480.411884,2368.659014,-9806.022374
957.270039,2812.782580,2960.823768,-10955.165621
957.270359,4441.235652,2368.659014,-10265.679673
957.270679,7994.224174,-814.226536,-10572.117872
957.270999,6957.935855,-740.205942,-9652.803275
957.271319,3775.050304,-592.164754,-9882.631924
957.271639,3330.926739,2220.617826,-9576.193725
957.271959,0.000000,1554.432478,-10112.460574
957.272279,-814.226536,518.144159,-8350.440928
957.272599,-3849.070898,-1332.370696,-9193.145976
957.272919,-1036.288319,-4219.173869,-8427.050478
957.273239,222.061783,-2294.638420,-8656.879127
957.273559,666.185348,-2368.659014,-9729.412825
957.273879,0.000000,-370.102971,-8503.660028
957.274199,-1480.411884,-1406.391290,-9499.584175
957.274519,1776.494261,-666.185348,-9193.145976
957.274839,1702.473667,222.061783,-9652.803275
957.275159,-222.061783,2516.700203,-10112.460574
957.275479,-814.226536,3108.864956,-10572.117872
957.275799,0.000000,518.144159,-10189.070123
957.276119,2146.597232,-2220.617826,-10572.117872
957.276439,-518.144159,-4589.276840,-9652.803275
957.276759,-3775.050304,-3034.844362,-9959.241474
957.277079,-4811.338623,-1258.350101,-11031.775171
957.277399,-2812.782580,2590.720797,-10801.946522
957.277718,-2590.720797,4367.215058,-11721.261119
957.278038,-2516.700203,3997.112087,-11797.870669
957.278358,-3478.967927,1258.350101,-11108.384721
957.278678,-2220.617826,-592.164754,-11108.384721
957.278998,-222.061783,370.102971,-10725.336972
957.279318,1850.514855,962.267725,-10955.165621
957.279638,1406.391290,1184.329507,-10572.117872
957.279958,-222.061783,74.020594,-10801.946522
957.280278,-1258.350101,-1184.329507,-10035.851024
957.280598,-2442.679609,0.000000,-9959.241474
957.280918,-1406.391290,814.226536,-9806.022374
957.281238,-1036.288319,1332.370696,-9806.022374
957.281558,-1184.329507,296.082377,-9116.536426
957.281878,1406.391290,-2960.823768,-9193.145976
957.282198,3108.864956,-4293.194464,-9039.926876
957.282518,4441.235652,-3775.050304,-9499.584175
957.282838,2664.741391,-518.144159,-9652.803275
957.283158,2442.679609,2516.700203,-9116.536426
957.283478,1850.514855,4441.235652,-9729.412825
957.283798,2516.700203,1110.308913,-9039.926876
957.284118,3404.947333,-1184.329507,-9116.536426
957.284438,2368.659014,-3330.926739,-9269.755526
957.284758,3552.988522,-3627.009116,-9039.926876
957.285078,4071.132681,-2220.617826,-10189.070123
957.285398,2146.597232,370.102971,-10112.460574
957.285718,0.000000,2368.659014,-10572.117872
957.286038,-888.247130,3034.844362,-9806.022374
957.286358,0.000000,2664.741391,-10189.070123
957.286678,2590.720797,2220.617826,-11568.042020
957.286998,1480.411884,1184.329507,-11184.994271
957.287318,2664.741391,-1406.391290,-10878.556072
957.287638,4219.173869,-2294.638420,-10189.070123
957.287958,2516.700203,-1406.391290,-11338.213370
957.288278,0.000000,814.226536,-11031.775171
957.288598,-1184.329507,3182.885551,-11414.822920
957.288918,-1776.494261,3775.050304,-10878.556072
957.289238,-888.247130,2738.761985,-10725.336972
957.289558,444.123565,962.267725,-10725.336972
957.289878,0.000000,-666.185348,-10112.460574
957.290198,-814.226536,-1480.411884,-9039.926876
957.290518,-592.164754,-2072.576638,-10035.851024
957.290838,-296.082377,-2664.741391,-9806.022374
957.291158,-1850.514855,-1332.370696,-9116.536426
957.291478,-1406.391290,962.267725,-9499.584175
957.291798,-962.267725,3701.029710,-9269.755526
957.292118,-518.144159,3849.070898,-10035.851024
957.292438,740.205942,1850.514855,-9806.022374
957.292758,-1554.432478,-1184.329507,-9576.193725
957.293078,-1702.473667,-2220.617826,-8810.098227
957.293398,-1110.308913,-2294.638420,-8886.707777
957.293718,-1036.288319,444.123565,-8886.707777
957.294038,518.144159,1554.432478,-9729.412825
957.294358,-370.102971,2368.659014,-9806.022374
957.294678,-1924.535449,3404.947333,-9499.584175
957.294998,-1184.329507,1850.514855,-10112.460574
957.295318,0.000000,-444.123565,-9806.022374
957.295638,0.000000,-962.267725,-10572.117872
957.295958,814.226536,-1554.432478,-9729.412825
957.296278,1480.411884,0.000000,-9806.022374
957.296598,3404.947333,1480.411884,-11568.042020
957.296918,1036.288319,3552.988522,-10572.117872
957.297238,814.226536,5033.400406,-11644.651570
957.297558,0.000000,4811.338623,-11568.042020
957.297878,1110.308913,4293.194464,-10801.946522
957.298198,1998.556043,962.267725,-10878.556072
957.298518,2590.720797,-2146.597232,-10035.851024
957.298838,2146.597232,-2886.803174,-9652.803275
957.299158,1998.556043,-1776.494261,-10648.727422
957.299478,2146.597232,-148.041188,-10112.460574
957.299798,2960.823768,888.247130,-10418.898773
957.300118,2886.803174,74.020594,-10035.851024
957.300438,3627.009116,0.000000,-9422.974625
957.300758,3108.864956,1036.288319,-9806.022374
957.301078,1924.535449,1628.453072,-9652.803275
957.301398,3478.967927,2738.761985,-9882.631924
957.301718,3404.947333,1998.556043,-11414.822920
957.302038,1184.329507,-2072.576638,-8580.269578
957.302358,666.185348,-5625.565159,-8427.050478
957.302678,-296.082377,-6735.874072,-7814.174080
957.302998,0.000000,-3478.967927,-9729.412825
957.303318,-814.226536,1184.329507,-9806.022374
957.303638,148.041188,4811.338623,-9959.241474
957.303958,-814.226536,3404.947333,-9959.241474
957.304277,-1184.329507,-962.267725,-9422.974625
957.304597,962.267725,-4959.379811,-8963.317327
957.304917,-518.144159,-4737.318029,-10035.851024
957.305237,-962.267725,-2146.597232,-9882.631924
957.305557,0.000000,1554.432478,-10265.679673
957.305877,1554.432478,2960.823768,-11338.213370
957.306197,518.144159,2146.597232,-10955.165621
957.306517,-3775.050304,1332.370696,-11568.042020
957.306837,-4737.318029,0.000000,-11184.994271
957.307157,-4219.173869,592.164754,-11261.603821
957.307477,-2590.720797,666.185348,-11414.822920
957.307797,-1776.494261,888.247130,-11108.384721
957.308117,-1332.370696,-222.061783,-10801.946522
957.308437,0.000000,-740.205942,-10342.289223
957.308757,666.185348,-370.102971,-10648.727422
957.309077,1998.556043,74.020594,-10189.070123
957.309397,1628.453072,1628.453072,-10265.679673
957.309717,1332.370696,1480.411884,-10342.289223
957.310037,1850.514855,1036.288319,-9499.584175
957.310357,1480.411884,-592.164754,-10648.727422
957.310677,1702.473667,-888.247130,-9806.022374
957.310997,222.061783,-2294.638420,-9422.974625
957.311317,666.185348,-1702.473667,-8656.879127
957.311637,-888.247130,-1184.329507,-9806.022374
957.311957,-1628.453072,-814.226536,-9193.145976
957.312277,-1850.514855,-518.144159,-8503.660028
957.312597,666.185348,-518.144159,-9039.926876
957.312917,1628.453072,-1924.535449,-9116.536426
957.313237,3108.864956,-1554.432478,-9039.926876
957.313557,4589.276840,-1258.350101,-9193.145976
957.313877,5033.400406,74.020594,-9499.584175
957.314197,4367.215058,2960.823768,-10265.679673
957.314517,2072.576638,3775.050304,-9806.022374
957.314837,666.185348,1924.535449,-9729.412825
957.315157,1850.514855,-814.226536,-11031.775171
957.315477,2294.638420,-1332.370696,-9806.022374
957.315797,888.247130,-222.061783,-11031.775171
957.316117,148.041188,1036.288319,-10725.336972
957.316437,1110.308913,1628.453072,-10418.898773
957.316757,2146.597232,2664.741391,-11568.042020
957.317077,0.000000,2590.720797,-11031.775171
957.317397,-1776.494261,1184.329507,-11568.042020
957.317717,-2146.597232,296.082377,-10572.117872
957.318037,0.000000,-148.041188,-10801.946522
957.318357,1036.288319,0.000000,-11261.603821
957.318677,222.061783,1480.411884,-10878.556072
957.318997,-444.123565,2590.720797,-10265.679673
957.319317,-1702.473667,5033.400406,-11108.384721
957.319637,-1332.370696,3923.091493,-10648.727422
957.319957,-1628.453072,1406.391290,-10342.289223
957.320277,-1184.329507,-2220.617826,-9959.241474
957.320597,-444.123565,-2886.803174,-8886.707777
957.320917,740.205942,-1480.411884,-10035.851024
957.321237,148.041188,0.000000,-9346.365076
957.321557,-518.144159,2368.659014,-9193.145976
957.321877,-370.102971,3552.988522,-10112.460574
957.322197,666.185348,2294.638420,-9576.193725
957.322529,1184.329507,2072.576638,-9882.631924
957.322849,74.020594,1406.391290,-9576.193725
957.323169,-740.205942,1702.473667,-8733.488677
957.323489,-1702.473667,1776.494261,-8503.660028
957.323809,0.000000,962.267725,-9576.193725
957.324129,2072.576638,-1554.432478,-9576.193725
957.324449,1480.411884,-2442.679609,-9193.145976
957.324769,370.102971,-2072.576638,-9959.241474
957.325089,592.164754,1924.535449,-9576.193725
957.325409,0.000000,4885.359217,-11031.775171
957.325729,0.000000,6883.915261,-10189.070123
957.326049,2072.576638,5699.585753,-10801.946522
957.326369,2886.803174,2220.617826,-10878.556072
957.326689,4737.318029,-1406.391290,-10495.508323
957.327009,5181.441594,-3404.947333,-9806.022374
957.327329,4737.318029,-2220.617826,-9729.412825
957.327649,3182.885551,666.185348,-10265.679673
957.327968,2146.597232,3478.967927,-10725.336972
957.328288,888.247130,4145.153275,-10801.946522
957.328608,74.020594,4293.194464,-10265.679673
957.328928,518.144159,148.041188,-10495.508323
957.329248,1184.329507,-2738.761985,-9499.584175
957.329568,3552.988522,-4071.132681,-9652.803275
957.329888,2220.617826,-4811.338623,-9269.755526
957.330208,1776.494261,-2368.659014,-9576.193725
957.330528,740.205942,0.000000,-10265.679673
957.330848,370.102971,1406.391290,-9959.241474
957.331168,296.082377,1998.556043,-9806.022374
957.331488,-1110.308913,888.247130,-9652.803275
957.331808,-370.102971,-666.185348,-9499.584175
957.332128,888.247130,-2516.700203,-9959.241474
957.332448,296.082377,-3627.009116,-9806.022374
957.332768,-1184.329507,-1628.453072,-9422.974625
957.333088,-2072.576638,-1332.370696,-10495.508323
957.333408,-1258.350101,444.123565,-9959.241474
957.333728,-962.267725,-222.061783,-10112.460574
957.334048,-1480.411884,-2146.597232,-9729.412825
957.334368,-1776.494261,-2590.720797,-9806.022374
957.334688,-3182.885551,-4071.132681,-9882.631924
957.335008,-1110.308913,-2368.659014,-10189.070123
957.335328,-222.061783,-814.226536,-10342.289223
957.335648,370.102971,0.000000,-11184.994271
957.335968,-1184.329507,518.144159,-11184.994271
957.336288,-1776.494261,-370.102971,-11031.775171
957.336608,-3256.906145,0.000000,-10495.508323
957.336928,-296.082377,1628.453072,-11108.384721
957.337248,1776.494261,2590.720797,-10955.165621
957.337568,1332.370696,1628.453072,-10955.165621
957.337888,74.020594,-740.205942,-10265.679673
957.338208,0.000000,-1702.473667,-10035.851024
957.338528,3404.947333,-1628.453072,-9882.631924
957.338848,2886.803174,-518.144159,-9499.584175
957.339168,0.000000,-444.123565,-10112.460574
957.339488,-2220.617826,-962.267725,-9652.803275
957.339808,-1850.514855,-1258.350101,-9729.412825
957.340128,-814.226536,0.000000,-9729.412825
957.340448,-1258.350101,1110.308913,-9729.412825
957.340768,444.123565,814.226536,-9806.022374
957.341088,2664.741391,-74.020594,-9806.022374
957.341408,4959.379811,-1554.432478,-9039.926876
957.341728,3923.091493,-740.205942,-9269.755526
957.342048,888.247130,-444.123565,-9806.022374
957.342368,1702.473667,1258.350101,-9576.193725
957.342688,1998.556043,1628.453072,-10189.070123
957.343008,1036.288319,2368.659014,-8963.317327
957.343328,-444.123565,296.082377,-9652.803275
957.343648,296.082377,-1258.350101,-9499.584175
957.343968,2664.741391,-296.082377,-9882.631924
957.344288,3849.070898,0.000000,-10878.556072
957.344608,3330.926739,2590.720797,-10878.556072
957.344928,-518.144159,3108.864956,-11568.042020
957.345248,-1036.288319,2960.823768,-9882.631924
957.345568,-1406.391290,2368.659014,-10189.070123
957.345888,1332.370696,2146.597232,-10801.946522
957.346208,2368.659014,2368.659014,-11031.775171
957.346528,592.164754,1258.350101,-11108.384721
957.346848,1258.350101,1850.514855,-10572.117872
957.347168,2442.679609,740.205942,-10648.727422
957.347488,2960.823768,2072.576638,-10418.898773
957.347808,-740.205942,1628.453072,-10495.508323
957.348128,-1036.288319,2294.638420,-9652.803275
957.348448,-370.102971,1998.556043,-10648.727422
957.348768,740.205942,592.164754,-9882.631924
957.349088,148.041188,2072.576638,-9499.584175
957.349408,-962.267725,2072.576638,-10035.851024
957.349728,222.061783,2294.638420,-9499.584175
957.350048,2590.720797,1480.411884,-9959.241474
957.350368,1776.494261,1776.494261,-9652.803275
957.350688,-814.226536,1850.514855,-10112.460574
957.351008,-370.102971,888.247130,-9422.974625
957.351328,-222.061783,888.247130,-9499.584175
957.351648,-1036.288319,2146.597232,-9039.926876
957.351968,-2590.720797,2960.823768,-9806.022374
957.352288,-666.185348,1776.494261,-9806.022374
957.352608,1998.556043,296.082377,-8886.707777
957.352928,1554.432478,0.000000,-11414.822920
957.353248,-962.267725,592.164754,-9729.412825
957.353568,-1258.350101,962.267725,-10418.898773
957.353888,0.000000,1998.556043,-10189.070123
957.354208,1184.329507,2220.617826,-9806.022374
957.354528,1036.288319,1924.535449,-11414.822920
957.354847,222.061783,370.102971,-9806.022374
957.355167,740.205942,74.020594,-10035.851024
957.355487,1406.391290,296.082377,-10725.336972
957.355807,1406.391290,888.247130,-9116.536426
957.356127,0.000000,296.082377,-9576.193725
957.356447,-518.144159,-888.247130,-10342.289223
957.356767,444.123565,-740.205942,-9652.803275
957.357087,-148.041188,-962.267725,-10035.851024
957.357407,74.020594,-370.102971,-9806.022374
957.357727,148.041188,666.185348,-10342.289223
957.358047,2146.597232,1110.308913,-10418.898773
957.358367,3627.009116,814.226536,-10112.460574
957.358687,2294.638420,-518.144159,-10189.070123
957.359007,1258.350101,-814.226536,-9882.631924
957.359327,370.102971,-2960.823768,-10265.679673
957.359647,666.185348,-2368.659014,-10189.070123
957.359967,2590.720797,148.041188,-9959.241474
957.360287,2294.638420,1258.350101,-10189.070123
957.360607,1702.473667,1406.391290,-10572.117872
957.360927,592.164754,-1702.473667,-10035.851024
957.361247,-444.123565,-3034.844362,-10035.851024
957.361567,-1184.329507,-3552.988522,-10342.289223
957.361887,-518.144159,-3775.050304,-10265.679673
957.362207,1110.308913,-2072.576638,-10265.679673
957.362527,0.000000,148.041188,-10035.851024
957.362847,-1776.494261,1924.535449,-10572.117872
957.363167,-1850.514855,1480.411884,-10495.508323
957.363487,-222.061783,1036.288319,-10035.851024
957.363807,518.144159,-1332.370696,-10189.070123
957.364127,1554.432478,-3552.988522,-10035.851024
957.364447,1184.329507,-5033.400406,-9652.803275
957.364767,0.000000,-3552.988522,-10418.898773
957.365087,-1332.370696,-1184.329507,-10035.851024
957.365407,-2146.597232,2368.659014,-10495.508323
957.365727,-1628.453072,3182.885551,-11568.042020
957.366047,-518.144159,2590.720797,-10265.679673
957.366367,444.123565,1480.411884,-10495.508323
957.366687,1184.329507,-814.226536,-11031.775171
957.367007,444.123565,-1702.473667,-9729.412825
957.367327,-962.267725,-1998.556043,-10725.336972
957.367647,-1628.453072,-814.226536,-9729.412825
957.367967,-1702.473667,-296.082377,-9729.412825
957.368287,666.185348,-296.082377,-10342.289223
957.368607,2886.803174,74.020594,-9576.193725
957.368927,2812.782580,444.123565,-10418.898773
957.369247,1998.556043,2516.700203,-10342.289223
957.369567,2368.659014,3552.988522,-10112.460574
957.369887,1998.556043,3182.885551,-10265.679673
957.370207,0.000000,814.226536,-9652.803275
957.370527,-370.102971,-1332.370696,-8810.098227
957.370847,-444.123565,-1998.556043,-9499.584175
957.371167,1776.494261,-1184.329507,-9729.412825
957.371487,1702.473667,592.164754,-9806.022374
957.371807,2220.617826,2960.823768,-9576.193725
957.372127,1850.514855,5255.462188,-9652.803275
957.372447,2738.761985,4663.297435,-10265.679673
957.372767,3330.926739,2664.741391,-10342.289223
957.373087,1628.453072,-222.061783,-9806.022374
957.373407,888.247130,-2738.761985,-9269.755526
957.373727,1480.411884,-1776.494261,-9269.755526
957.374047,1850.514855,740.205942,-9729.412825
957.374367,-370.102971,3478.967927,-10342.289223
957.374687,-296.082377,3256.906145,-10495.508323
957.375007,222.061783,3478.967927,-10112.460574
957.375327,1110.308913,3182.885551,-10801.946522
957.375647,-962.267725,1554.432478,-10648.727422
957.375967,-2072.576638,-370.102971,-9959.241474
957.376287,-1776.494261,-1110.308913,-9806.022374
957.376607,-1406.391290,-962.267725,-10035.851024
957.376927,-1184.329507,148.041188,-9959.241474
957.377247,-1184.329507,1184.329507,-10189.070123
957.377567,-518.144159,2664.741391,-10189.070123
957.377887,-888.247130,3923.091493,-10495.508323
957.378207,222.061783,3256.906145,-10648.727422
957.378527,962.267725,1036.288319,-9882.631924
957.378847,444.123565,-1110.308913,-10112.460574
957.379167,-1184.329507,-814.226536,-9346.365076
957.379487,-1998.556043,-222.061783,-10265.679673
957.379807,1184.329507,814.226536,-9806.022374
957.380127,888.247130,1628.453072,-9882.631924
957.380447,-148.041188,296.082377,-10342.289223
957.380767,-814.226536,-148.041188,-9729.412825
957.381087,-666.185348,518.144159,-9882.631924
957.381407,-2220.617826,814.226536,-9269.755526
957.381726,-1776.494261,1332.370696,-9882.631924
957.382046,1332.370696,518.144159,-10725.336972
957.382366,2368.659014,-2368.659014,-10342.289223
957.382686,3108.864956,-1998.556043,-9269.755526
957.383006,1406.391290,-592.164754,-10495.508323
957.383326,1702.473667,740.205942,-10035.851024
957.383646,-222.061783,2886.803174,-10495.508323
957.383966,666.185348,3701.029710,-10572.117872
957.384286,1850.514855,2368.659014,-10035.851024
957.384606,2590.720797,-1110.308913,-10495.508323
957.384926,3108.864956,-3404.947333,-9806.022374
957.385246,2886.803174,-4367.215058,-10495.508323
957.385566,2738.761985,-3923.091493,-9729.412825
957.385886,1258.350101,74.020594,-9269.755526
957.386206,1776.494261,1850.514855,-10418.898773
957.386526,1850.514855,1554.432478,-10112.460574
957.386846,2220.617826,1036.288319,-10648.727422
957.387166,1554.432478,-148.041188,-10035.851024
957.387486,2664.741391,-2516.700203,-9729.412825
957.387806,4071.132681,-3182.885551,-9806.022374
957.388126,3775.050304,-4145.153275,-10495.508323
957.388446,3478.967927,-3034.844362,-9882.631924
957.388766,-222.061783,1184.329507,-10418.898773
957.389086,-2590.720797,2886.803174,-10648.727422
957.389406,-2664.741391,2368.659014,-9499.584175
957.389726,-962.267725,-296.082377,-10418.898773
957.390046,-1110.308913,-3701.029710,-9422.974625
957.390366,1332.370696,-5329.482782,-9652.803275
957.390686,3256.906145,-4367.215058,-10878.556072
957.391006,2516.700203,-740.205942,-10112.460574
957.391326,-444.123565,3552.988522,-9959.241474
957.391646,-2442.679609,6957.935855,-10112.460574
957.391966,-2664.741391,6069.688724,-10265.679673
957.392286,-2220.617826,2664.741391,-10342.289223
957.392606,-888.247130,-3182.885551,-10572.117872
957.392926,518.144159,-5773.606348,-9039.926876
957.393246,370.102971,-5255.462188,-10112.460574
957.393566,-1998.556043,-1184.329507,-9652.803275
957.393886,-4663.297435,814.226536,-9959.241474
957.394206,-1850.514855,1702.473667,-10495.508323
957.394526,592.164754,3256.906145,-10801.946522
957.394846,-666.185348,3775.050304,-10725.336972
957.395166,-666.185348,3627.009116,-10495.508323
957.395486,-518.144159,1702.473667,-10342.289223
957.395806,444.123565,-740.205942,-10035.851024
957.396126,592.164754,-3330.926739,-10035.851024
957.396446,-740.205942,-3701.029710,-9193.145976
957.396766,-1480.411884,-962.267725,-10035.851024
957.397086,-592.164754,1628.453072,-10035.851024
957.397406,1702.473667,4441.235652,-11031.775171
957.397726,1776.494261,5995.668130,-11261.603821
957.398046,-962.267725,3182.885551,-10035.851024
957.398366,-1036.288319,-1184.329507,-9346.365076
957.398686,888.247130,-1702.473667,-9652.803275
957.399006,2590.720797,-2072.576638,-10035.851024
957.399326,2812.782580,-1554.432478,-9576.193725
957.399646,2368.659014,1036.288319,-9039.926876
957.399966,2442.679609,1628.453072,-8503.660028
957.400286,5181.441594,2368.659014,-9576.193725
957.400606,3330.926739,3701.029710,-10265.679673
957.400926,1258.350101,3108.864956,-10495.508323
957.401246,2368.659014,1480.411884,-9499.584175
957.401566,4663.297435,-296.082377,-9193.145976
957.401886,2146.597232,-2664.741391,-10495.508323
957.402206,1332.370696,-1036.288319,-10035.851024
957.402526,-1776.494261,1776.494261,-9959.241474
957.402846,-888.247130,2812.782580,-9806.022374
957.403166,2516.700203,2516.700203,-9959.241474
957.403486,2590.720797,1332.370696,-10955.165621
957.403806,1332.370696,-592.164754,-9652.803275
957.404126,1110.308913,-1628.453072,-10342.289223
957.404446,1406.391290,-888.247130,-9806.022374
957.404766,370.102971,592.164754,-10265.679673
957.405086,0.000000,2072.576638,-11031.775171
957.405406,-592.164754,2738.761985,-10648.727422
957.405726,-1184.329507,666.185348,-9806.022374
957.406046,-962.267725,222.061783,-10572.117872
957.406366,148.041188,-1110.308913,-10112.460574
957.406686,-370.102971,-1480.411884,-10418.898773
957.407006,1184.329507,74.020594,-10265.679673
957.407326,-370.102971,1110.308913,-9882.631924
957.407646,-3849.070898,444.123565,-10572.117872
957.407966,-3478.967927,888.247130,-10189.070123
957.408285,-592.164754,2072.576638,-10572.117872
957.408605,74.020594,1628.453072,-10112.460574
957.408925,1332.370696,2368.659014,-9959.241474
957.409245,296.082377,-148.041188,-10189.070123
957.409565,-2294.638420,-2516.700203,-9652.803275
957.409885,-1554.432478,-2886.803174,-9269.755526
957.410205,-444.123565,-1998.556043,-9422.974625
957.410525,148.041188,74.020594,-9193.145976
957.410845,-222.061783,1036.288319,-10112.460574
957.411165,1406.391290,2368.659014,-10418.898773
957.411485,1184.329507,2442.679609,-10265.679673
957.411805,296.082377,962.267725,-10495.508323
957.412125,444.123565,-592.164754,-9422.974625
957.412445,-592.164754,-2294.638420,-9806.022374
957.412765,74.020594,-1184.329507,-9806.022374
957.413085,296.082377,-148.041188,-9576.193725
957.413405,74.020594,222.061783,-9499.584175
957.413725,2590.720797,148.041188,-10265.679673
957.414045,2368.659014,0.000000,-10112.460574
957.414365,2368.659014,148.041188,-10035.851024
957.414685,1998.556043,1110.308913,-10342.289223
957.415005,1628.453072,0.000000,-10189.070123
957.415325,2442.679609,-592.164754,-10495.508323
957.415645,0.000000,74.020594,-9729.412825
957.415965,-1924.535449,-2146.597232,-9652.803275
957.416285,3330.926739,-1776.494261,-9959.241474
957.416605,4663.297435,-962.267725,-11108.384721
957.416925,1480.411884,1036.288319,-10725.336972
957.417245,592.164754,3478.967927,-10495.508323
957.417565,1184.329507,4071.132681,-10648.727422
957.417885,666.185348,2516.700203,-10955.165621
957.418205,444.123565,-1406.391290,-10035.851024
957.418525,-888.247130,-4219.173869,-10035.851024
957.418845,1184.329507,-4145.153275,-9882.631924
957.419165,3775.050304,-1850.514855,-9959.241474
957.419485,2664.741391,1184.329507,-9729.412825
957.419805,0.000000,3108.864956,-10572.117872
957.420125,2294.638420,2960.823768,-9576.193725
957.420445,3775.050304,3997.112087,-10265.679673
957.420765,1110.308913,1850.514855,-9806.022374
957.421085,0.000000,444.123565,-9269.755526
957.421405,-1776.494261,-2220.617826,-9269.755526
957.421725,-1480.411884,-3775.050304,-8963.317327
957.422045,-2664.741391,-4367.215058,-8656.879127
957.422365,-3997.112087,-3108.864956,-8427.050478
957.422685,-1110.308913,518.144159,-10418.898773
957.423005,74.020594,1998.556043,-10112.460574
957.423325,592.164754,3034.844362,-10725.336972
957.423645,2590.720797,3552.988522,-10648.727422
957.423965,-592.164754,1184.329507,-9806.022374
957.424284,-1850.514855,1554.432478,-10648.727422
957.424604,-1480.411884,-444.123565,-9882.631924
957.424924,-1184.329507,-1110.308913,-10265.679673
957.425244,1480.411884,0.000000,-10112.460574
957.425564,1480.411884,296.082377,-10418.898773
957.425884,814.226536,1110.308913,-10572.117872
957.426204,-740.205942,962.267725,-10495.508323
957.426524,-2368.659014,1998.556043,-10342.289223
957.426844,-1036.288319,1850.514855,-10495.508323
957.427164,-1702.473667,2664.741391,-10878.556072
957.427484,-1850.514855,1628.453072,-10189.070123
957.427804,74.020594,1110.308913,-10495.508323
957.428124,1406.391290,-666.185348,-10112.460574
957.428444,148.041188,-2294.638420,-11338.213370
957.428764,296.082377,-962.267725,-9806.022374
957.429084,1332.370696,296.082377,-9882.631924
957.429403,2072.576638,370.102971,-9729.412825
957.429723,3849.070898,2146.597232,-9806.022374
957.430043,2442.679609,2738.761985,-10648.727422
957.430363,296.082377,2516.700203,-9499.584175
957.430683,2516.700203,1702.473667,-10112.460574
957.431003,3108.864956,1036.288319,-9729.412825
957.431323,370.102971,-1332.370696,-10112.460574
957.431643,-3330.926739,-3627.009116,-8733.488677
957.431963,-2368.659014,-4219.173869,-8580.269578
957.432283,666.185348,-4441.235652,-9576.193725
957.432603,2368.659014,-1110.308913,-9193.145976
957.432923,3034.844362,888.247130,-9959.241474
957.433243,4885.359217,2812.782580,-9806.022374
957.433563,3552.988522,2516.700203,-10418.898773
957.433883,1998.556043,1406.391290,-10342.289223
957.434203,1258.350101,0.000000,-9193.145976
957.434522,1258.350101,296.082377,-10878.556072
957.434842,740.205942,814.226536,-10648.727422
957.435162,0.000000,1480.411884,-10801.946522
957.435482,-1998.556043,962.267725,-10342.289223
957.435802,-592.164754,-740.205942,-10878.556072
957.436122,1110.308913,-814.226536,-9576.193725
957.436442,2368.659014,-1036.288319,-10495.508323
957.436762,3552.988522,-148.041188,-10648.727422
957.437082,1332.370696,1406.391290,-10035.851024
957.437402,444.123565,1850.514855,-10801.946522
957.437722,740.205942,2146.597232,-9882.631924
957.438042,1036.288319,2368.659014,-10495.508323
957.438362,888.247130,2886.803174,-11491.432470
957.438682,814.226536,-1184.329507,-10418.898773
957.439002,1554.432478,-148.041188,-10189.070123
957.439322,592.164754,-296.082377,-10878.556072
957.439641,-1554.432478,-1184.329507,-9499.584175
957.439961,-3923.091493,-444.123565,-9116.536426
957.440281,-4441.235652,-370.102971,-10035.851024
957.440601,-2516.700203,-962.267725,-8963.317327
957.440921,-666.185348,-666.185348,-9499.584175
957.441241,1628.453072,296.082377,-9729.412825
957.441561,2442.679609,1258.350101,-10035.851024
957.441881,1998.556043,2294.638420,-10495.508323
957.442201,518.144159,1554.432478,-10265.679673
957.442521,148.041188,814.226536,-9422.974625
957.442841,-740.205942,370.102971,-11721.261119
957.443161,-1702.473667,0.000000,-8886.707777
957.443481,-1480.411884,-666.185348,-9729.412825
957.443801,1850.514855,-2516.700203,-9806.022374
957.444121,2590.720797,-1998.556043,-8886.707777
957.444441,740.205942,-1036.288319,-11644.651570
957.444760,-1036.288319,666.185348,-9269.755526
957.445080,-1702.473667,3701.029710,-10418.898773
957.445400,740.205942,5181.441594,-11184.994271
957.445720,2960.823768,1406.391290,-10189.070123
957.446040,2960.823768,-222.061783,-10342.289223
957.446360,2738.761985,-2146.597232,-10801.946522
957.446680,1258.350101,-2960.823768,-10342.289223
957.447000,1480.411884,148.041188,-12947.013916
957.447320,-592.164754,1406.391290,-10495.508323
957.447640,-666.185348,4219.173869,-10418.898773
957.447960,0.000000,2886.803174,-11261.603821
957.448280,-1110.308913,148.041188,-9806.022374
957.448600,-2886.803174,-3034.844362,-10035.851024
957.448920,-814.226536,-4219.173869,-9269.755526
957.449240,2812.782580,-1776.494261,-9116.536426
957.449560,3849.070898,888.247130,-10955.165621
957.449879,2738.761985,3034.844362,-9193.145976
957.450199,1554.432478,3923.091493,-9729.412825
957.450519,296.082377,2812.782580,-9959.241474
957.450839,740.205942,888.247130,-9652.803275
957.451159,0.000000,-2368.659014,-8503.660028
957.451479,-740.205942,-5329.482782,-8886.707777
957.451799,222.061783,-4441.235652,-8197.221829
957.452119,-1332.370696,-3182.885551,-9499.584175
957.452439,-1628.453072,-888.247130,-8120.612279
957.452759,0.000000,1998.556043,-8963.317327
957.453079,740.205942,1850.514855,-9959.241474
957.453399,5107.421000,3108.864956,-10418.898773
957.453719,4441.235652,1184.329507,-11184.994271
957.454039,3256.906145,74.020594,-9576.193725
957.454359,0.000000,222.061783,-9959.241474
957.454679,962.267725,740.205942,-11338.213370
957.454998,1332.370696,2516.700203,-10342.289223
957.455318,148.041188,2072.576638,-10801.946522
957.455638,-740.205942,962.267725,-12180.918418
957.455958,0.000000,-740.205942,-10878.556072
957.456278,370.102971,-296.082377,-10648.727422
957.456598,-888.247130,592.164754,-10648.727422
957.456918,666.185348,2590.720797,-10955.165621
957.457238,2146.597232,3478.967927,-11414.822920
957.457558,3849.070898,2368.659014,-10572.117872
957.457878,3034.844362,1406.391290,-10495.508323
957.458198,1702.473667,0.000000,-10572.117872
957.458518,1998.556043,2220.617826,-10572.117872
957.458838,0.000000,1184.329507,-10418.898773
957.459158,-1258.350101,1332.370696,-9806.022374
957.459478,-2368.659014,-1184.329507,-9269.755526
957.459798,0.000000,-962.267725,-10801.946522
957.460117,-2442.679609,-740.205942,-9269.755526
957.460437,-1332.370696,-1702.473667,-9422.974625
957.460757,814.226536,148.041188,-9039.926876
957.461077,0.000000,518.144159,-10189.070123
957.461397,1406.391290,-740.205942,-9346.365076
957.461717,1406.391290,-1776.494261,-9576.193725
957.462037,-888.247130,-1480.411884,-9039.926876
957.462357,-296.082377,296.082377,-9422.974625
957.462677,0.000000,0.000000,-9576.193725
957.462997,0.000000,0.000000,-10189.070123
957.463317,-3404.947333,-1776.494261,-8656.879127
957.463637,-3034.844362,-2220.617826,-9959.241474
957.463957,-1406.391290,-3627.009116,-9193.145976
957.464277,888.247130,0.000000,-10725.336972
957.464597,-962.267725,1406.391290,-10418.898773
957.464917,2368.659014,3108.864956,-11338.213370
957.465236,1332.370696,3330.926739,-10189.070123
957.465556,1258.350101,1850.514855,-10265.679673
957.465876,-370.102971,518.144159,-9806.022374
957.466196,-1554.432478,-1406.391290,-10648.727422
957.466516,-222.061783,-1480.411884,-10572.117872
957.466836,1036.288319,148.041188,-10342.289223
957.467156,0.000000,666.185348,-11031.775171
957.467476,444.123565,-222.061783,-10035.851024
957.467796,0.000000,2072.576638,-10035.851024
957.468116,740.205942,4663.297435,-11261.603821
957.468436,2664.741391,3108.864956,-10112.460574
957.468756,4293.194464,592.164754,-10342.289223
957.469076,4959.379811,-2590.720797,-9959.241474
957.469396,4737.318029,-2812.782580,-9499.584175
957.469716,3404.947333,-814.226536,-10955.165621
957.470036,1924.535449,1628.453072,-10035.851024
957.470355,-962.267725,3552.988522,-9346.365076
957.470675,-518.144159,2220.617826,-9882.631924
957.470995,1258.350101,-370.102971,-9193.145976
957.471315,4219.173869,-4367.215058,-9422.974625
957.471635,1406.391290,-3775.050304,-8886.707777
957.471955,1480.411884,-1406.391290,-9959.241474
957.472275,1850.514855,518.144159,-9499.584175
957.472595,1850.514855,2886.803174,-9806.022374
957.472915,-222.061783,2664.741391,-9652.803275
957.473235,-814.226536,2220.617826,-10342.289223
957.473555,1036.288319,3330.926739,-10189.070123
957.473875,3997.112087,1406.391290,-10878.556072
957.474195,4811.338623,1036.288319,-10878.556072
957.474515,2368.659014,-2146.597232,-10725.336972
957.474835,-1702.473667,-3997.112087,-9806.022374
957.475155,-2368.659014,-3552.988522,-9806.022374
957.475474,-3182.885551,-888.247130,-10112.460574
957.475794,-1924.535449,3330.926739,-10878.556072
957.476114,148.041188,4737.318029,-10955.165621
957.476434,2368.659014,4737.318029,-11491.432470
957.476754,3627.009116,2812.782580,-11261.603821
957.477074,666.185348,740.205942,-11031.775171
957.477394,-2146.597232,0.000000,-9882.631924
957.477714,-1554.432478,0.000000,-10035.851024
957.478034,0.000000,0.000000,-9959.241474
957.478354,0.000000,74.020594,-10801.946522
957.478674,-3923.091493,-1702.473667,-9193.145976
957.478994,-4367.215058,-1184.329507,-9116.536426
957.479314,-4145.153275,-1184.329507,-8733.488677
957.479634,444.123565,2664.741391,-9652.803275
957.479954,-740.205942,2590.720797,-9346.365076
957.480274,962.267725,888.247130,-9346.365076
957.480593,740.205942,-1702.473667,-9193.145976
957.480913,0.000000,-3256.906145,-9882.631924
957.481233,-1110.308913,-1850.514855,-8427.050478
957.481553,-2664.741391,-1110.308913,-9806.022374
957.481873,-1850.514855,1258.350101,-9269.755526
957.482193,-814.226536,2664.741391,-9806.022374
957.482513,1554.432478,1924.535449,-10035.851024
957.482833,1702.473667,740.205942,-10648.727422
957.483153,2442.679609,-2664.741391,-10342.289223
957.483473,3404.947333,-592.164754,-10572.117872
957.483793,2738.761985,2516.700203,-10495.508323
957.484113,962.267725,2738.761985,-10495.508323
957.484433,-814.226536,1332.370696,-10265.679673
957.484753,-2072.576638,-592.164754,-10878.556072
957.485073,1998.556043,-1850.514855,-9959.241474
957.485393,5477.523971,592.164754,-10189.070123
957.485713,5403.503377,1332.370696,-11031.775171
957.486032,4219.173869,3627.009116,-10495.508323
957.486352,2146.597232,2812.782580,-10801.946522
957.486672,1480.411884,518.144159,-9959.241474
957.486992,1776.494261,-2294.638420,-9499.584175
957.487312,2442.679609,-3775.050304,-10265.679673
957.487632,2294.638420,-296.082377,-9806.022374
957.487952,3256.906145,2442.679609,-10955.165621
957.488272,2072.576638,3034.844362,-9269.755526
957.488592,3034.844362,3627.009116,-10648.727422
957.488912,1406.391290,962.267725,-10112.460574
957.489232,814.226536,-1258.350101,-9806.022374
957.489552,-814.226536,-1850.514855,-9193.145976
957.489872,-2812.782580,-1702.473667,-9806.022374
957.490192,-888.247130,-2886.803174,-9269.755526
957.490512,-666.185348,-2146.597232,-10189.070123
957.490832,-1036.288319,-1924.535449,-9499.584175
957.491151,148.041188,1924.535449,-10265.679673
957.491471,666.185348,3849.070898,-10725.336972
957.491791,1554.432478,3997.112087,-10112.460574
957.492111,1036.288319,2590.720797,-10648.727422
957.492431,-1924.535449,0.000000,-10265.679673
957.492751,-3256.906145,-3701.029710,-9806.022374
957.493071,-2590.720797,-3330.926739,-9806.022374
957.493391,-1998.556043,-1850.514855,-9882.631924
957.493711,-2812.782580,-370.102971,-9652.803275
957.494031,-3034.844362,1332.370696,-9193.145976
957.494351,-4219.173869,2442.679609,-10495.508323
957.494671,444.123565,3034.844362,-9959.241474
957.494991,1406.391290,1036.288319,-11568.042020
957.495311,2072.576638,518.144159,-9499.584175
957.495631,-518.144159,-1776.494261,-9959.241474
957.495951,518.144159,-1776.494261,-9882.631924
957.496270,666.185348,444.123565,-10112.460574
957.496590,0.000000,2368.659014,-10801.946522
957.496910,740.205942,3478.967927,-10725.336972
957.497230,2368.659014,3849.070898,-11797.870669
957.497550,-888.247130,296.082377,-9499.584175
957.497870,-2294.638420,-1850.514855,-9499.584175
957.498190,-1776.494261,0.000000,-9729.412825
957.498510,1998.556043,-2516.700203,-9422.974625
957.498830,3182.885551,-2886.803174,-10265.679673
957.499150,2590.720797,0.000000,-9652.803275
957.499470,222.061783,3256.906145,-10112.460574
957.499790,2442.679609,3478.967927,-9806.022374
957.500110,2886.803174,3997.112087,-10342.289223
957.500430,2368.659014,3034.844362,-11031.775171
957.500750,2960.823768,1184.329507,-10189.070123
957.501070,7402.059420,0.000000,-10418.898773
957.501389,5921.647536,-1850.514855,-10035.851024
957.501709,370.102971,-888.247130,-9652.803275
957.502029,-2738.761985,740.205942,-9882.631924
957.502349,-518.144159,1110.308913,-9652.803275
957.502669,2220.617826,666.185348,-9729.412825
957.502989,3923.091493,1258.350101,-10035.851024
957.503309,2516.700203,1480.411884,-10112.460574
957.503629,2516.700203,666.185348,-10342.289223
957.503949,5033.400406,1258.350101,-9652.803275
957.504269,3923.091493,592.164754,-9959.241474
957.504589,1628.453072,1702.473667,-10342.289223
957.504909,-2664.741391,-814.226536,-9652.803275
957.505229,-3552.988522,74.020594,-10112.460574
957.505549,-5921.647536,1332.370696,-9959.241474
957.505869,-2442.679609,-592.164754,-10189.070123
957.506189,-2146.597232,-1036.288319,-9882.631924
957.506508,0.000000,-3108.864956,-9576.193725
957.506828,888.247130,-2220.617826,-10801.946522
957.507148,-148.041188,444.123565,-10189.070123
957.507468,-296.082377,3034.844362,-10418.898773
957.507788,-1702.473667,3478.967927,-10418.898773
957.508108,-2072.576638,2516.700203,-9882.631924
957.508428,1628.453072,-814.226536,-10418.898773
957.508748,1776.494261,-3256.906145,-9422.974625
957.509068,-2738.761985,-4219.173869,-9806.022374
957.509388,-5699.585753,-2590.720797,-9806.022374
957.509708,-3775.050304,-592.164754,-8963.317327
957.510028,-962.267725,-1480.411884,-9652.803275
957.510348,814.226536,-592.164754,-9806.022374
957.510668,-1036.288319,-666.185348,-10495.508323
957.510988,-2738.761985,-1110.308913,-10955.165621
957.511308,-592.164754,666.185348,-9729.412825
957.511627,3108.864956,740.205942,-10418.898773
957.511947,4737.318029,962.267725,-10878.556072
957.512267,2812.782580,444.123565,-10495.508323
957.512587,-148.041188,1110.308913,-11261.603821
957.512907,-296.082377,2738.761985,-10189.070123
957.513227,1998.556043,3108.864956,-11414.822920
957.513547,1554.432478,370.102971,-10342.289223
957.513867,666.185348,-962.267725,-9806.022374
957.514187,-888.247130,-2664.741391,-9959.241474
957.514507,74.020594,-1258.350101,-9806.022374
957.514827,1554.432478,-1110.308913,-9959.241474
957.515147,2368.659014,296.082377,-10265.679673
957.515467,3627.009116,2442.679609,-10035.851024
957.515787,6069.688724,2664.741391,-11108.384721
957.516107,4219.173869,1998.556043,-9882.631924
957.516427,1036.288319,1406.391290,-10342.289223
957.516746,-518.144159,888.247130,-9576.193725
957.517066,2886.803174,1036.288319,-10035.851024
957.517386,4589.276840,148.041188,-10035.851024
957.517706,3701.029710,296.082377,-9729.412825
957.518026,370.102971,592.164754,-9806.022374
957.518346,0.000000,1776.494261,-9806.022374
957.518666,1036.288319,592.164754,-9882.631924
957.518986,740.205942,-518.144159,-9422.974625
957.519306,-1924.535449,-1554.432478,-8963.317327
957.519626,-1184.329507,-148.041188,-9116.536426
957.519946,-666.185348,296.082377,-9959.241474
957.520266,-1184.329507,-296.082377,-9806.022374
957.520586,-2738.761985,518.144159,-9269.755526
957.520906,-2220.617826,962.267725,-10495.508323
957.521226,1258.350101,1036.288319,-9422.974625
957.521546,2294.638420,1850.514855,-10801.946522
957.521865,0.000000,2368.659014,-10495.508323
957.522185,-2072.576638,2072.576638,-10725.336972
957.522505,-1258.350101,-1480.411884,-10342.289223
957.522825,74.020594,-1110.308913,-9959.241474
957.523145,0.000000,370.102971,-10418.898773
957.523465,-1332.370696,1110.308913,-10265.679673
957.523785,-1554.432478,2738.761985,-10265.679673
957.524105,-222.061783,2664.741391,-10265.679673
957.524425,1406.391290,1628.453072,-10801.946522
957.524745,0.000000,74.020594,-10418.898773
957.525064,-2442.679609,-2220.617826,-10035.851024
957.525384,-1998.556043,-1258.350101,-9729.412825
957.525704,296.082377,518.144159,-10112.460574
957.526024,518.144159,1702.473667,-9959.241474
957.526344,-518.144159,1850.514855,-10265.679673
957.526663,814.226536,1480.411884,-9576.193725
957.526983,3775.050304,-148.041188,-9806.022374
957.527303,5107.421000,296.082377,-10725.336972
957.527623,2294.638420,1184.329507,-9806.022374
957.527943,1406.391290,1036.288319,-10035.851024
957.528262,1850.514855,1332.370696,-9806.022374
957.528582,2516.700203,222.061783,-9882.631924
957.528902,1036.288319,666.185348,-10112.460574
957.529222,814.226536,1776.494261,-9422.974625
957.529542,1554.432478,1036.288319,-9806.022374
957.529861,2368.659014,0.000000,-9193.145976
957.530181,2294.638420,-1850.514855,-9882.631924
957.530501,2664.741391,-2738.761985,-9959.241474
957.530821,1850.514855,-1776.494261,-8886.707777
957.531141,1702.473667,148.041188,-8963.317327
957.531461,2072.576638,3256.906145,-10035.851024
957.531780,1924.535449,3478.967927,-10189.070123
957.532100,-444.123565,2294.638420,-10648.727422
957.532420,-814.226536,-222.061783,-9806.022374
957.532740,-296.082377,-2886.803174,-9652.803275
957.533060,-370.102971,-3627.009116,-10112.460574
957.533379,1036.288319,-2516.700203,-10189.070123
957.533699,0.000000,-148.041188,-10648.727422
957.534019,-518.144159,2368.659014,-11261.603821
957.534339,-1406.391290,1924.535449,-9882.631924
957.534659,-814.226536,2590.720797,-10725.336972
957.534978,-518.144159,1776.494261,-10725.336972
957.535298,-1184.329507,370.102971,-10495.508323
957.535618,-1480.411884,-1776.494261,-10189.070123
957.535938,296.082377,-3034.844362,-9806.022374
957.536258,296.082377,-3182.885551,-10495.508323
957.536577,-1924.535449,-1998.556043,-9959.241474
957.536897,-2738.761985,296.082377,-9652.803275
957.537217,-2812.782580,2368.659014,-10725.336972
957.537537,-296.082377,1332.370696,-11108.384721
957.537857,-222.061783,740.205942,-10189.070123
957.538177,-2146.597232,-592.164754,-10112.460574
957.538496,-1036.288319,-1702.473667,-9269.755526
957.538816,1628.453072,-2442.679609,-10112.460574
957.539136,2812.782580,-1258.350101,-9729.412825
957.539456,2812.782580,296.082377,-9422.974625
957.539776,-370.102971,740.205942,-9193.145976
957.540095,1480.411884,-666.185348,-9959.241474
957.540415,2368.659014,-1110.308913,-10189.070123
957.540735,518.144159,-1406.391290,-9576.193725
957.541055,-1998.556043,-2738.761985,-9882.631924
957.541375,-1702.473667,-370.102971,-8656.879127
957.541694,-1554.432478,518.144159,-10418.898773
957.542014,0.000000,592.164754,-11184.994271
957.542334,592.164754,444.123565,-9193.145976
957.542654,3256.906145,1998.556043,-11568.042020
957.542974,4959.379811,2516.700203,-10418.898773
957.543293,3552.988522,2146.597232,-10725.336972
957.543613,1998.556043,2738.761985,-10955.165621
957.543933,3108.864956,1258.350101,-8733.488677
957.544253,3478.967927,814.226536,-9806.022374
957.544573,4441.235652,222.061783,-11261.603821
957.544893,3182.885551,-814.226536,-10801.946522
957.545212,370.102971,-518.144159,-10112.460574
957.545532,-148.041188,962.267725,-9959.241474
957.545852,-1184.329507,3627.009116,-10342.289223
957.546172,-444.123565,3330.926739,-10955.165621
957.546492,1258.350101,1702.473667,-9806.022374
957.546811,3182.885551,0.000000,-10342.289223
957.547131,4737.318029,-1998.556043,-9882.631924
957.547451,1332.370696,-1258.350101,-10112.460574
957.547771,74.020594,0.000000,-10342.289223
957.548091,-1406.391290,1924.535449,-9806.022374
957.548410,0.000000,3256.906145,-10495.508323
957.548730,-1110.308913,3627.009116,-9576.193725
957.549050,-1998.556043,1850.514855,-9576.193725
957.549370,-518.144159,0.000000,-9806.022374
957.549690,0.000000,-2886.803174,-9959.241474
957.550009,962.267725,-1924.535449,-9806.022374
957.550329,-2072.576638,0.000000,-9193.145976
957.550649,-3627.009116,3182.885551,-9116.536426
957.550969,-3627.009116,3849.070898,-9806.022374
957.551289,-2072.576638,2368.659014,-9652.803275
957.551608,-1036.288319,-518.144159,-9193.145976
957.551928,0.000000,-2812.782580,-9193.145976
957.552248,148.041188,-1850.514855,-10112.460574
957.552568,-1332.370696,222.061783,-10035.851024
957.552888,-1332.370696,2368.659014,-10189.070123
957.553208,-2072.576638,3997.112087,-10418.898773
957.553527,-2220.617826,3478.967927,-10495.508323
957.553847,-3552.988522,148.041188,-9652.803275
957.554167,-1036.288319,-2590.720797,-10342.289223
957.554487,518.144159,-4145.153275,-9652.803275
957.554807,3849.070898,-1998.556043,-10418.898773
957.555126,3997.112087,-518.144159,-10342.289223
957.555446,2590.720797,1924.535449,-10265.679673
957.555766,888.247130,4663.297435,-10189.070123
957.556086,888.247130,4959.379811,-11414.822920
957.556406,2220.617826,3775.050304,-10265.679673
957.556725,2072.576638,-592.164754,-12180.918418
957.557045,1184.329507,-3775.050304,-10572.117872
957.557365,0.000000,-4219.173869,-9346.365076
957.557685,1184.329507,-2960.823768,-10265.679673
957.558005,2220.617826,0.000000,-9959.241474
957.558324,1702.473667,1406.391290,-9806.022374
957.558644,2886.803174,2294.638420,-10572.117872
957.558964,4589.276840,1406.391290,-10035.851024
957.559284,5625.565159,962.267725,-9959.241474
957.559604,3330.926739,-888.247130,-9806.022374
957.559924,370.102971,-2368.659014,-9499.584175
957.560243,2072.576638,-2368.659014,-9499.584175
957.560563,4959.379811,-518.144159,-10112.460574
957.560883,6809.894666,2146.597232,-10495.508323
957.561203,4145.153275,1850.514855,-10955.165621
957.561523,74.020594,1184.329507,-10112.460574
957.561842,-1036.288319,1036.288319,-9806.022374
957.562162,-1258.350101,-518.144159,-9959.241474
957.562482,-1554.432478,-1258.350101,-9729.412825
957.562802,-2368.659014,-3330.926739,-9652.803275
957.563122,0.000000,-4145.153275,-9652.803275
957.563441,1480.411884,-2368.659014,-10418.898773
957.563761,1628.453072,1110.308913,-10265.679673
957.564081,1998.556043,3478.967927,-10189.070123
957.564401,-2368.659014,3923.091493,-10878.556072
957.564721,-1554.432478,1628.453072,-9806.022374
957.565040,-3923.091493,-370.102971,-10265.679673
957.565360,-3404.947333,-1850.514855,-9499.584175
957.565680,-3034.844362,-1776.494261,-10418.898773
957.566000,-1628.453072,-2220.617826,-9959.241474
957.566320,0.000000,-518.144159,-10265.679673
957.566640,592.164754,2146.597232,-10878.556072
957.566959,-2072.576638,3330.926739,-9882.631924
957.567279,-3923.091493,2516.700203,-9806.022374
957.567599,-666.185348,962.267725,-10189.070123
957.567919,2368.659014,-518.144159,-9652.803275
957.568239,1554.432478,0.000000,-10035.851024
957.568558,-1850.514855,-1036.288319,-9193.145976
957.568878,-1184.329507,-518.144159,-9499.584175
957.569198,1258.350101,1258.350101,-9729.412825
957.569518,1998.556043,3997.112087,-10725.336972
957.569838,-1850.514855,2886.803174,-10725.336972
957.570157,-1850.514855,222.061783,-9422.974625
957.570477,592.164754,-1036.288319,-9499.584175
957.570797,222.061783,-740.205942,-10572.117872
957.571117,-1850.514855,-814.226536,-8963.317327
957.571437,-962.267725,-1554.432478,-9806.022374
957.571756,444.123565,1628.453072,-9652.803275
957.572076,2516.700203,4293.194464,-11338.213370
957.572396,2590.720797,3330.926739,-11031.775171
957.572716,1036.288319,2812.782580,-9652.803275
957.573036,2146.597232,1184.329507,-9729.412825
957.573356,5403.503377,-518.144159,-9806.022374
957.573675,5699.585753,-1406.391290,-10189.070123
957.573995,3034.844362,-370.102971,-10112.460574
957.574315,2590.720797,888.247130,-9806.022374
957.574635,4441.235652,2442.679609,-10572.117872
957.574955,5551.544565,2072.576638,-11338.213370
957.575274,3701.029710,666.185348,-10572.117872
957.575594,222.061783,0.000000,-9959.241474
957.575914,-1480.411884,-222.061783,-9652.803275
957.576234,-148.041188,-370.102971,-10342.289223
957.576554,888.247130,0.000000,-10648.727422
957.576873,222.061783,-296.082377,-10265.679673
957.577193,-592.164754,0.000000,-10189.070123
957.577513,1406.391290,592.164754,-10035.851024
957.577833,2368.659014,1850.514855,-10189.070123
957.578153,814.226536,2812.782580,-10725.336972
957.578472,-518.144159,2516.700203,-10801.946522
957.578792,296.082377,74.020594,-10265.679673
957.579112,592.164754,-1776.494261,-10265.679673
957.579432,-1776.494261,-2220.617826,-9499.584175
957.579752,-3330.926739,0.000000,-10035.851024
957.580072,-3182.885551,888.247130,-10189.070123
957.580391,-2368.659014,2294.638420,-9882.631924
957.580711,-2294.638420,1406.391290,-9806.022374
957.581031,-1258.350101,1036.288319,-8733.488677
957.581351,666.185348,296.082377,-10418.898773
957.581671,2516.700203,74.020594,-10189.070123
957.581990,2072.576638,740.205942,-9729.412825
957.582310,-518.144159,1702.473667,-9806.022374
957.582630,222.061783,1776.494261,-10572.117872
957.582950,74.020594,1406.391290,-9959.241474
957.583270,-814.226536,1998.556043,-9806.022374
957.583589,-1702.473667,1110.308913,-9806.022374
957.583909,1184.329507,1406.391290,-10189.070123
957.584229,3923.091493,-222.061783,-10342.289223
957.584549,1998.556043,0.000000,-9652.803275
957.584869,-1406.391290,0.000000,-10189.070123
957.585188,-1480.411884,-666.185348,-10112.460574
957.585508,2220.617826,0.000000,-9729.412825
957.585828,4811.338623,592.164754,-10418.898773
957.586148,4811.338623,2886.803174,-10572.117872
957.586468,4293.194464,2960.823768,-10112.460574
957.586787,4515.256246,2738.761985,-10418.898773
957.587107,3404.947333,2442.679609,-11031.775171
957.587427,2146.597232,1406.391290,-10112.460574
957.587747,222.061783,-222.061783,-10112.460574
957.588067,1924.535449,370.102971,-9806.022374
957.588387,4885.359217,1184.329507,-10189.070123
957.588706,4441.235652,1628.453072,-10648.727422
957.589026,3034.844362,2072.576638,-9806.022374
957.589346,2294.638420,2368.659014,-10112.460574
957.589666,4737.318029,3923.091493,-10189.070123
957.589986,7105.977043,3923.091493,-10342.289223
957.590305,5329.482782,4737.318029,-10801.946522
957.590625,3330.926739,3923.091493,-10801.946522
957.590945,2146.597232,2664.741391,-10265.679673
957.591265,3404.947333,3182.885551,-10572.117872
957.591585,2886.803174,3404.947333,-10265.679673
957.591904,296.082377,1406.391290,-10495.508323
957.592224,-2146.597232,-1554.432478,-9422.974625
957.592544,-592.164754,-1480.411884,-9576.193725
957.592864,2812.782580,222.061783,-10265.679673
957.593184,2516.700203,4293.194464,-10035.851024
957.593503,1554.432478,5329.482782,-10725.336972
957.593823,1480.411884,4589.276840,-8656.879127
957.594143,3108.864956,4145.153275,-10112.460574
957.594463,4441.235652,2368.659014,-10495.508323
957.594783,3034.844362,1406.391290,-9499.584175
957.595103,-148.041188,1036.288319,-9346.365076
957.595422,-444.123565,1702.473667,-9499.584175
957.595742,1480.411884,962.267725,-9039.926876
957.596062,592.164754,518.144159,-10418.898773
957.596382,-814.226536,0.000000,-9039.926876
957.596702,-3330.926739,1406.391290,-9652.803275
957.597021,-1702.473667,2960.823768,-10035.851024
957.597341,888.247130,4071.132681,-9116.536426
957.597661,3034.844362,3923.091493,-10725.336972
957.597981,5477.523971,2146.597232,-10955.165621
957.598301,5107.421000,1998.556043,-10112.460574
957.598620,4737.318029,2960.823768,-10801.946522
957.598940,3552.988522,4663.297435,-9729.412825
957.599260,2886.803174,5625.565159,-10725.336972
957.599580,1110.308913,4293.194464,-10725.336972
957.599900,-592.164754,1998.556043,-9346.365076
957.600219,-2738.761985,370.102971,-10418.898773
957.600539,-814.226536,-1332.370696,-9806.022374
957.600859,3034.844362,-1332.370696,-9422.974625
957.601179,4293.194464,518.144159,-10648.727422
957.601499,4737.318029,2886.803174,-9882.631924
957.601819,4811.338623,3997.112087,-10035.851024
957.602138,5625.565159,5329.482782,-11414.822920
957.602458,6365.771101,5921.647536,-9729.412825
957.602778,5477.523971,5477.523971,-11491.432470
957.603098,5033.400406,1480.411884,-10878.556072
957.603418,3997.112087,-370.102971,-8580.269578
957.603737,888.247130,1258.350101,-10342.289223
957.604057,666.185348,3182.885551,-10189.070123
957.604377,296.082377,4737.318029,-9806.022374
957.604697,592.164754,4959.379811,-11108.384721
957.605017,2072.576638,3775.050304,-9269.755526
957.605336,3701.029710,2072.576638,-10189.070123
957.605656,3552.988522,592.164754,-9959.241474
957.605976,4515.256246,0.000000,-9652.803275
957.606296,5181.441594,1554.432478,-10035.851024
957.606616,5181.441594,3330.926739,-11951.089769
957.606935,4367.215058,4219.173869,-10801.946522
957.607255,3701.029710,3923.091493,-10648.727422
957.607575,2516.700203,3552.988522,-10112.460574
957.607895,1702.473667,3034.844362,-10495.508323
957.608215,1110.308913,2516.700203,-10495.508323
957.608535,444.123565,1258.350101,-9806.022374
957.608854,-962.267725,222.061783,-9499.584175
957.609174,518.144159,-370.102971,-9652.803275
957.609494,2516.700203,-370.102971,-9806.022374
957.609814,2960.823768,1776.494261,-9806.022374
957.610134,2738.761985,3849.070898,-10342.289223
957.610453,2664.741391,5181.441594,-10725.336972
957.610773,1924.535449,4885.359217,-10725.336972
957.611093,1628.453072,3108.864956,-9806.022374
957.611413,2220.617826,2146.597232,-9729.412825
957.611733,1702.473667,740.205942,-10342.289223
957.612052,1332.370696,518.144159,-9422.974625
957.612372,0.000000,1110.308913,-9806.022374
957.612692,1036.288319,2738.761985,-9806.022374
957.613012,1258.350101,4441.235652,-9882.631924
957.613332,148.041188,4441.235652,-10189.070123
957.613651,740.205942,3108.864956,-9499.584175
957.613971,1924.535449,1702.473667,-10189.070123
957.614291,1924.535449,1036.288319,-10189.070123
957.614611,814.226536,1628.453072,-9882.631924
957.614931,1480.411884,2664.741391,-10112.460574
957.615251,3108.864956,3552.988522,-10035.851024
957.615570,2664.741391,4885.359217,-10495.508323
957.615890,1036.288319,4515.256246,-10265.679673
957.616210,666.185348,3330.926739,-9882.631924
957.616530,3108.864956,1480.411884,-10572.117872
957.616850,3330.926739,666.185348,-10035.851024
957.617169,2664.741391,1036.288319,-10112.460574
957.617489,2368.659014,2590.720797,-10112.460574
957.617809,4293.194464,3404.947333,-10342.289223
957.618129,4959.379811,4589.276840,-10725.336972
957.618449,3108.864956,3923.091493,-10418.898773
957.618768,2220.617826,3627.009116,-9652.803275
957.619088,3182.885551,2812.782580,-10648.727422
957.619408,4589.276840,3552.988522,-10189.070123
957.619728,3552.988522,3404.947333,-10035.851024
957.620048,2220.617826,3182.885551,-10112.460574
957.620367,3108.864956,3627.009116,-9806.022374
957.620687,4959.379811,3330.926739,-10112.460574
957.621007,5551.544565,3701.029710,-10878.556072
957.621327,4071.132681,3775.050304,-10572.117872
957.621647,2368.659014,3404.947333,-10265.679673
957.621967,2220.617826,3256.906145,-9806.022374
957.622286,3034.844362,2146.597232,-10035.851024
957.622606,2960.823768,2294.638420,-10189.070123
957.622926,1702.473667,1628.453072,-9806.022374
957.623246,1628.453072,1406.391290,-9806.022374
957.623566,2664.741391,2294.638420,-9499.584175
957.623885,4515.256246,2442.679609,-10035.851024
957.624205,4145.153275,3775.050304,-10495.508323
957.624525,2294.638420,3701.029710,-10189.070123
957.624845,74.020594,3034.844362,-10189.070123
957.625165,370.102971,1998.556043,-9346.365076
957.625485,740.205942,814.226536,-10035.851024
957.625805,2442.679609,148.041188,-9806.022374
957.626124,2368.659014,666.185348,-9576.193725
957.626444,740.205942,1998.556043,-10418.898773
957.626764,-296.082377,2812.782580,-9959.241474
957.627084,148.041188,3404.947333,-9959.241474
957.627404,2368.659014,2812.782580,-10725.336972
957.627724,3923.091493,1554.432478,-9806.022374
957.628044,3404.947333,370.102971,-9882.631924
957.628363,1110.308913,1480.411884,-10418.898773
957.628683,74.020594,2220.617826,-9959.241474
957.629003,888.247130,2738.761985,-10265.679673
957.629323,2590.720797,2664.741391,-9806.022374
957.629643,2886.803174,1110.308913,-9806.022374
957.629963,1924.535449,1110.308913,-10189.070123
957.630283,2146.597232,2220.617826,-10572.117872
957.630602,2516.700203,3923.091493,-10495.508323
957.630922,1258.350101,4737.318029,-10878.556072
957.631242,1036.288319,3404.947333,-10265.679673
957.631562,2812.782580,1258.350101,-9959.241474
957.631882,4071.132681,74.020594,-10265.679673
957.632202,2886.803174,740.205942,-9882.631924
957.632522,1702.473667,2590.720797,-10342.289223
957.632841,1628.453072,3627.009116,-10418.898773
957.633161,1998.556043,3552.988522,-9882.631924
957.633481,1554.432478,2294.638420,-9882.631924
957.633801,2294.638420,666.185348,-9729.412825
957.634121,3404.947333,0.000000,-9959.241474
957.634441,4737.318029,444.123565,-9959.241474
957.634761,4441.235652,2368.659014,-10189.070123
957.635080,4071.132681,3923.091493,-10572.117872
957.635400,4071.132681,4589.276840,-9959.241474
957.635720,3182.885551,4515.256246,-10265.679673
957.636040,1184.329507,3775.050304,-10189.070123
957.636360,0.000000,2368.659014,-10112.460574
957.636680,666.185348,444.123565,-10112.460574
957.637000,2442.679609,-814.226536,-9806.022374
957.637319,2812.782580,-740.205942,-9729.412825
957.637639,2664.741391,888.247130,-9576.193725
957.637959,2886.803174,3627.009116,-9576.193725
957.638279,4663.297435,6587.832884,-10035.851024
957.638599,5773.606348,7476.080014,-10801.946522
957.638919,5107.421000,6143.709319,-10725.336972
957.639239,3182.885551,3701.029710,-10725.336972
957.639558,1184.329507,1406.391290,-10112.460574
957.639878,-592.164754,666.185348,-9806.022374
957.640198,-1110.308913,518.144159,-9652.803275
957.640518,-296.082377,518.144159,-9499.584175
957.640838,444.123565,1332.370696,-9729.412825
957.641158,1628.453072,2442.679609,-10265.679673
957.641478,2220.617826,4145.153275,-10112.460574
957.641797,3627.009116,5995.668130,-10495.508323
957.642117,5921.647536,6365.771101,-10725.336972
957.642437,6143.709319,5995.668130,-10265.679673
957.642757,4663.297435,4293.194464,-10495.508323
957.643077,2590.720797,2738.761985,-10342.289223
957.643397,1406.391290,2368.659014,-9882.631924
957.643717,962.267725,2590.720797,-10418.898773
957.644036,0.000000,2886.803174,-10035.851024
957.644356,-1110.308913,2516.700203,-9576.193725
957.644676,-1554.432478,1258.350101,-9499.584175
957.644996,-740.205942,518.144159,-8580.269578
957.645316,1332.370696,962.267725,-9346.365076
957.645636,3849.070898,1924.535449,-9652.803275
957.645956,5995.668130,3478.967927,-9806.022374
957.646275,7105.977043,4737.318029,-10035.851024
957.646595,6513.812290,5921.647536,-9576.193725
957.646915,4811.338623,6069.688724,-10418.898773
957.647235,2516.700203,5551.544565,-10495.508323
957.647555,1258.350101,3997.112087,-10342.289223
957.647875,888.247130,2738.761985,-9499.584175
957.648195,518.144159,296.082377,-9882.631924
957.648514,-370.102971,-814.226536,-9652.803275
957.648834,-1036.288319,-370.102971,-9729.412825
957.649154,-148.041188,1332.370696,-9806.022374
957.649474,1924.535449,3552.988522,-9576.193725
957.649794,4293.194464,3404.947333,-10189.070123
957.650114,5921.647536,3256.906145,-10342.289223
957.650434,6143.709319,2220.617826,-10035.851024
957.650753,4811.338623,1776.494261,-10265.679673
957.651073,3034.844362,1702.473667,-10342.289223
957.651393,740.205942,2146.597232,-10112.460574
957.651713,-1184.329507,2146.597232,-10189.070123
957.652033,-1776.494261,740.205942,-9882.631924
957.652353,-1554.432478,-222.061783,-10112.460574
957.652673,-444.123565,-1036.288319,-10112.460574
957.652992,74.020594,-814.226536,-9882.631924
957.653312,1406.391290,888.247130,-10342.289223
957.653632,3404.947333,2590.720797,-10265.679673
957.653952,4071.132681,3849.070898,-10418.898773
957.654272,3997.112087,4367.215058,-10648.727422
957.654592,3256.906145,3923.091493,-10648.727422
957.654912,2738.761985,3404.947333,-10418.898773
957.655231,2220.617826,2368.659014,-10342.289223
957.655551,888.247130,1258.350101,-10342.289223
957.655871,148.041188,74.020594,-9806.022374
957.656191,0.000000,-222.061783,-9806.022374
957.656511,-296.082377,1258.350101,-9729.412825
957.656831,1776.494261,1554.432478,-10189.070123
957.657151,2664.741391,2664.741391,-10189.070123
957.657470,4071.132681,3552.988522,-10112.460574
957.657790,5403.503377,4071.132681,-10725.336972
957.658110,7105.977043,3849.070898,-10342.289223
957.658430,7402.059420,4515.256246,-10189.070123
957.658750,6513.812290,5107.421000,-10342.289223
957.659070,4367.215058,5477.523971,-10725.336972
957.659390,1998.556043,4885.359217,-11951.089769
957.659709,-296.082377,3182.885551,-10035.851024
957.660029,-1184.329507,1332.370696,-9652.803275
957.660349,-370.102971,-592.164754,-9346.365076
957.660669,1554.432478,-1480.411884,-9499.584175
957.660989,2738.761985,222.061783,-9576.193725
957.661309,3923.091493,2886.803174,-9882.631924
957.661629,5329.482782,5625.565159,-9882.631924
957.661948,6365.771101,7328.038826,-10648.727422
957.662268,7179.997637,7105.977043,-10418.898773
957.662588,6069.688724,6587.832884,-10725.336972
957.662908,4737.318029,4737.318029,-10342.289223
957.663228,3552.988522,3108.864956,-10265.679673
957.663548,2146.597232,2516.700203,-9959.241474
957.663868,-296.082377,2516.700203,-9882.631924
957.664187,-2590.720797,3256.906145,-9882.631924
957.664507,-2886.803174,3552.988522,-9959.241474
957.664827,-740.205942,2590.720797,-10112.460574
957.665147,1850.514855,2368.659014,-9959.241474
957.665467,2886.803174,1702.473667,-10189.070123
957.665787,3478.967927,2590.720797,-9806.022374
957.666107,3701.029710,4145.153275,-10035.851024
957.666426,4959.379811,5921.647536,-9959.241474
957.666746,5995.668130,6513.812290,-10342.289223
957.667066,5329.482782,5847.626942,-10801.946522
957.667386,2072.576638,4367.215058,-10342.289223
957.667706,-1998.556043,2738.761985,-9806.022374
957.668026,-3775.050304,1258.350101,-9882.631924
957.668346,-2590.720797,0.000000,-9422.974625
957.668665,-1480.411884,-666.185348,-9193.145976
957.668985,-1036.288319,0.000000,-9346.365076
957.669305,222.061783,1554.432478,-9039.926876
957.669625,3849.070898,3330.926739,-10035.851024
957.669945,6587.832884,5625.565159,-10725.336972
957.670265,6883.915261,6513.812290,-10572.117872
957.670585,5625.565159,6661.853478,-10572.117872
957.670904,4293.194464,4737.318029,-10189.070123
957.671224,2664.741391,2146.597232,-10265.679673
957.671544,962.267725,148.041188,-9729.412825
957.671864,0.000000,-518.144159,-9729.412825
957.672184,0.000000,0.000000,-10572.117872
957.672504,-592.164754,518.144159,-9806.022374
957.672824,-1184.329507,1850.514855,-9806.022374
957.673143,296.082377,2664.741391,-10112.460574
957.673463,3552.988522,3182.885551,-10112.460574
957.673783,6069.688724,2664.741391,-10265.679673
957.674103,7920.203579,2368.659014,-10112.460574
957.674423,8068.244768,2590.720797,-10418.898773
957.674743,6809.894666,3701.029710,-10572.117872
957.675063,4367.215058,4663.297435,-10648.727422
957.675382,1406.391290,4515.256246,-10801.946522
957.675702,296.082377,2516.700203,-10035.851024
957.676022,740.205942,-518.144159,-10035.851024
957.676342,740.205942,-2294.638420,-10035.851024
957.676662,-148.041188,-2368.659014,-9806.022374
957.676982,-1258.350101,-666.185348,-9499.584175
957.677302,0.000000,1998.556043,-10189.070123
957.677621,3182.885551,3330.926739,-9959.241474
957.677941,6069.688724,4145.153275,-10342.289223
957.678261,7402.059420,3849.070898,-10725.336972
957.678581,7328.038826,2812.782580,-10495.508323
957.678901,5181.441594,3182.885551,-10112.460574
957.679221,2664.741391,3256.906145,-10572.117872
957.679541,1554.432478,2368.659014,-9729.412825
957.679860,-740.205942,1036.288319,-9959.241474
957.680180,-3182.885551,-666.185348,-9422.974625
957.680500,-4885.359217,-1850.514855,-9039.926876
957.680820,-4145.153275,-1554.432478,-9499.584175
957.681140,296.082377,-666.185348,-9499.584175
957.681460,4293.194464,962.267725,-9806.022374
957.681780,4885.359217,2886.803174,-10265.679673
957.682099,3923.091493,4367.215058,-9806.022374
957.682419,3404.947333,5329.482782,-10189.070123
957.682739,5033.400406,5255.462188,-11184.994271
957.683059,5773.606348,5107.421000,-10878.556072
957.683379,3478.967927,3404.947333,-11491.432470
957.683699,0.000000,1184.329507,-9882.631924
957.684019,-2516.700203,1110.308913,-9959.241474
957.684338,-2738.761985,1406.391290,-10648.727422
957.684658,-2146.597232,1628.453072,-10035.851024
957.684978,-1776.494261,2442.679609,-9652.803275
957.685298,740.205942,1702.473667,-9806.022374
957.685618,5107.421000,1480.411884,-9806.022374
957.685938,7476.080014,2960.823768,-10648.727422
957.686258,7105.977043,5181.441594,-10495.508323
957.686577,5773.606348,7105.977043,-9882.631924
957.686897,5995.668130,7476.080014,-10878.556072
957.687217,6217.729913,6291.750507,-10418.898773
957.687537,4515.256246,3627.009116,-10112.460574
957.687857,814.226536,2220.617826,-10035.851024
957.688177,-370.102971,444.123565,-9346.365076
957.688497,148.041188,296.082377,-9499.584175
957.688816,-666.185348,814.226536,-9346.365076
957.689136,-370.102971,1702.473667,-8810.098227
957.689456,1998.556043,2590.720797,-9422.974625
957.689776,5699.585753,3330.926739,-9806.022374
957.690096,6365.771101,4145.153275,-10035.851024
957.690416,5551.544565,4959.379811,-9729.412825
957.690736,6883.915261,5773.606348,-10955.165621
957.691055,7994.224174,5921.647536,-10572.117872
957.691375,6735.874072,5033.400406,-10878.556072
957.691695,370.102971,3552.988522,-9806.022374
957.692015,-814.226536,3034.844362,-9729.412825
957.692335,-518.144159,2072.576638,-9959.241474
957.692655,-1702.473667,2220.617826,-9806.022374
957.692975,-2812.782580,1258.350101,-9652.803275
957.693294,-2072.576638,888.247130,-9576.193725
957.693614,1036.288319,296.082377,-9959.241474
957.693934,3478.967927,1924.535449,-9806.022374
957.694254,5033.400406,3849.070898,-10342.289223
957.694574,4959.379811,5551.544565,-10572.117872
957.694894,5921.647536,5921.647536,-11644.651570
957.695214,5699.585753,6069.688724,-11108.384721
957.695533,2664.741391,4737.318029,-11031.775171
957.695853,-1628.453072,3478.967927,-9959.241474
957.696173,-3627.009116,1702.473667,-9729.412825
957.696493,-2368.659014,1110.308913,-10112.460574
957.696813,-740.205942,-592.164754,-9499.584175
957.697133,-1258.350101,-1036.288319,-9422.974625
957.697453,148.041188,-666.185348,-9422.974625
957.697772,2738.761985,1924.535449,-9729.412825
957.698092,3775.050304,4589.276840,-10112.460574
957.698412,5403.503377,5773.606348,-10878.556072
957.698732,7846.182985,4145.153275,-10189.070123
957.699052,7476.080014,2368.659014,-9806.022374
957.699372,4885.359217,2220.617826,-10112.460574
957.699692,1776.494261,3182.885551,-11184.994271
957.700011,962.267725,4959.379811,-10648.727422
957.700331,1110.308913,5921.647536,-10189.070123
957.700651,2146.597232,3478.967927,-10725.336972
957.700971,1480.411884,888.247130,-10035.851024
957.701291,1036.288319,-1480.411884,-9729.412825
957.701611,740.205942,-1924.535449,-9806.022374
957.701931,1998.556043,962.267725,-9193.145976
957.702250,2960.823768,3478.967927,-10495.508323
957.702570,4737.318029,3997.112087,-10418.898773
957.702890,6513.812290,3108.864956,-9806.022374
957.703210,6143.709319,3182.885551,-10495.508323
957.703530,5033.400406,3108.864956,-10955.165621
957.703850,1998.556043,2146.597232,-10189.070123
957.704170,370.102971,1924.535449,-10189.070123
957.704489,-222.061783,296.082377,-10112.460574
957.704809,1258.350101,-1850.514855,-8733.488677
957.705129,0.000000,-1850.514855,-10189.070123
957.705449,666.185348,-1850.514855,-9729.412825
957.705769,2072.576638,370.102971,-9499.584175
957.706089,3256.906145,2738.761985,-10801.946522
957.706409,5995.668130,4145.153275,-9806.022374
957.706728,5625.565159,3997.112087,-10035.851024
957.707048,4737.318029,4219.173869,-11108.384721
957.707368,5107.421000,2664.741391,-9959.241474
957.707688,4515.256246,2886.803174,-10418.898773
957.708008,1998.556043,2146.597232,-10342.289223
957.708328,-666.185348,1850.514855,-8963.317327
957.708648,-2146.597232,1850.514855,-10035.851024
957.708967,-962.267725,962.267725,-9729.412825
957.709287,-148.041188,-148.041188,-8963.317327
957.709607,74.020594,0.000000,-9882.631924
957.709927,1628.453072,370.102971,-9346.365076
957.710247,3108.864956,2368.659014,-10342.289223
957.710567,4737.318029,4737.318029,-10801.946522
957.710887,6439.791695,5403.503377,-9269.755526
957.711206,4959.379811,5329.482782,-10801.946522
957.711526,4737.318029,3627.009116,-10878.556072
957.711846,1776.494261,2146.597232,-10112.460574
957.712166,-148.041188,370.102971,-10725.336972
957.712486,-1184.329507,-148.041188,-9499.584175
957.712806,-3404.947333,518.144159,-9959.241474
957.713125,-3404.947333,1110.308913,-10648.727422
957.713445,-2072.576638,1628.453072,-9422.974625
957.713765,-296.082377,3478.967927,-10648.727422
957.714085,296.082377,2220.617826,-10572.117872
957.714405,2220.617826,1332.370696,-9346.365076
957.714725,3997.112087,1702.473667,-11108.384721
957.715045,4811.338623,2368.659014,-10189.070123
957.715364,4145.153275,3034.844362,-10265.679673
957.715684,3034.844362,4071.132681,-10725.336972
957.716004,2812.782580,3849.070898,-10035.851024
957.716324,1406.391290,3182.885551,-9729.412825
957.716644,-296.082377,1480.411884,-10265.679673
957.716964,-370.102971,888.247130,-9116.536426
957.717284,0.000000,962.267725,-10342.289223
957.717603,444.123565,1776.494261,-10725.336972
957.717923,-148.041188,2442.679609,-9806.022374
957.718243,-1110.308913,1924.535449,-9806.022374
957.718563,814.226536,592.164754,-9652.803275
957.718883,2516.700203,-296.082377,-9652.803275
957.719203,2294.638420,370.102971,-10725.336972
957.719523,1332.370696,1776.494261,-9729.412825
957.719842,2442.679609,1776.494261,-10189.070123
957.720162,4219.173869,1110.308913,-10342.289223
957.720482,4441.235652,222.061783,-9652.803275
957.720802,1554.432478,148.041188,-10342.289223
957.721122,-592.164754,666.185348,-9806.022374
957.721442,-740.205942,1628.453072,-9882.631924
957.721762,-962.267725,1702.473667,-10189.070123
957.722081,666.185348,666.185348,-10189.070123
957.722401,2368.659014,-1406.391290,-10572.117872
957.722721,4737.318029,-1702.473667,-10418.898773
957.723041,3627.009116,-148.041188,-10725.336972
957.723361,1406.391290,1702.473667,-10342.289223
957.723681,592.164754,3108.864956,-10495.508323
957.724001,0.000000,2516.700203,-10495.508323
957.724320,888.247130,1332.370696,-9959.241474
957.724640,814.226536,74.020594,-10112.460574
957.724960,3256.906145,-592.164754,-9882.631924
957.725280,3701.029710,-1110.308913,-10572.117872
957.725600,1258.350101,-296.082377,-10878.556072
957.725920,-518.144159,-1110.308913,-9882.631924
957.726239,-370.102971,-1628.453072,-10572.117872
957.726559,-1036.288319,-962.267725,-10265.679673
957.726879,-592.164754,-666.185348,-10572.117872
957.727199,-1702.473667,1110.308913,-9729.412825
957.727519,-666.185348,2812.782580,-10955.165621
957.727839,888.247130,3256.906145,-9882.631924
957.728158,1332.370696,2294.638420,-11031.775171
957.728478,740.205942,0.000000,-10342.289223
957.728798,296.082377,-2590.720797,-10112.460574
957.729118,0.000000,-4515.256246,-9116.536426
957.729438,-1850.514855,-2516.700203,-9729.412825
957.729757,-3552.988522,-592.164754,-9499.584175
957.730077,-3478.967927,1554.432478,-10035.851024
957.730397,-2294.638420,2886.803174,-9806.022374
957.730717,0.000000,3256.906145,-10112.460574
957.731037,296.082377,2072.576638,-10342.289223
957.731357,962.267725,0.000000,-10725.336972
957.731676,1554.432478,-1628.453072,-9039.926876
957.731996,888.247130,-2664.741391,-9499.584175
957.732316,222.061783,-2516.700203,-9499.584175
957.732636,-592.164754,-888.247130,-9729.412825
957.732956,0.000000,2220.617826,-9882.631924
957.733275,148.041188,4441.235652,-11031.775171
957.733595,1110.308913,3849.070898,-10495.508323
957.733915,3034.844362,1184.329507,-11338.213370
957.734235,2368.659014,-1998.556043,-10418.898773
957.734555,962.267725,-2220.617826,-10035.851024
957.734875,-2294.638420,-1258.350101,-10112.460574
957.735194,-3997.112087,-296.082377,-9346.365076
957.735514,-1184.329507,444.123565,-10112.460574
957.735834,1702.473667,0.000000,-10955.165621
957.736154,2886.803174,518.144159,-10342.289223
957.736474,0.000000,1036.288319,-10035.851024
957.736793,0.000000,1554.432478,-10112.460574
957.737113,2368.659014,0.000000,-9806.022374
957.737433,2368.659014,-1406.391290,-10418.898773
957.737753,2072.576638,-3256.906145,-9576.193725
957.738073,1110.308913,-2072.576638,-9652.803275
957.738392,2664.741391,1110.308913,-9576.193725
957.738712,4811.338623,3182.885551,-10495.508323
957.739032,4811.338623,4737.318029,-9729.412825
957.739352,1998.556043,1776.494261,-10035.851024
957.739672,-740.205942,-296.082377,-9499.584175
957.739992,-740.205942,-3775.050304,-9576.193725
957.740311,-222.061783,-3404.947333,-8963.317327
957.740631,296.082377,-962.267725,-10035.851024
957.740951,1184.329507,1924.535449,-9269.755526
957.741271,2368.659014,2294.638420,-10572.117872
957.741591,962.267725,2220.617826,-9269.755526
957.741910,-1480.411884,1776.494261,-10572.117872
957.742230,-1332.370696,444.123565,-9806.022374
957.742550,-1554.432478,518.144159,-9959.241474
957.742870,296.082377,-444.123565,-10342.289223
957.743190,1184.329507,-148.041188,-9806.022374
957.743510,1036.288319,0.000000,-10342.289223
957.743829,1554.432478,1554.432478,-11031.775171
957.744149,1406.391290,2294.638420,-10035.851024
957.744469,814.226536,3108.864956,-10648.727422
957.744789,222.061783,2368.659014,-11031.775171
957.745109,-814.226536,888.247130,-10572.117872
957.745428,-2442.679609,222.061783,-10265.679673
957.745748,-3256.906145,-444.123565,-9882.631924
957.746068,296.082377,-888.247130,-10189.070123
957.746388,592.164754,-148.041188,-10572.117872
957.746708,592.164754,1332.370696,-10265.679673
957.747027,-148.041188,1776.494261,-9576.193725
957.747347,0.000000,2146.597232,-9806.022374
957.747667,962.267725,1110.308913,-10035.851024
957.747987,1258.350101,148.041188,-10035.851024
957.748307,-1406.391290,-518.144159,-10189.070123
957.748627,-3923.091493,-1628.453072,-8963.317327
957.748946,-3034.844362,-1110.308913,-9039.926876
957.749266,-1628.453072,-814.226536,-9729.412825
957.749586,1258.350101,-370.102971,-9806.022374
957.749906,2368.659014,-444.123565,-9882.631924
957.750226,1628.453072,0.000000,-9882.631924
957.750545,2368.659014,222.061783,-9882.631924
957.750865,2442.679609,2664.741391,-11261.603821
957.751185,2738.761985,4589.276840,-11184.994271
957.751505,592.164754,4367.215058,-9652.803275
957.751825,2516.700203,3775.050304,-9806.022374
957.752145,5625.565159,-666.185348,-10572.117872
957.752464,4145.153275,-3182.885551,-10265.679673
957.752784,1258.350101,-3701.029710,-10342.289223
957.753104,370.102971,-1406.391290,-9116.536426
957.753424,-888.247130,1480.411884,-10495.508323
957.753744,222.061783,3478.967927,-10955.165621
957.754063,1184.329507,2294.638420,-10648.727422
957.754383,222.061783,666.185348,-10342.289223
957.754703,0.000000,-1702.473667,-9652.803275
957.755023,1628.453072,-2294.638420,-9652.803275
957.755343,3701.029710,-814.226536,-10648.727422
957.755662,3775.050304,-666.185348,-10265.679673
957.755982,3775.050304,-666.185348,-9729.412825
957.756302,74.020594,0.000000,-10342.289223
957.756622,-1628.453072,-740.205942,-9652.803275
957.756942,-1554.432478,1332.370696,-9806.022374
957.757262,0.000000,1776.494261,-10495.508323
957.757581,592.164754,1036.288319,-9269.755526
957.757901,-370.102971,-1554.432478,-10648.727422
957.758221,-1258.350101,-3478.967927,-9422.974625
957.758541,-1702.473667,-4219.173869,-9039.926876
957.758861,-1480.411884,-2072.576638,-9882.631924
957.759180,-2072.576638,296.082377,-9576.193725
957.759500,0.000000,2960.823768,-10418.898773
957.759820,518.144159,4367.215058,-11031.775171
957.760140,1924.535449,2664.741391,-9806.022374
957.760460,74.020594,1554.432478,-11031.775171
957.760780,-2368.659014,-2442.679609,-10035.851024
957.761099,-2590.720797,-3849.070898,-9116.536426
957.761419,-1998.556043,-3701.029710,-10648.727422
957.761739,-592.164754,-2072.576638,-9652.803275
957.762059,-1110.308913,0.000000,-9806.022374
957.762379,-2886.803174,2886.803174,-10725.336972
957.762698,-3034.844362,2072.576638,-9806.022374
957.763018,-1554.432478,0.000000,-11031.775171
957.763338,888.247130,-3034.844362,-9806.022374
957.763658,2368.659014,-4811.338623,-9422.974625
957.763978,2812.782580,-2812.782580,-10572.117872
957.764297,2738.761985,-222.061783,-10725.336972
957.764617,2368.659014,4071.132681,-10955.165621
957.764937,888.247130,5551.544565,-11721.261119
957.765257,222.061783,3775.050304,-9806.022374
957.765577,1628.453072,2294.638420,-11261.603821
957.765897,2368.659014,-444.123565,-11338.213370
957.766216,1332.370696,-1628.453072,-9039.926876
957.766536,-2294.638420,-2738.761985,-10955.165621
957.766856,296.082377,-2368.659014,-9422.974625
957.767176,0.000000,-2072.576638,-9652.803275
957.767496,2442.679609,0.000000,-10572.117872
957.767815,2590.720797,3627.009116,-10265.679673
957.768135,1480.411884,5699.585753,-10801.946522
957.768455,3034.844362,6365.771101,-10725.336972
957.768775,3034.844362,2590.720797,-9499.584175
957.769095,2886.803174,-1998.556043,-9882.631924
957.769415,2442.679609,-5403.503377,-9193.145976
957.769734,2886.803174,-4737.318029,-8733.488677
957.770054,148.041188,-222.061783,-9652.803275
957.770374,0.000000,4071.132681,-10342.289223
957.770694,3034.844362,5477.523971,-10342.289223
957.771014,3775.050304,4071.132681,-10265.679673
957.771333,1776.494261,1332.370696,-9652.803275
957.771653,-1258.350101,-888.247130,-9576.193725
957.771973,-666.185348,-1406.391290,-9499.584175
957.772293,0.000000,-1184.329507,-9959.241474
957.772613,1628.453072,0.000000,-9806.022374
957.772932,888.247130,1184.329507,-9346.365076
957.773252,962.267725,1036.288319,-9806.022374
957.773572,1110.308913,1628.453072,-9729.412825
957.773892,-740.205942,3108.864956,-10342.289223
957.774212,-148.041188,3849.070898,-10189.070123
957.774532,-888.247130,2516.700203,-9882.631924
957.774851,-444.123565,962.267725,-10265.679673
957.775171,-2368.659014,-1850.514855,-9959.241474
957.775491,-2220.617826,-2442.679609,-9193.145976
957.775811,-3108.864956,-1036.288319,-10035.851024
957.776131,-2072.576638,2294.638420,-9806.022374
957.776450,74.020594,2886.803174,-10648.727422
957.776770,74.020594,2146.597232,-10418.898773
957.777090,0.000000,1628.453072,-10495.508323
957.777410,-1480.411884,222.061783,-10572.117872
957.777730,222.061783,-1406.391290,-9806.022374
957.778050,666.185348,-1480.411884,-9652.803275
957.778369,888.247130,148.041188,-10648.727422
957.778689,1554.432478,518.144159,-10572.117872
957.779009,888.247130,740.205942,-9806.022374
957.779329,-222.061783,222.061783,-10035.851024
957.779649,-2738.761985,-148.041188,-9882.631924
957.779968,-2960.823768,666.185348,-10035.851024
957.780288,740.205942,-740.205942,-10189.070123
957.780608,3256.906145,-2146.597232,-9806.022374
957.780928,3108.864956,-2886.803174,-10342.289223
957.781248,592.164754,-1998.556043,-9806.022374
957.781568,-444.123565,-814.226536,-9806.022374
957.781887,1406.391290,1850.514855,-9806.022374
957.782207,3034.844362,3330.926739,-10112.460574
957.782527,4367.215058,1480.411884,-11184.994271
957.782847,3478.967927,-814.226536,-10725.336972
957.783167,-592.164754,-2960.823768,-10342.289223
957.783486,-740.205942,-2072.576638,-10495.508323
957.783806,2220.617826,0.000000,-10495.508323
957.784126,4219.173869,3256.906145,-11031.775171
957.784446,2368.659014,3997.112087,-10648.727422
957.784766,1850.514855,2664.741391,-10035.851024
957.785085,1258.350101,-888.247130,-10342.289223
957.785405,1480.411884,-3330.926739,-10495.508323
957.785725,74.020594,-4071.132681,-9729.412825
957.786045,-1850.514855,-2812.782580,-9576.193725
957.786365,-74.020594,0.000000,-9576.193725
957.786685,0.000000,1258.350101,-10265.679673
957.787004,-222.061783,666.185348,-9729.412825
957.787324,-592.164754,0.000000,-9422.974625
957.787644,1110.308913,-1850.514855,-9959.241474
957.787964,1628.453072,-2886.803174,-9499.584175
957.788284,1184.329507,-3108.864956,-9652.803275
957.788603,-1628.453072,-1258.350101,-9193.145976
957.788923,-962.267725,222.061783,-9346.365076
957.789243,74.020594,1258.350101,-10342.289223
957.789563,1258.350101,1554.432478,-10801.946522
957.789883,-444.123565,1480.411884,-9193.145976
957.790203,-1776.494261,1628.453072,-10648.727422
957.790522,-1628.453072,-370.102971,-9729.412825
957.790842,0.000000,-2072.576638,-10189.070123
957.791162,370.102971,-3478.967927,-10342.289223
957.791482,-962.267725,-1998.556043,-9806.022374
957.791802,-1628.453072,444.123565,-11261.603821
957.792121,-1110.308913,3701.029710,-10189.070123
957.792441,148.041188,4145.153275,-10265.679673
957.792761,814.226536,3404.947333,-10801.946522
957.793081,1924.535449,370.102971,-10342.289223
957.793401,3182.885551,-1998.556043,-11031.775171
957.793720,3997.112087,-2368.659014,-10572.117872
957.794040,2146.597232,-1406.391290,-10495.508323
957.794360,0.000000,0.000000,-10189.070123
957.794680,-1036.288319,962.267725,-9652.803275
957.795000,-148.041188,4219.173869,-9882.631924
957.795320,296.082377,2442.679609,-10878.556072
957.795639,3404.947333,740.205942,-10418.898773
957.795959,2442.679609,-814.226536,-10112.460574
957.796279,3552.988522,-444.123565,-9959.241474
957.796599,1702.473667,-370.102971,-9882.631924
957.796919,1480.411884,666.185348,-9499.584175
957.797238,666.185348,2664.741391,-9882.631924
957.797558,-888.247130,2220.617826,-9959.241474
957.797878,1628.453072,2664.741391,-10418.898773
957.798198,1554.432478,0.000000,-9729.412825
957.798518,2738.761985,-592.164754,-10189.070123
957.798838,2738.761985,0.000000,-9806.022374
957.799157,-1184.329507,1554.432478,-10418.898773
957.799477,-2368.659014,1184.329507,-10112.460574
957.799797,-2664.741391,1406.391290,-9346.365076
957.800117,-2442.679609,1998.556043,-10265.679673
957.800437,-962.267725,1776.494261,-9959.241474
957.800756,1110.308913,148.041188,-10495.508323
957.801076,74.020594,-518.144159,-9959.241474
957.801396,-148.041188,-1924.535449,-9422.974625
957.801716,3182.885551,222.061783,-9729.412825
957.802036,2294.638420,1850.514855,-9806.022374
957.802355,888.247130,3849.070898,-11184.994271
957.802675,370.102971,3478.967927,-10725.336972
957.802995,-370.102971,1850.514855,-10189.070123
957.803315,-1258.350101,-1184.329507,-10189.070123
957.803635,-2146.597232,-2442.679609,-9652.803275
957.803955,-3775.050304,-2294.638420,-9116.536426
957.804274,-3108.864956,-740.205942,-10265.679673
957.804594,-148.041188,0.000000,-10035.851024
957.804914,4441.235652,222.061783,-10725.336972
957.805234,-814.226536,148.041188,-9422.974625
957.805554,-1258.350101,-666.185348,-9806.022374
957.805873,370.102971,296.082377,-9346.365076
957.806193,1480.411884,518.144159,-10801.946522
957.806513,-222.061783,222.061783,-9193.145976
957.806833,2738.761985,-1258.350101,-10418.898773
957.807153,3256.906145,-1998.556043,-9729.412825
957.807473,1628.453072,-1628.453072,-10035.851024
957.807792,-370.102971,148.041188,-9959.241474
957.808112,-296.082377,-222.061783,-9729.412825
957.808432,1554.432478,-888.247130,-10265.679673
957.808752,2516.700203,-740.205942,-10112.460574
957.809072,1480.411884,-2294.638420,-9806.022374
957.809391,1776.494261,296.082377,-10495.508323
957.809711,2738.761985,1554.432478,-10955.165621
957.810031,3627.009116,1332.370696,-10725.336972
957.810351,962.267725,1184.329507,-10801.946522
957.810671,592.164754,-2146.597232,-9959.241474
957.810990,814.226536,-2516.700203,-10725.336972
957.811310,592.164754,-1702.473667,-10801.946522
957.811630,2812.782580,0.000000,-10878.556072
957.811950,2442.679609,2072.576638,-10801.946522
957.812270,-444.123565,2146.597232,-10648.727422
957.812590,592.164754,1628.453072,-10801.946522
957.812909,2220.617826,-370.102971,-10648.727422
957.813229,1110.308913,0.000000,-11108.384721
957.813549,-296.082377,-814.226536,-10189.070123
957.813869,-1850.514855,-148.041188,-9959.241474
957.814189,148.041188,-592.164754,-10265.679673
957.814508,592.164754,-370.102971,-8580.269578
957.814828,-814.226536,814.226536,-10035.851024
957.815148,-1776.494261,1258.350101,-10801.946522
957.815468,-1036.288319,2146.597232,-10495.508323
957.815788,1036.288319,2368.659014,-10418.898773
957.816108,0.000000,2738.761985,-9806.022374
957.816427,-1702.473667,1850.514855,-9652.803275
957.816747,-2960.823768,518.144159,-8503.660028
957.817067,-296.082377,-2516.700203,-9729.412825
957.817387,1628.453072,-2886.803174,-10189.070123
957.817707,888.247130,-2812.782580,-9499.584175
957.818026,740.205942,0.000000,-9806.022374
957.818346,-222.061783,1258.350101,-9499.584175
957.818666,-1110.308913,3775.050304,-10189.070123
957.818986,-2738.761985,3701.029710,-9882.631924
957.819306,-4145.153275,1628.453072,-9882.631924
957.819625,-1406.391290,-2220.617826,-9729.412825
957.819945,2368.659014,-3627.009116,-9729.412825
957.820265,3997.112087,-3108.864956,-10342.289223
957.820585,-444.123565,222.061783,-10189.070123
957.820905,-1110.308913,1924.535449,-10035.851024
957.821225,74.020594,3552.988522,-9882.631924
957.821544,1702.473667,2886.803174,-10648.727422
957.821864,1924.535449,2516.700203,-10955.165621
957.822184,444.123565,1036.288319,-10495.508323
957.822504,740.205942,740.205942,-10572.117872
957.822824,814.226536,-1036.288319,-10801.946522
957.823143,740.205942,-888.247130,-9959.241474
957.823463,2738.761985,-1036.288319,-10725.336972
957.823783,2516.700203,518.144159,-10418.898773
957.824103,1998.556043,2146.597232,-10189.070123
957.824423,4145.153275,3330.926739,-10801.946522
957.824743,4737.318029,4515.256246,-10342.289223
957.825062,3256.906145,2220.617826,-9959.241474
957.825382,1998.556043,148.041188,-10265.679673
957.825702,1406.391290,-2368.659014,-9729.412825
957.826022,2442.679609,-3108.864956,-9806.022374
957.826342,370.102971,-2442.679609,-9652.803275
957.826662,666.185348,-1184.329507,-9193.145976
957.826981,-592.164754,518.144159,-9193.145976
957.827301,814.226536,296.082377,-8733.488677
957.827621,1850.514855,148.041188,-8963.317327
957.827941,0.000000,222.061783,-9806.022374
957.828261,-444.123565,1258.350101,-9959.241474
957.828581,2516.700203,666.185348,-9806.022374
957.828900,2368.659014,222.061783,-10112.460574
957.829220,1702.473667,-222.061783,-9806.022374
957.829540,-1480.411884,-1406.391290,-9193.145976
957.829860,-518.144159,-1184.329507,-9882.631924
957.830180,2368.659014,296.082377,-11031.775171
957.830500,370.102971,814.226536,-10878.556072
957.830819,-1554.432478,1998.556043,-10878.556072
957.831139,-4293.194464,2294.638420,-10572.117872
957.831459,-2368.659014,2664.741391,-11721.261119
957.831779,-222.061783,2072.576638,-10725.336972
957.832099,-1480.411884,1776.494261,-10955.165621
957.832419,-518.144159,444.123565,-10955.165621
957.832738,962.267725,-1110.308913,-10418.898773
957.833058,1036.288319,-888.247130,-10648.727422
957.833378,-2146.597232,1110.308913,-10648.727422
957.833698,-5625.565159,2220.617826,-10035.851024
957.834018,-2664.741391,3775.050304,-10418.898773
957.834338,1850.514855,1776.494261,-10189.070123
957.834657,2072.576638,-1110.308913,-9729.412825
957.834977,-740.205942,-3849.070898,-9116.536426
957.835297,-2368.659014,-4293.194464,-8810.098227
957.835617,-1110.308913,-1998.556043,-8963.317327
957.835937,2738.761985,962.267725,-11108.384721
957.836257,2738.761985,1480.411884,-8963.317327
957.836576,1480.411884,1554.432478,-9576.193725
957.836896,1036.288319,444.123565,-9193.145976
957.837216,1110.308913,-1110.308913,-7967.393179
957.837536,2220.617826,74.020594,-9576.193725
957.837856,370.102971,1110.308913,-9422.974625
957.838176,444.123565,814.226536,-10112.460574
957.838495,3478.967927,-888.247130,-9346.365076
957.838815,3478.967927,-2590.720797,-9576.193725
957.839135,-1998.556043,-962.267725,-9959.241474
957.839455,-3034.844362,444.123565,-10035.851024
957.839775,1406.391290,1628.453072,-10572.117872
957.840095,4589.276840,1110.308913,-10035.851024
957.840414,3849.070898,1332.370696,-10265.679673
957.840734,1702.473667,-148.041188,-10955.165621
957.841054,3701.029710,-1406.391290,-10648.727422
957.841374,5551.544565,-370.102971,-11184.994271
957.841694,4219.173869,1184.329507,-11108.384721
957.842014,1924.535449,3775.050304,-11338.213370
957.842333,-592.164754,2960.823768,-10801.946522
957.842653,-1036.288319,2960.823768,-10801.946522
957.842973,-3478.967927,518.144159,-10648.727422
957.843293,-2368.659014,-2960.823768,-10189.070123
957.843613,-1924.535449,-3404.947333,-9806.022374
957.843933,962.267725,-1628.453072,-10112.460574
957.844252,1480.411884,0.000000,-9959.241474
957.844572,1776.494261,1776.494261,-9806.022374
957.844892,1184.329507,3182.885551,-9806.022374
957.845212,740.205942,2146.597232,-10112.460574
957.845532,1332.370696,222.061783,-9269.755526
957.845852,1480.411884,-1332.370696,-8963.317327
957.846171,0.000000,-962.267725,-9422.974625
957.846491,0.000000,222.061783,-9806.022374
957.846811,-962.267725,2220.617826,-10265.679673
957.847131,444.123565,3775.050304,-10035.851024
957.847451,-3256.906145,2664.741391,-9806.022374
957.847771,-4589.276840,592.164754,-9269.755526
957.848091,-4737.318029,-2590.720797,-9576.193725
957.848410,-2664.741391,-3923.091493,-9116.536426
957.848730,-740.205942,-5181.441594,-10112.460574
957.849050,296.082377,-3552.988522,-9269.755526
957.849370,1258.350101,1258.350101,-10495.508323
957.849690,2072.576638,2220.617826,-11184.994271
957.850010,2516.700203,3627.009116,-9652.803275
957.850329,740.205942,3775.050304,-11414.822920
957.850649,-1480.411884,2442.679609,-9806.022374
957.850969,-3182.885551,74.020594,-10495.508323
957.851289,-814.226536,-1332.370696,-10418.898773
957.851609,370.102971,-3182.885551,-9806.022374
957.851929,-222.061783,-3330.926739,-9806.022374
957.852248,-222.061783,-1480.411884,-10189.070123
957.852568,814.226536,962.267725,-9959.241474
957.852888,3552.988522,3108.864956,-10495.508323
957.853208,4885.359217,3182.885551,-10725.336972
957.853528,2812.782580,2442.679609,-9959.241474
957.853848,-444.123565,0.000000,-9729.412825
957.854167,444.123565,-1628.453072,-9576.193725
957.854487,2220.617826,-1184.329507,-9729.412825
957.854807,3923.091493,74.020594,-10265.679673
957.855127,4441.235652,2960.823768,-9499.584175
957.855447,3330.926739,3552.988522,-9806.022374
957.855767,2812.782580,2664.741391,-9806.022374
957.856086,3552.988522,148.041188,-9652.803275
957.856406,2442.679609,-1924.535449,-9499.584175
957.856726,814.226536,-2294.638420,-9193.145976
957.857046,2220.617826,-592.164754,-9269.755526
957.857366,2072.576638,1406.391290,-10418.898773
957.857686,1998.556043,3627.009116,-9806.022374
