#time,accel_x,accel_y,accel_z
866.883241,666.185348,74.020594,-10189.070123
866.883561,666.185348,296.082377,-10265.679673
866.883881,814.226536,592.164754,-9499.584175
866.884201,592.164754,518.144159,-10112.460574
866.884521,518.144159,74.020594,-9959.241474
866.884841,444.123565,518.144159,-10265.679673
866.885161,592.164754,0.000000,-10189.070123
866.885481,444.123565,370.102971,-9806.022374
866.885801,1036.288319,222.061783,-9959.241474
866.886121,1036.288319,370.102971,-10495.508323
866.886441,0.000000,444.123565,-10265.679673
866.886761,0.000000,740.205942,-9806.022374
866.887081,0.000000,296.082377,-9959.241474
866.887401,592.164754,0.000000,-10189.070123
866.887721,148.041188,0.000000,-10265.679673
866.888041,296.082377,222.061783,-10418.898773
866.888361,666.185348,296.082377,-9882.631924
866.888681,888.247130,740.205942,-10265.679673
866.889001,666.185348,666.185348,-10112.460574
866.889321,74.020594,370.102971,-10342.289223
866.889641,74.020594,370.102971,-9652.803275
866.889961,74.020594,-222.061783,-9959.241474
866.890281,148.041188,-370.102971,-10035.851024
866.890601,-740.205942,-296.082377,-9806.022374
866.890921,-592.164754,-222.061783,-8810.098227
866.891240,0.000000,-222.061783,-9806.022374
866.891560,222.061783,-222.061783,-10035.851024
866.891880,-518.144159,-148.041188,-9882.631924
866.892200,-592.164754,-740.205942,-10418.898773
866.892520,74.020594,-962.267725,-9806.022374
866.892840,-222.061783,-740.205942,-9806.022374
866.893160,-962.267725,-740.205942,-10112.460574
866.893480,-1036.288319,-1036.288319,-9959.241474
866.893800,-518.144159,-666.185348,-9576.193725
866.894120,-814.226536,-666.185348,-10035.851024
866.894440,-1776.494261,-962.267725,-10112.460574
866.894760,-2368.659014,-1184.329507,-10112.460574
866.895080,-1554.432478,-1480.411884,-10189.070123
866.895400,-592.164754,-1332.370696,-9959.241474
866.895720,-1184.329507,-888.247130,-10112.460574
866.896040,-1850.514855,-1110.308913,-10112.460574
866.896360,-1406.391290,-1480.411884,-9806.022374
866.896680,-148.041188,-1332.370696,-9806.022374
866.897000,-222.061783,-1480.411884,-9882.631924
866.897320,-1776.494261,-2220.617826,-10189.070123
866.897640,-2442.679609,-3034.844362,-9806.022374
866.897960,-2738.761985,-3404.947333,-9576.193725
866.898280,-2220.617826,-3404.947333,-9806.022374
866.898600,-2294.638420,-3182.885551,-9729.412825
866.898920,-2442.679609,-3627.009116,-9806.022374
866.899239,-2294.638420,-3404.947333,-9652.803275
866.899559,-518.144159,-3034.844362,-9269.755526
866.899879,518.144159,-2220.617826,-10342.289223
866.900199,518.144159,-1480.411884,-10418.898773
866.900519,-962.267725,-1406.391290,-10572.117872
866.900839,-2146.597232,-1332.370696,-10189.070123
866.901159,-2738.761985,-2590.720797,-10189.070123
866.901479,-3923.091493,-3478.967927,-9652.803275
866.901799,-5107.421000,-4737.318029,-9652.803275
866.902119,-4737.318029,-5625.565159,-9729.412825
866.902439,-2590.720797,-5329.482782,-9422.974625
866.902759,-592.164754,-4293.194464,-10265.679673
866.903079,370.102971,-2368.659014,-10495.508323
866.903399,592.164754,-296.082377,-10878.556072
866.903719,2072.576638,814.226536,-10801.946522
866.904039,1998.556043,962.267725,-10725.336972
866.904359,1554.432478,0.000000,-10572.117872
866.904679,0.000000,-1702.473667,-10648.727422
866.904999,-1702.473667,-3256.906145,-10342.289223
866.905319,-3108.864956,-3775.050304,-10265.679673
866.905639,-5033.400406,-4737.318029,-9652.803275
866.905959,-5773.606348,-4959.379811,-9422.974625
866.906279,-3997.112087,-4811.338623,-9269.755526
866.906599,-1110.308913,-4737.318029,-8427.050478
866.906919,1184.329507,-3034.844362,-9882.631924
866.907239,2072.576638,-1850.514855,-9959.241474
866.907558,3182.885551,0.000000,-10035.851024
866.907878,4811.338623,1628.453072,-10801.946522
866.908198,4589.276840,2368.659014,-11338.213370
866.908518,666.185348,296.082377,-10801.946522
866.908838,-3404.947333,-1850.514855,-9882.631924
866.909158,-5625.565159,-3849.070898,-9806.022374
866.909478,-4663.297435,-6217.729913,-9576.193725
866.909798,-3775.050304,-6439.791695,-9499.584175
866.910118,-3849.070898,-5773.606348,-9576.193725
866.910438,-2886.803174,-4293.194464,-9269.755526
866.910758,-370.102971,-888.247130,-10035.851024
866.911078,2146.597232,1776.494261,-10265.679673
866.911398,2368.659014,2886.803174,-10648.727422
866.911718,2072.576638,2294.638420,-10495.508323
866.912038,2368.659014,1036.288319,-10648.727422
866.912358,1924.535449,296.082377,-10648.727422
866.912678,-1184.329507,-222.061783,-10801.946522
866.912998,-4293.194464,-1258.350101,-10035.851024
866.913318,-5625.565159,-1924.535449,-9959.241474
866.913638,-6587.832884,-2738.761985,-10112.460574
866.913958,-7550.100608,-4589.276840,-9346.365076
866.914278,-6291.750507,-5699.585753,-9039.926876
866.914598,-3256.906145,-4737.318029,-9652.803275
866.914918,888.247130,-1258.350101,-9959.241474
866.915238,3256.906145,1850.514855,-10572.117872
866.915557,2294.638420,5033.400406,-10648.727422
866.915877,1036.288319,5181.441594,-10342.289223
866.916197,814.226536,3849.070898,-10955.165621
866.916517,1554.432478,444.123565,-10342.289223
866.916837,-888.247130,-2738.761985,-10418.898773
866.917157,-3627.009116,-4959.379811,-9882.631924
866.917477,-6957.935855,-5255.462188,-9499.584175
866.917797,-9104.533087,-3775.050304,-9193.145976
866.918117,-7328.038826,-3330.926739,-8963.317327
866.918437,-4885.359217,-2960.823768,-9422.974625
866.918757,74.020594,-4441.235652,-9346.365076
866.919077,3182.885551,-3775.050304,-10265.679673
866.919397,3849.070898,-1406.391290,-10495.508323
866.919717,3849.070898,1184.329507,-10342.289223
866.920037,4071.132681,3849.070898,-10648.727422
866.920357,3997.112087,4515.256246,-10801.946522
866.920677,1480.411884,2368.659014,-10878.556072
866.920997,-2664.741391,-1036.288319,-10342.289223
866.921317,-6069.688724,-4959.379811,-10035.851024
866.921637,-7031.956449,-6809.894666,-9346.365076
866.921957,-6217.729913,-7550.100608,-9422.974625
866.922277,-4515.256246,-7402.059420,-10112.460574
866.922597,-4515.256246,-6883.915261,-9193.145976
866.922917,-3182.885551,-3627.009116,-9806.022374
866.923237,0.000000,0.000000,-10112.460574
866.923557,4959.379811,2220.617826,-10725.336972
866.923876,7476.080014,3775.050304,-12334.137518
866.924196,4145.153275,2442.679609,-11414.822920
866.924516,0.000000,74.020594,-10572.117872
866.924836,-2516.700203,-2812.782580,-10265.679673
866.925156,-2664.741391,-6217.729913,-9959.241474
866.925476,-4293.194464,-6439.791695,-9806.022374
866.925796,-7550.100608,-6809.894666,-9576.193725
866.926116,-7476.080014,-7328.038826,-8886.707777
866.926436,-4737.318029,-5329.482782,-9499.584175
866.926756,-1480.411884,-3997.112087,-9806.022374
866.927076,-740.205942,-2590.720797,-9959.241474
866.927396,-1332.370696,-814.226536,-10418.898773
866.927716,222.061783,-814.226536,-9576.193725
866.928036,2664.741391,-1110.308913,-10801.946522
866.928356,4737.318029,740.205942,-10418.898773
866.928676,2664.741391,74.020594,-10955.165621
866.928996,370.102971,-1776.494261,-10648.727422
866.929316,-1998.556043,-3034.844362,-9806.022374
866.929636,-5181.441594,-3923.091493,-10112.460574
866.929956,-7402.059420,-4737.318029,-9576.193725
866.930276,-6883.915261,-6069.688724,-9346.365076
866.930596,-3997.112087,-5255.462188,-9806.022374
866.930916,-1702.473667,-3701.029710,-10342.289223
866.931236,-666.185348,-2590.720797,-10035.851024
866.931556,1332.370696,-1110.308913,-10418.898773
866.931876,3108.864956,370.102971,-10572.117872
866.932195,3034.844362,0.000000,-11031.775171
866.932515,1480.411884,148.041188,-10265.679673
866.932835,592.164754,0.000000,-10495.508323
866.933155,1184.329507,-962.267725,-10572.117872
866.933475,1110.308913,-222.061783,-10648.727422
866.933795,-1628.453072,-2738.761985,-9959.241474
866.934115,-3627.009116,-4071.132681,-9959.241474
866.934435,-5033.400406,-3849.070898,-9806.022374
866.934755,-4367.215058,-3404.947333,-9729.412825
866.935075,-2516.700203,-2368.659014,-9576.193725
866.935395,-518.144159,-2146.597232,-9499.584175
866.935715,1702.473667,-1332.370696,-10112.460574
866.936035,1998.556043,444.123565,-9806.022374
866.936355,74.020594,2516.700203,-10725.336972
866.936675,-1924.535449,3478.967927,-10265.679673
866.936995,-1924.535449,2072.576638,-10189.070123
866.937315,1628.453072,-888.247130,-9806.022374
866.937635,740.205942,-2146.597232,-10112.460574
866.937955,-2368.659014,-2220.617826,-10418.898773
866.938275,-3108.864956,-2294.638420,-10035.851024
866.938595,-2886.803174,-2368.659014,-10035.851024
866.938915,-3182.885551,-592.164754,-9576.193725
866.939235,-2294.638420,518.144159,-9269.755526
866.939555,444.123565,518.144159,-9959.241474
866.939874,1628.453072,888.247130,-10112.460574
866.940194,962.267725,2072.576638,-11491.432470
866.940514,962.267725,2664.741391,-10955.165621
866.940834,962.267725,1702.473667,-11184.994271
866.941154,1702.473667,1998.556043,-10189.070123
866.941474,1406.391290,814.226536,-10342.289223
866.941794,-222.061783,-148.041188,-10112.460574
866.942114,-1332.370696,-1628.453072,-10112.460574
866.942434,-1702.473667,-1554.432478,-9806.022374
866.942754,-1554.432478,-1776.494261,-9882.631924
866.943074,-1776.494261,-1554.432478,-9882.631924
866.943394,-1480.411884,-1850.514855,-9729.412825
866.943714,1184.329507,-592.164754,-9193.145976
866.944034,3775.050304,2368.659014,-10572.117872
866.944354,4885.359217,3182.885551,-11031.775171
866.944674,3330.926739,1850.514855,-11031.775171
866.944994,1480.411884,814.226536,-10265.679673
866.945314,0.000000,-814.226536,-9269.755526
866.945634,444.123565,-962.267725,-9499.584175
866.945953,296.082377,-1628.453072,-9882.631924
866.946273,-1628.453072,-3330.926739,-9959.241474
866.946593,-1628.453072,-3330.926739,-9269.755526
866.946913,-1628.453072,-1628.453072,-9116.536426
866.947233,-1924.535449,296.082377,-9729.412825
866.947553,0.000000,370.102971,-10342.289223
866.947873,2590.720797,444.123565,-9269.755526
866.948193,2738.761985,-370.102971,-9959.241474
866.948513,2220.617826,518.144159,-10265.679673
866.948833,1110.308913,1924.535449,-10572.117872
866.949153,0.000000,1998.556043,-10418.898773
866.949473,222.061783,2146.597232,-10265.679673
866.949793,1406.391290,444.123565,-10189.070123
866.950113,370.102971,-1554.432478,-10801.946522
866.950433,-1998.556043,-4145.153275,-10495.508323
866.950753,-2368.659014,-4441.235652,-10112.460574
866.951073,-3775.050304,-148.041188,-10418.898773
866.951393,-1850.514855,2146.597232,-10495.508323
866.951713,814.226536,1554.432478,-10648.727422
866.952033,2442.679609,1184.329507,-10801.946522
866.952352,1628.453072,518.144159,-11108.384721
866.952672,888.247130,518.144159,-11797.870669
866.952992,444.123565,0.000000,-10112.460574
866.953312,-518.144159,666.185348,-10112.460574
866.953632,962.267725,1184.329507,-9346.365076
866.953952,1036.288319,148.041188,-10189.070123
866.954272,-444.123565,-2072.576638,-10112.460574
866.954592,-2442.679609,-3404.947333,-9652.803275
866.954912,-2220.617826,-4219.173869,-9039.926876
866.955232,-1480.411884,-2072.576638,-9346.365076
866.955552,814.226536,-888.247130,-9499.584175
866.955872,1628.453072,1110.308913,-9806.022374
866.956192,2516.700203,1258.350101,-9499.584175
866.956512,3182.885551,962.267725,-9959.241474
866.956832,3182.885551,296.082377,-9806.022374
866.957152,2072.576638,-518.144159,-9576.193725
866.957472,1110.308913,-888.247130,-9193.145976
866.957792,1480.411884,-1110.308913,-10418.898773
866.958112,1036.288319,-1702.473667,-9729.412825
866.958431,-666.185348,-814.226536,-10189.070123
866.958751,-2072.576638,518.144159,-9882.631924
866.959071,-1998.556043,1036.288319,-10265.679673
866.959391,74.020594,518.144159,-10801.946522
866.959711,2368.659014,-592.164754,-9959.241474
866.960031,4219.173869,-296.082377,-10418.898773
866.960351,4441.235652,296.082377,-10725.336972
866.960671,4219.173869,814.226536,-11261.603821
866.960991,1628.453072,1628.453072,-10572.117872
866.961311,0.000000,1184.329507,-11108.384721
866.961631,-814.226536,2146.597232,-10342.289223
866.961951,-1850.514855,3256.906145,-11031.775171
866.962271,-1998.556043,2368.659014,-11031.775171
866.962591,-296.082377,296.082377,-10955.165621
866.962911,-592.164754,-888.247130,-10725.336972
866.963231,-740.205942,-814.226536,-10342.289223
866.963551,-814.226536,-444.123565,-9499.584175
866.963871,1776.494261,-740.205942,-10189.070123
866.964191,2812.782580,1776.494261,-9882.631924
866.964510,2590.720797,3330.926739,-10648.727422
866.964830,1258.350101,3182.885551,-10265.679673
866.965150,-296.082377,1480.411884,-9959.241474
866.965470,-888.247130,1850.514855,-9806.022374
866.965790,-1554.432478,-888.247130,-10495.508323
866.966110,0.000000,-2960.823768,-8810.098227
866.966430,1406.391290,-2738.761985,-9193.145976
866.966750,-1628.453072,-592.164754,-9882.631924
866.967070,-5403.503377,370.102971,-9806.022374
866.967390,-5181.441594,148.041188,-9499.584175
866.967710,666.185348,0.000000,-10112.460574
866.968030,2738.761985,666.185348,-9806.022374
866.968350,1628.453072,0.000000,-10265.679673
866.968670,1110.308913,-592.164754,-9959.241474
866.968990,1036.288319,2072.576638,-10725.336972
866.969310,-444.123565,2516.700203,-11874.480219
866.969630,-962.267725,1184.329507,-10342.289223
866.969950,0.000000,1776.494261,-10495.508323
866.970270,-296.082377,-740.205942,-10878.556072
866.970589,-296.082377,-1702.473667,-10342.289223
866.970909,-296.082377,-962.267725,-10265.679673
866.971229,296.082377,-222.061783,-10265.679673
866.971549,2368.659014,1628.453072,-10265.679673
866.971869,3256.906145,1554.432478,-10572.117872
866.972189,3182.885551,1258.350101,-10495.508323
866.972509,2294.638420,2442.679609,-10342.289223
866.972829,1554.432478,1776.494261,-10648.727422
866.973149,518.144159,2294.638420,-10035.851024
866.973469,296.082377,2442.679609,-10112.460574
866.973789,518.144159,1184.329507,-9806.022374
866.974109,1110.308913,-1110.308913,-9806.022374
866.974429,1036.288319,-814.226536,-10035.851024
866.974749,1554.432478,-1702.473667,-9806.022374
866.975069,962.267725,-666.185348,-9346.365076
866.975389,592.164754,-148.041188,-9269.755526
866.975709,1036.288319,-222.061783,-9269.755526
866.976029,2368.659014,148.041188,-9806.022374
866.976349,3552.988522,814.226536,-10265.679673
866.976668,3775.050304,592.164754,-10418.898773
866.976988,1554.432478,1480.411884,-10035.851024
866.977308,1258.350101,2738.761985,-10265.679673
866.977628,1628.453072,2812.782580,-10572.117872
866.977948,1628.453072,370.102971,-10648.727422
866.978268,222.061783,-2072.576638,-9806.022374
866.978588,-2146.597232,-1924.535449,-10035.851024
866.978908,-1184.329507,-1332.370696,-10035.851024
866.979228,-518.144159,0.000000,-9499.584175
866.979548,592.164754,-296.082377,-10418.898773
866.979868,1628.453072,296.082377,-10265.679673
866.980188,2368.659014,-814.226536,-9882.631924
866.980508,3034.844362,1036.288319,-10342.289223
866.980828,666.185348,2072.576638,-10572.117872
866.981148,-1702.473667,2220.617826,-10418.898773
866.981468,-2072.576638,1036.288319,-9882.631924
866.981788,-1332.370696,592.164754,-9652.803275
866.982108,-518.144159,-296.082377,-9882.631924
866.982428,-666.185348,-1406.391290,-10495.508323
866.982747,-666.185348,-2294.638420,-9882.631924
866.983067,-1258.350101,-2516.700203,-9806.022374
866.983387,-1924.535449,-1480.411884,-9269.755526
866.983707,-1554.432478,-592.164754,-9729.412825
866.984027,-814.226536,444.123565,-9729.412825
866.984347,148.041188,296.082377,-10495.508323
866.984667,518.144159,518.144159,-10418.898773
866.984987,-1036.288319,1480.411884,-9882.631924
866.985307,-666.185348,1332.370696,-10035.851024
866.985627,1110.308913,1554.432478,-10189.070123
866.985947,1554.432478,0.000000,-10418.898773
866.986267,444.123565,-1110.308913,-9729.412825
866.986587,-1702.473667,-2886.803174,-10112.460574
866.986907,-2886.803174,-2220.617826,-10265.679673
866.987227,-2294.638420,-1702.473667,-9346.365076
866.987547,-814.226536,-444.123565,-9806.022374
866.987867,0.000000,888.247130,-9806.022374
866.988187,1258.350101,0.000000,-10495.508323
866.988507,2294.638420,148.041188,-10418.898773
866.988826,4145.153275,888.247130,-10035.851024
866.989146,2664.741391,1184.329507,-9806.022374
866.989466,-740.205942,-518.144159,-9959.241474
866.989786,-148.041188,-1406.391290,-9959.241474
866.990106,296.082377,-1998.556043,-9576.193725
866.990426,0.000000,-2072.576638,-9959.241474
866.990746,-592.164754,1184.329507,-9959.241474
866.991066,-1036.288319,3108.864956,-10189.070123
866.991386,518.144159,3182.885551,-10189.070123
866.991706,2738.761985,2072.576638,-10035.851024
866.992026,2590.720797,666.185348,-9882.631924
866.992346,2664.741391,-1554.432478,-10035.851024
866.992666,3330.926739,-1332.370696,-10112.460574
866.992986,1998.556043,814.226536,-10112.460574
866.993306,1850.514855,1036.288319,-9806.022374
866.993626,2368.659014,3404.947333,-10342.289223
866.993946,888.247130,3182.885551,-10035.851024
866.994266,962.267725,2368.659014,-10955.165621
866.994586,2442.679609,888.247130,-10495.508323
866.994905,296.082377,-1036.288319,-9346.365076
866.995225,518.144159,-814.226536,-9576.193725
866.995545,666.185348,-814.226536,-9652.803275
866.995865,1258.350101,296.082377,-10035.851024
866.996185,2146.597232,888.247130,-10035.851024
866.996505,888.247130,1850.514855,-10495.508323
866.996825,592.164754,4071.132681,-10572.117872
866.997145,370.102971,5033.400406,-10572.117872
866.997465,1850.514855,3034.844362,-10801.946522
866.997785,2442.679609,-296.082377,-9806.022374
866.998105,-222.061783,-3404.947333,-9422.974625
866.998425,-1332.370696,-1924.535449,-9729.412825
866.998745,-1184.329507,0.000000,-9806.022374
866.999065,-1776.494261,592.164754,-9729.412825
866.999385,296.082377,2368.659014,-9882.631924
866.999705,370.102971,1332.370696,-9729.412825
867.000025,1628.453072,814.226536,-10189.070123
867.000345,1110.308913,0.000000,-9806.022374
867.000665,1332.370696,740.205942,-10418.898773
867.000984,222.061783,-148.041188,-9499.584175
867.001304,-592.164754,-666.185348,-10189.070123
867.001624,0.000000,-444.123565,-9193.145976
867.001944,-1332.370696,0.000000,-10189.070123
867.002264,-1184.329507,592.164754,-10725.336972
867.002584,1258.350101,1998.556043,-10725.336972
867.002904,74.020594,2442.679609,-10801.946522
867.003224,296.082377,2294.638420,-10112.460574
867.003544,148.041188,0.000000,-10572.117872
867.003864,222.061783,-296.082377,-10189.070123
867.004184,0.000000,1036.288319,-10572.117872
867.004504,444.123565,1850.514855,-11031.775171
867.004824,1036.288319,2590.720797,-10648.727422
867.005144,1554.432478,2294.638420,-10035.851024
867.005464,888.247130,962.267725,-10342.289223
867.005784,74.020594,-962.267725,-10112.460574
867.006104,-370.102971,-1406.391290,-10035.851024
867.006424,-1110.308913,-1998.556043,-10495.508323
867.006744,-296.082377,-740.205942,-10112.460574
867.007063,-888.247130,-222.061783,-10572.117872
867.007383,-962.267725,-1702.473667,-9576.193725
867.007703,518.144159,-370.102971,-10035.851024
867.008023,1184.329507,2368.659014,-10342.289223
867.008343,2220.617826,4441.235652,-10725.336972
867.008663,1036.288319,3330.926739,-10648.727422
867.008983,296.082377,1258.350101,-9882.631924
867.009303,2072.576638,-2664.741391,-9346.365076
867.009623,1924.535449,-4663.297435,-9499.584175
867.009943,1850.514855,-1554.432478,-9959.241474
867.010263,296.082377,1110.308913,-9806.022374
867.010583,592.164754,2590.720797,-10342.289223
867.010903,148.041188,2368.659014,-9806.022374
867.011223,-1554.432478,1184.329507,-9806.022374
867.011543,-814.226536,-740.205942,-9346.365076
867.011863,1850.514855,-1628.453072,-9729.412825
867.012183,3034.844362,-962.267725,-10648.727422
867.012503,2220.617826,-222.061783,-9806.022374
867.012823,592.164754,74.020594,-9499.584175
867.013142,-518.144159,888.247130,-9576.193725
867.013462,1554.432478,1554.432478,-10418.898773
867.013782,1776.494261,814.226536,-9882.631924
867.014102,1332.370696,1554.432478,-10648.727422
867.014422,1924.535449,1702.473667,-10725.336972
867.014742,1036.288319,1628.453072,-10801.946522
867.015062,-1258.350101,1258.350101,-9806.022374
867.015382,-1480.411884,-1406.391290,-9729.412825
867.015702,1776.494261,-1924.535449,-9499.584175
867.016022,1110.308913,-1332.370696,-10878.556072
867.016342,1554.432478,1184.329507,-10418.898773
867.016662,-962.267725,2516.700203,-10418.898773
867.016982,-592.164754,4071.132681,-10648.727422
867.017302,1258.350101,2146.597232,-10265.679673
867.017622,740.205942,0.000000,-10265.679673
867.017942,814.226536,-1480.411884,-9652.803275
867.018262,-740.205942,-2146.597232,-10265.679673
867.018582,-814.226536,-666.185348,-10035.851024
867.018902,-444.123565,962.267725,-9729.412825
867.019221,-592.164754,3404.947333,-10189.070123
867.019541,148.041188,1776.494261,-10112.460574
867.019861,1628.453072,0.000000,-10112.460574
867.020181,1480.411884,-740.205942,-10418.898773
867.020501,444.123565,-740.205942,-9959.241474
867.020821,-148.041188,296.082377,-9806.022374
867.021141,74.020594,592.164754,-9806.022374
867.021461,2220.617826,0.000000,-9882.631924
867.021781,2220.617826,-148.041188,-10112.460574
867.022101,1850.514855,0.000000,-10035.851024
867.022421,888.247130,296.082377,-10035.851024
867.022741,296.082377,370.102971,-9882.631924
867.023061,814.226536,444.123565,-9806.022374
867.023381,-222.061783,-1554.432478,-9576.193725
867.023701,222.061783,-1924.535449,-9806.022374
867.024021,-1036.288319,-1480.411884,-9422.974625
867.024341,0.000000,888.247130,-10342.289223
867.024661,592.164754,1998.556043,-10495.508323
867.024981,1110.308913,2294.638420,-10189.070123
867.025300,666.185348,1554.432478,-9959.241474
867.025620,-148.041188,0.000000,-9882.631924
867.025940,-222.061783,222.061783,-10495.508323
867.026260,-1480.411884,666.185348,-10189.070123
867.026580,814.226536,74.020594,-10572.117872
867.026900,-370.102971,518.144159,-9729.412825
867.027220,-592.164754,-1332.370696,-10342.289223
867.027540,-370.102971,-1628.453072,-9806.022374
867.027860,-740.205942,74.020594,-10265.679673
867.028180,888.247130,2220.617826,-10418.898773
867.028500,2220.617826,2368.659014,-10342.289223
867.028820,1406.391290,1702.473667,-10801.946522
867.029140,148.041188,-296.082377,-9806.022374
867.029460,0.000000,-1554.432478,-10112.460574
867.029780,444.123565,0.000000,-10112.460574
867.030100,222.061783,1924.535449,-10189.070123
867.030420,-296.082377,2812.782580,-9806.022374
867.030740,-888.247130,3627.009116,-9806.022374
867.031060,-444.123565,1924.535449,-9499.584175
867.031379,814.226536,-148.041188,-9806.022374
867.031699,2590.720797,-1184.329507,-9499.584175
867.032019,3330.926739,-592.164754,-9729.412825
867.032339,1628.453072,-962.267725,-9806.022374
867.032659,1332.370696,0.000000,-9346.365076
867.032979,0.000000,1110.308913,-9576.193725
867.033299,888.247130,2294.638420,-10878.556072
867.033619,2516.700203,2442.679609,-10189.070123
867.033939,2146.597232,518.144159,-10725.336972
867.034259,3256.906145,296.082377,-10572.117872
867.034579,1480.411884,-592.164754,-9729.412825
867.034899,-370.102971,0.000000,-10035.851024
867.035219,-222.061783,370.102971,-9959.241474
867.035539,1480.411884,296.082377,-10878.556072
867.035859,1184.329507,2590.720797,-10342.289223
867.036179,1184.329507,2590.720797,-10801.946522
867.036499,370.102971,1332.370696,-10495.508323
867.036819,0.000000,74.020594,-10418.898773
867.037139,1554.432478,0.000000,-10572.117872
867.037458,3923.091493,222.061783,-10572.117872
867.037778,3775.050304,2294.638420,-11184.994271
867.038098,296.082377,1554.432478,-10725.336972
867.038418,0.000000,888.247130,-10648.727422
867.038738,-1850.514855,370.102971,-9729.412825
867.039059,-1554.432478,1184.329507,-8733.488677
867.039379,148.041188,0.000000,-9729.412825
867.039699,1406.391290,-1702.473667,-9729.412825
867.040019,1998.556043,-2664.741391,-9729.412825
867.040339,148.041188,-1850.514855,-10955.165621
867.040659,-1850.514855,666.185348,-9729.412825
867.040979,-2664.741391,2812.782580,-9576.193725
867.041299,-592.164754,2072.576638,-10495.508323
867.041619,1628.453072,1036.288319,-9882.631924
867.041939,1406.391290,-1110.308913,-10801.946522
867.042259,444.123565,-2590.720797,-9959.241474
867.042580,-296.082377,-2072.576638,-9652.803275
867.042900,-444.123565,-370.102971,-9806.022374
867.043220,-296.082377,148.041188,-10189.070123
867.043540,296.082377,0.000000,-9499.584175
867.043860,-1332.370696,222.061783,-9806.022374
867.044180,-1628.453072,-296.082377,-10725.336972
867.044500,-1850.514855,-1184.329507,-10342.289223
867.044820,-1924.535449,-296.082377,-9882.631924
867.045140,-888.247130,370.102971,-10572.117872
867.045460,1184.329507,740.205942,-10342.289223
867.045780,888.247130,1036.288319,-10878.556072
867.046100,74.020594,1776.494261,-10878.556072
867.046421,-148.041188,1332.370696,-10725.336972
867.046741,-518.144159,1036.288319,-10418.898773
867.047061,-1036.288319,-444.123565,-9806.022374
867.047381,444.123565,-2368.659014,-10189.070123
867.047701,962.267725,-1924.535449,-9422.974625
867.048021,814.226536,-1628.453072,-10265.679673
867.048341,1110.308913,0.000000,-10725.336972
867.048661,888.247130,1406.391290,-9806.022374
867.048981,370.102971,2442.679609,-11184.994271
867.049301,814.226536,2294.638420,-10418.898773
867.049621,1850.514855,296.082377,-9652.803275
867.049942,3330.926739,74.020594,-10265.679673
867.050262,2220.617826,1036.288319,-10418.898773
867.050582,-592.164754,2072.576638,-9806.022374
867.050902,-444.123565,2220.617826,-10189.070123
867.051222,74.020594,1258.350101,-9499.584175
867.051542,1406.391290,-370.102971,-9729.412825
867.051862,2442.679609,-1628.453072,-9576.193725
867.052182,1184.329507,-1850.514855,-10189.070123
867.052502,518.144159,-814.226536,-9652.803275
867.052822,592.164754,1702.473667,-9806.022374
867.053142,2590.720797,3034.844362,-10112.460574
867.053463,2664.741391,3182.885551,-10572.117872
867.053783,2220.617826,1702.473667,-10648.727422
867.054103,1406.391290,518.144159,-10342.289223
867.054423,518.144159,-814.226536,-9806.022374
867.054743,592.164754,74.020594,-9806.022374
867.055063,740.205942,1036.288319,-10265.679673
867.055383,1924.535449,1036.288319,-10955.165621
867.055703,1036.288319,1406.391290,-10648.727422
867.056023,-2072.576638,814.226536,-10189.070123
867.056343,-1776.494261,1258.350101,-10035.851024
867.056663,-296.082377,1036.288319,-10342.289223
867.056984,1332.370696,-148.041188,-10035.851024
867.057304,3923.091493,-740.205942,-10035.851024
867.057624,2368.659014,-222.061783,-9806.022374
867.057944,-370.102971,-814.226536,-9806.022374
867.058264,-296.082377,370.102971,-10112.460574
867.058584,-1628.453072,2072.576638,-9882.631924
867.058904,-814.226536,2072.576638,-9806.022374
867.059224,-1110.308913,888.247130,-9576.193725
867.059544,-740.205942,-370.102971,-10112.460574
867.059864,370.102971,-1184.329507,-9806.022374
867.060184,518.144159,-888.247130,-9806.022374
867.060505,370.102971,518.144159,-9576.193725
867.060825,148.041188,444.123565,-9652.803275
867.061145,592.164754,444.123565,-9806.022374
867.061465,814.226536,370.102971,-9882.631924
867.061785,370.102971,740.205942,-9729.412825
867.062105,444.123565,1554.432478,-9499.584175
867.062425,1110.308913,296.082377,-10112.460574
867.062745,1332.370696,74.020594,-9959.241474
867.063065,0.000000,-962.267725,-10189.070123
867.063385,-1036.288319,-740.205942,-9422.974625
867.063705,-814.226536,-1628.453072,-9652.803275
867.064026,-740.205942,-740.205942,-10495.508323
867.064346,222.061783,592.164754,-10572.117872
867.064666,74.020594,888.247130,-11031.775171
867.064986,-666.185348,518.144159,-10112.460574
867.065306,592.164754,-370.102971,-10189.070123
867.065626,1406.391290,-1258.350101,-10572.117872
867.065946,814.226536,0.000000,-10725.336972
867.066266,-666.185348,962.267725,-10265.679673
867.066586,814.226536,1480.411884,-10572.117872
867.066906,0.000000,1406.391290,-10342.289223
867.067226,444.123565,0.000000,-10572.117872
867.067547,-148.041188,-888.247130,-10265.679673
867.067867,0.000000,-1628.453072,-10418.898773
867.068187,518.144159,-1036.288319,-10495.508323
867.068507,1184.329507,962.267725,-10035.851024
867.068827,-370.102971,1480.411884,-10878.556072
867.069147,-1332.370696,1628.453072,-9422.974625
867.069467,-1702.473667,444.123565,-10418.898773
867.069787,0.000000,-814.226536,-9499.584175
867.070107,2738.761985,-814.226536,-10035.851024
867.070427,1110.308913,666.185348,-10495.508323
867.070747,1184.329507,2220.617826,-9806.022374
867.071068,1110.308913,2146.597232,-10495.508323
867.071388,740.205942,0.000000,-9576.193725
867.071708,518.144159,-1924.535449,-9806.022374
867.072028,-296.082377,-1850.514855,-9499.584175
867.072348,444.123565,-444.123565,-9652.803275
867.072668,74.020594,1702.473667,-9959.241474
867.072988,0.000000,2294.638420,-9882.631924
867.073308,1332.370696,2294.638420,-11414.822920
867.073628,3330.926739,1258.350101,-9882.631924
867.073948,3997.112087,-370.102971,-10035.851024
867.074268,1702.473667,-444.123565,-10112.460574
867.074588,-370.102971,-592.164754,-9806.022374
867.074909,-814.226536,-444.123565,-10955.165621
867.075229,-1036.288319,-222.061783,-9806.022374
867.075549,-296.082377,-444.123565,-10189.070123
867.075869,74.020594,0.000000,-10495.508323
867.076189,1110.308913,-148.041188,-10648.727422
867.076509,1480.411884,1924.535449,-10878.556072
867.076829,740.205942,1850.514855,-10265.679673
867.077149,296.082377,-148.041188,-10265.679673
867.077469,1406.391290,-1258.350101,-10189.070123
867.077789,2072.576638,-1998.556043,-10265.679673
867.078109,2220.617826,-370.102971,-10801.946522
867.078430,2368.659014,1332.370696,-10265.679673
867.078750,370.102971,3330.926739,-10878.556072
867.079070,296.082377,4071.132681,-10955.165621
867.079390,370.102971,1406.391290,-10572.117872
867.079710,74.020594,-888.247130,-10572.117872
867.080030,-1554.432478,-2220.617826,-9652.803275
867.080350,-2072.576638,-1628.453072,-9806.022374
867.080670,-1776.494261,-444.123565,-9499.584175
867.080990,-296.082377,-222.061783,-9882.631924
867.081310,666.185348,1480.411884,-9806.022374
867.081630,74.020594,518.144159,-9882.631924
867.081951,1924.535449,444.123565,-9729.412825
867.082271,3256.906145,296.082377,-9882.631924
867.082591,2368.659014,0.000000,-9882.631924
867.082911,2220.617826,148.041188,-9729.412825
867.083231,74.020594,-1554.432478,-9576.193725
867.083551,-370.102971,-2368.659014,-10035.851024
867.083871,-148.041188,-1628.453072,-9806.022374
867.084191,-592.164754,740.205942,-10572.117872
867.084511,-1258.350101,1332.370696,-9806.022374
867.084831,-1258.350101,1480.411884,-9959.241474
867.085151,-518.144159,740.205942,-10572.117872
867.085472,-518.144159,-1036.288319,-10342.289223
867.085792,-222.061783,-1998.556043,-10265.679673
867.086112,-222.061783,-2220.617826,-10189.070123
867.086432,-888.247130,-962.267725,-9806.022374
867.086752,-296.082377,1258.350101,-10342.289223
867.087072,444.123565,1998.556043,-10495.508323
867.087392,1628.453072,1184.329507,-10572.117872
867.087712,1924.535449,666.185348,-10265.679673
867.088032,1258.350101,0.000000,-10725.336972
867.088352,592.164754,-740.205942,-10418.898773
867.088672,-740.205942,0.000000,-9959.241474
867.088993,-1406.391290,444.123565,-9882.631924
867.089313,370.102971,296.082377,-10112.460574
867.089633,962.267725,518.144159,-10265.679673
867.089953,1110.308913,0.000000,-10495.508323
867.090273,814.226536,1406.391290,-10725.336972
867.090593,148.041188,2590.720797,-10265.679673
867.090913,888.247130,3034.844362,-10495.508323
867.091233,1110.308913,2590.720797,-9882.631924
867.091553,1332.370696,1406.391290,-9959.241474
867.091873,666.185348,222.061783,-9576.193725
867.092193,1924.535449,-1924.535449,-9652.803275
867.092514,1998.556043,-1998.556043,-9193.145976
867.092834,2812.782580,-1776.494261,-8886.707777
867.093154,3034.844362,-592.164754,-9729.412825
867.093474,3182.885551,814.226536,-10035.851024
867.093794,2072.576638,2812.782580,-9882.631924
867.094114,814.226536,2812.782580,-10495.508323
867.094434,0.000000,2368.659014,-9882.631924
867.094754,222.061783,222.061783,-9116.536426
867.095074,1480.411884,-1184.329507,-10035.851024
867.095394,1184.329507,-2812.782580,-9422.974625
867.095714,1850.514855,-1332.370696,-9959.241474
867.096035,222.061783,814.226536,-10035.851024
867.096355,-296.082377,2072.576638,-9806.022374
867.096675,-814.226536,3404.947333,-10265.679673
867.096995,-444.123565,2368.659014,-10342.289223
867.097315,814.226536,-222.061783,-10265.679673
867.097635,1258.350101,-1998.556043,-9959.241474
867.097955,1036.288319,-1998.556043,-9882.631924
867.098275,1628.453072,-1110.308913,-10265.679673
867.098595,-296.082377,962.267725,-10265.679673
867.098915,-1554.432478,2368.659014,-10112.460574
867.099235,-1036.288319,2368.659014,-10035.851024
867.099556,-666.185348,1628.453072,-10648.727422
867.099876,296.082377,888.247130,-10725.336972
867.100196,-518.144159,-370.102971,-10265.679673
867.100516,-1332.370696,148.041188,-10112.460574
867.100836,-370.102971,-1702.473667,-9499.584175
867.101156,888.247130,-1110.308913,-9806.022374
867.101476,888.247130,-444.123565,-9806.022374
867.101796,296.082377,1702.473667,-9806.022374
867.102116,74.020594,1924.535449,-10801.946522
867.102436,666.185348,1184.329507,-9959.241474
867.102756,-370.102971,0.000000,-9652.803275
867.103077,-1184.329507,-1776.494261,-9729.412825
867.103397,-1184.329507,-2072.576638,-9576.193725
867.103717,-666.185348,-1184.329507,-9806.022374
867.104037,0.000000,-222.061783,-9959.241474
867.104357,592.164754,296.082377,-10189.070123
867.104677,740.205942,370.102971,-8886.707777
867.104997,0.000000,-962.267725,-9652.803275
867.105317,148.041188,-1184.329507,-9806.022374
867.105637,1036.288319,-1036.288319,-9882.631924
867.105957,1184.329507,-1184.329507,-10495.508323
867.106277,-222.061783,-592.164754,-9882.631924
867.106597,-1628.453072,-148.041188,-10035.851024
867.106918,-296.082377,-148.041188,-10265.679673
867.107238,74.020594,518.144159,-10265.679673
867.107558,370.102971,962.267725,-11721.261119
867.107878,888.247130,666.185348,-10342.289223
867.108198,1110.308913,148.041188,-10418.898773
867.108518,1110.308913,74.020594,-9806.022374
867.108838,1332.370696,-1258.350101,-9499.584175
867.109158,1850.514855,-1258.350101,-10189.070123
867.109478,1554.432478,-370.102971,-10035.851024
867.109798,444.123565,888.247130,-10572.117872
867.110118,0.000000,2368.659014,-10495.508323
867.110439,-1480.411884,2368.659014,-9729.412825
867.110759,-1110.308913,1332.370696,-9806.022374
867.111079,-666.185348,-296.082377,-9729.412825
867.111399,1924.535449,-1406.391290,-10189.070123
867.111719,1184.329507,-2146.597232,-9806.022374
867.112039,666.185348,-1406.391290,-10189.070123
867.112359,518.144159,666.185348,-9729.412825
867.112679,1776.494261,2812.782580,-9882.631924
867.112999,3923.091493,3108.864956,-10801.946522
867.113319,4515.256246,3182.885551,-10572.117872
867.113639,4071.132681,1110.308913,-10265.679673
867.113960,1332.370696,-1036.288319,-10112.460574
867.114280,-444.123565,-1110.308913,-9806.022374
867.114600,-1332.370696,-222.061783,-9346.365076
867.114920,74.020594,0.000000,-9806.022374
867.115240,2072.576638,74.020594,-10035.851024
867.115560,2886.803174,962.267725,-10878.556072
867.115880,2368.659014,1850.514855,-10572.117872
867.116200,814.226536,2442.679609,-10878.556072
867.116520,-1110.308913,2960.823768,-10418.898773
867.116840,-666.185348,2886.803174,-9729.412825
867.117160,444.123565,1406.391290,-10189.070123
867.117481,1480.411884,-518.144159,-10572.117872
867.117801,1554.432478,-666.185348,-9959.241474
867.118121,2664.741391,-296.082377,-10112.460574
867.118441,1628.453072,1332.370696,-9882.631924
867.118761,740.205942,1924.535449,-9806.022374
867.119081,518.144159,1036.288319,-9959.241474
867.119401,148.041188,296.082377,-9806.022374
867.119721,-888.247130,370.102971,-9806.022374
867.120041,-1628.453072,296.082377,-10112.460574
867.120361,-1628.453072,370.102971,-9039.926876
867.120681,-518.144159,0.000000,-9499.584175
867.121002,1776.494261,-444.123565,-9576.193725
867.121322,2368.659014,-1184.329507,-9806.022374
867.121642,1628.453072,-518.144159,-10189.070123
867.121962,-1184.329507,666.185348,-10112.460574
867.122282,-2738.761985,1554.432478,-9729.412825
867.122602,-1628.453072,2368.659014,-9959.241474
867.122922,-148.041188,814.226536,-10418.898773
867.123242,666.185348,444.123565,-10035.851024
867.123562,74.020594,-1110.308913,-10035.851024
867.123882,814.226536,-296.082377,-10265.679673
867.124202,0.000000,0.000000,-10801.946522
867.124523,-1406.391290,1110.308913,-9499.584175
867.124843,-296.082377,222.061783,-9959.241474
867.125163,296.082377,-222.061783,-10265.679673
867.125483,74.020594,148.041188,-10648.727422
867.125803,-296.082377,1850.514855,-10801.946522
867.126123,-148.041188,2516.700203,-10801.946522
867.126443,0.000000,3034.844362,-10189.070123
867.126763,-148.041188,962.267725,-10572.117872
867.127083,148.041188,-1776.494261,-10035.851024
867.127403,-370.102971,-2738.761985,-10418.898773
867.127723,-1702.473667,-2664.741391,-10189.070123
867.128044,-888.247130,-1998.556043,-9806.022374
867.128364,-518.144159,0.000000,-9806.022374
867.128684,0.000000,1998.556043,-10342.289223
867.129004,1554.432478,1554.432478,-11568.042020
867.129324,3182.885551,888.247130,-10572.117872
867.129644,4663.297435,0.000000,-10342.289223
867.129964,4737.318029,-1554.432478,-10189.070123
867.130284,2294.638420,-1702.473667,-10112.460574
867.130604,-592.164754,-962.267725,-9806.022374
867.130924,-296.082377,0.000000,-9959.241474
867.131244,148.041188,962.267725,-10189.070123
867.131565,1480.411884,1406.391290,-10112.460574
867.131885,1998.556043,444.123565,-10878.556072
867.132205,1554.432478,1184.329507,-10342.289223
867.132525,962.267725,814.226536,-9882.631924
867.132845,1406.391290,0.000000,-10035.851024
867.133165,1702.473667,1332.370696,-9959.241474
867.133485,1628.453072,0.000000,-10572.117872
867.133805,888.247130,740.205942,-10035.851024
867.134125,962.267725,740.205942,-10112.460574
867.134445,370.102971,1406.391290,-9116.536426
867.134765,1258.350101,1036.288319,-10035.851024
867.135085,3404.947333,370.102971,-10265.679673
867.135406,2590.720797,-370.102971,-9652.803275
867.135726,2294.638420,-518.144159,-9882.631924
867.136046,1998.556043,-1924.535449,-10342.289223
867.136366,0.000000,-740.205942,-9499.584175
867.136686,-1998.556043,814.226536,-9806.022374
867.137006,-1480.411884,1036.288319,-9499.584175
867.137326,296.082377,1998.556043,-9576.193725
867.137646,1702.473667,1850.514855,-11108.384721
867.137966,814.226536,888.247130,-10265.679673
867.138286,814.226536,444.123565,-9576.193725
867.138606,296.082377,74.020594,-9806.022374
867.138927,888.247130,148.041188,-8886.707777
867.139247,1110.308913,0.000000,-10189.070123
867.139567,592.164754,-814.226536,-9959.241474
867.139887,222.061783,-444.123565,-10265.679673
867.140207,-1628.453072,1110.308913,-10265.679673
867.140527,-3108.864956,2886.803174,-10418.898773
867.140847,-2664.741391,3552.988522,-10418.898773
867.141167,0.000000,2368.659014,-10572.117872
867.141487,1258.350101,0.000000,-10265.679673
867.141808,518.144159,-1184.329507,-10035.851024
867.142128,-1258.350101,-2590.720797,-10035.851024
867.142448,-2368.659014,-1998.556043,-9806.022374
867.142768,-1554.432478,0.000000,-10035.851024
867.143088,1110.308913,1184.329507,-9806.022374
867.143408,2146.597232,1258.350101,-9882.631924
867.143728,1924.535449,1258.350101,-10648.727422
867.144048,1184.329507,444.123565,-10418.898773
867.144369,444.123565,148.041188,-10189.070123
867.144689,-1480.411884,888.247130,-9806.022374
867.145009,-518.144159,-148.041188,-9652.803275
867.145329,296.082377,-1554.432478,-9652.803275
867.145649,814.226536,-1480.411884,-9882.631924
867.145969,1184.329507,-1184.329507,-10189.070123
867.146289,74.020594,962.267725,-10112.460574
867.146609,-1036.288319,1924.535449,-10112.460574
867.146930,0.000000,1998.556043,-9806.022374
867.147250,1554.432478,666.185348,-9882.631924
867.147570,1628.453072,-666.185348,-10418.898773
867.147890,518.144159,-2368.659014,-9959.241474
867.148210,148.041188,-1554.432478,-9806.022374
867.148530,0.000000,-222.061783,-10189.070123
867.148850,1480.411884,1628.453072,-10189.070123
867.149171,2738.761985,1776.494261,-9959.241474
867.149491,3330.926739,1332.370696,-10342.289223
867.149811,888.247130,814.226536,-10418.898773
867.150131,0.000000,518.144159,-10265.679673
867.150451,-1406.391290,888.247130,-9806.022374
867.150771,-666.185348,-814.226536,-9652.803275
867.151091,370.102971,-1702.473667,-10035.851024
867.151411,814.226536,-2590.720797,-9806.022374
867.151732,0.000000,-1776.494261,-11108.384721
867.152052,-296.082377,888.247130,-10648.727422
867.152372,1036.288319,3478.967927,-10189.070123
867.152692,962.267725,3849.070898,-10572.117872
867.153012,1850.514855,1998.556043,-10265.679673
867.153332,2738.761985,-444.123565,-10035.851024
867.153652,2368.659014,-2368.659014,-10112.460574
867.153972,2960.823768,-2812.782580,-10342.289223
867.154293,1258.350101,-444.123565,-9576.193725
867.154613,-1036.288319,2220.617826,-9652.803275
867.154933,-2072.576638,2960.823768,-10035.851024
867.155253,148.041188,2442.679609,-10112.460574
867.155573,962.267725,1554.432478,-11031.775171
867.155893,2368.659014,0.000000,-10189.070123
867.156213,740.205942,-814.226536,-10189.070123
867.156534,-1480.411884,-518.144159,-10035.851024
867.156854,-740.205942,0.000000,-9499.584175
867.157174,0.000000,962.267725,-10342.289223
867.157494,962.267725,1036.288319,-9269.755526
867.157814,2220.617826,1332.370696,-10572.117872
867.158134,3108.864956,1702.473667,-10878.556072
867.158454,1850.514855,2220.617826,-10035.851024
867.158774,1480.411884,814.226536,-11261.603821
867.159095,814.226536,-444.123565,-10035.851024
867.159415,222.061783,-1480.411884,-9806.022374
867.159735,1036.288319,-444.123565,-10418.898773
867.160055,1554.432478,1036.288319,-10495.508323
867.160375,1850.514855,2960.823768,-10955.165621
867.160695,1258.350101,2812.782580,-10112.460574
867.161015,1480.411884,814.226536,-9959.241474
867.161336,1554.432478,-1480.411884,-9806.022374
867.161656,1406.391290,-2146.597232,-9269.755526
867.161976,814.226536,-1924.535449,-9882.631924
867.162296,-518.144159,296.082377,-10572.117872
867.162616,-1998.556043,1998.556043,-10495.508323
867.162936,-1702.473667,2368.659014,-10035.851024
867.163256,-296.082377,1924.535449,-10418.898773
867.163576,444.123565,1628.453072,-10189.070123
867.163897,518.144159,518.144159,-10265.679673
867.164217,-518.144159,0.000000,-9806.022374
867.164537,-1850.514855,-370.102971,-9499.584175
867.164857,-2220.617826,-2294.638420,-9652.803275
867.165177,-1924.535449,-2960.823768,-9116.536426
867.165497,-1776.494261,-2368.659014,-9652.803275
867.165817,-2294.638420,222.061783,-9882.631924
867.166137,-1924.535449,2738.761985,-9806.022374
867.166458,-2294.638420,4737.318029,-9882.631924
867.166778,-1776.494261,3478.967927,-10112.460574
867.167098,-666.185348,74.020594,-9882.631924
867.167418,1628.453072,-2442.679609,-9576.193725
867.167738,1554.432478,-4441.235652,-9422.974625
867.168058,1110.308913,-3923.091493,-9882.631924
867.168378,-1184.329507,-666.185348,-9729.412825
867.168699,-2442.679609,1850.514855,-10035.851024
867.169019,-1258.350101,2368.659014,-10112.460574
867.169339,518.144159,1628.453072,-10495.508323
867.169659,1406.391290,962.267725,-10725.336972
867.169979,1406.391290,370.102971,-10801.946522
867.170299,-518.144159,74.020594,-10572.117872
867.170619,-444.123565,-814.226536,-10495.508323
867.170939,296.082377,-1258.350101,-10265.679673
867.171260,1332.370696,-444.123565,-10495.508323
867.171580,1480.411884,1924.535449,-10495.508323
867.171900,1554.432478,2590.720797,-11184.994271
867.172220,1184.329507,2442.679609,-10725.336972
867.172540,1776.494261,888.247130,-10265.679673
867.172860,3256.906145,296.082377,-10189.070123
867.173180,4515.256246,0.000000,-9959.241474
867.173501,3330.926739,370.102971,-10418.898773
867.173821,2442.679609,592.164754,-10572.117872
867.174141,1332.370696,1036.288319,-9806.022374
867.174461,-1258.350101,1406.391290,-9499.584175
867.174781,666.185348,148.041188,-9499.584175
867.175101,1702.473667,-1258.350101,-9806.022374
867.175421,2294.638420,-1110.308913,-9652.803275
867.175741,1702.473667,-1554.432478,-9729.412825
867.176062,518.144159,0.000000,-9882.631924
867.176382,370.102971,518.144159,-9576.193725
867.176702,-222.061783,296.082377,-9652.803275
867.177022,1850.514855,-444.123565,-9652.803275
867.177342,2664.741391,148.041188,-10495.508323
867.177662,2516.700203,296.082377,-10265.679673
867.177982,2368.659014,1036.288319,-10648.727422
867.178302,-148.041188,1480.411884,-10572.117872
867.178623,-444.123565,888.247130,-10112.460574
867.178943,-962.267725,148.041188,-9882.631924
867.179263,-1184.329507,-148.041188,-9959.241474
867.179583,-444.123565,0.000000,-10035.851024
867.179903,444.123565,592.164754,-10878.556072
867.180223,0.000000,962.267725,-10112.460574
867.180543,-740.205942,444.123565,-10265.679673
867.180864,444.123565,-444.123565,-10112.460574
867.181184,1998.556043,370.102971,-10495.508323
867.181504,2220.617826,1554.432478,-10801.946522
867.181824,518.144159,2442.679609,-10572.117872
867.182144,0.000000,2812.782580,-10418.898773
867.182464,-1332.370696,1850.514855,-10265.679673
867.182784,-888.247130,-592.164754,-10265.679673
867.183104,-592.164754,-1480.411884,-8427.050478
867.183425,814.226536,-962.267725,-10112.460574
867.183745,1702.473667,1258.350101,-10418.898773
867.184065,1480.411884,1332.370696,-10035.851024
867.184385,0.000000,1332.370696,-9729.412825
867.184705,-370.102971,296.082377,-10265.679673
867.185025,-740.205942,-962.267725,-9729.412825
867.185345,222.061783,-1184.329507,-9806.022374
867.185665,0.000000,666.185348,-9576.193725
867.185986,0.000000,2368.659014,-10648.727422
867.186306,-222.061783,3552.988522,-10189.070123
867.186626,-962.267725,1850.514855,-9806.022374
867.186946,-296.082377,-592.164754,-9882.631924
867.187266,-370.102971,-3034.844362,-8963.317327
867.187586,-444.123565,-2812.782580,-9499.584175
867.187906,148.041188,-2146.597232,-9729.412825
867.188227,74.020594,0.000000,-9959.241474
867.188547,-222.061783,1628.453072,-10418.898773
867.188867,0.000000,1776.494261,-10112.460574
867.189187,74.020594,1702.473667,-10342.289223
867.189507,814.226536,1850.514855,-10495.508323
867.189827,1406.391290,1110.308913,-10648.727422
867.190147,1924.535449,296.082377,-10265.679673
867.190467,814.226536,-962.267725,-10495.508323
867.190788,-148.041188,-1998.556043,-9806.022374
867.191108,-1110.308913,-1480.411884,-10189.070123
867.191428,592.164754,0.000000,-10648.727422
867.191748,2738.761985,2442.679609,-10035.851024
867.192068,2960.823768,3034.844362,-10572.117872
867.192388,2516.700203,2590.720797,-10342.289223
867.192708,1480.411884,148.041188,-10342.289223
867.193029,888.247130,-814.226536,-10495.508323
867.193349,814.226536,-814.226536,-10112.460574
867.193669,2738.761985,74.020594,-10035.851024
867.193989,2516.700203,962.267725,-10342.289223
867.194309,2516.700203,1036.288319,-9882.631924
867.194629,370.102971,1480.411884,-9806.022374
867.194949,666.185348,962.267725,-9806.022374
867.195269,-222.061783,222.061783,-9806.022374
867.195590,-1480.411884,0.000000,-9882.631924
867.195910,74.020594,-1406.391290,-9729.412825
867.196230,1184.329507,-2368.659014,-9422.974625
867.196550,2368.659014,-2294.638420,-9806.022374
867.196870,2442.679609,-1406.391290,-9806.022374
867.197190,1924.535449,444.123565,-10265.679673
867.197510,2368.659014,2072.576638,-10189.070123
867.197830,1184.329507,3552.988522,-10725.336972
867.198151,814.226536,2664.741391,-10418.898773
867.198471,-666.185348,296.082377,-10342.289223
867.198791,666.185348,-2294.638420,-10035.851024
867.199111,0.000000,-2960.823768,-10265.679673
867.199431,-814.226536,-2368.659014,-10265.679673
867.199751,-1258.350101,-444.123565,-10035.851024
867.200071,-1406.391290,1258.350101,-9882.631924
867.200392,74.020594,2294.638420,-10418.898773
867.200712,1258.350101,2220.617826,-10418.898773
867.201032,962.267725,1036.288319,-10725.336972
867.201352,-666.185348,888.247130,-10495.508323
867.201672,-1628.453072,74.020594,-10495.508323
867.201992,-1998.556043,-370.102971,-9959.241474
867.202312,-1184.329507,-814.226536,-9652.803275
867.202632,-962.267725,-888.247130,-10265.679673
867.202953,-814.226536,-962.267725,-10342.289223
867.203273,-1036.288319,222.061783,-9806.022374
867.203593,-592.164754,1332.370696,-10725.336972
867.203913,0.000000,1554.432478,-10418.898773
867.204233,-666.185348,1036.288319,-9806.022374
867.204553,814.226536,-1702.473667,-9882.631924
867.204873,1406.391290,-1998.556043,-9729.412825
867.205193,1850.514855,-1554.432478,-9959.241474
867.205514,1184.329507,-222.061783,-10112.460574
867.205834,-296.082377,1406.391290,-9882.631924
867.206154,-592.164754,1776.494261,-10189.070123
867.206474,-666.185348,1702.473667,-10035.851024
867.206794,370.102971,370.102971,-10035.851024
867.207114,-888.247130,-740.205942,-9882.631924
867.207434,-592.164754,-962.267725,-9729.412825
867.207755,222.061783,-1184.329507,-10265.679673
867.208075,814.226536,-1480.411884,-9499.584175
867.208395,740.205942,-592.164754,-9806.022374
867.208715,888.247130,962.267725,-10495.508323
867.209035,2664.741391,2146.597232,-10495.508323
867.209355,2368.659014,2590.720797,-10955.165621
867.209675,1406.391290,2442.679609,-10955.165621
867.209995,518.144159,740.205942,-10955.165621
867.210316,1036.288319,-444.123565,-9959.241474
867.210636,1406.391290,-814.226536,-10725.336972
867.210956,1776.494261,962.267725,-10265.679673
867.211276,0.000000,2146.597232,-10418.898773
867.211596,0.000000,3182.885551,-10418.898773
867.211916,0.000000,2368.659014,-10265.679673
867.212236,814.226536,296.082377,-9806.022374
867.212557,2072.576638,-518.144159,-10189.070123
867.212877,3775.050304,-1184.329507,-9882.631924
867.213197,2590.720797,0.000000,-8963.317327
867.213517,1036.288319,1036.288319,-9806.022374
867.213837,666.185348,2368.659014,-9729.412825
867.214157,666.185348,2146.597232,-9729.412825
867.214477,0.000000,1776.494261,-8963.317327
867.214797,0.000000,0.000000,-9729.412825
867.215118,1110.308913,-518.144159,-9499.584175
867.215438,1258.350101,-1258.350101,-9806.022374
867.215758,1036.288319,-296.082377,-9193.145976
867.216078,888.247130,444.123565,-9806.022374
867.216398,444.123565,962.267725,-10112.460574
867.216718,1776.494261,1554.432478,-10189.070123
867.217038,222.061783,1776.494261,-10189.070123
867.217358,-1110.308913,1406.391290,-9806.022374
867.217679,-222.061783,444.123565,-10112.460574
867.217999,1480.411884,-1036.288319,-10112.460574
867.218319,1480.411884,-518.144159,-9882.631924
867.218639,888.247130,-444.123565,-10342.289223
867.218959,0.000000,592.164754,-10112.460574
867.219279,0.000000,666.185348,-10189.070123
867.219599,888.247130,1258.350101,-10725.336972
867.219920,148.041188,1332.370696,-10801.946522
867.220240,-740.205942,1406.391290,-10342.289223
867.220560,-592.164754,740.205942,-10495.508323
867.220880,0.000000,-148.041188,-10035.851024
867.221200,1036.288319,-518.144159,-10418.898773
867.221520,814.226536,-296.082377,-10112.460574
867.221840,-1628.453072,-370.102971,-10342.289223
867.222160,-1924.535449,592.164754,-10035.851024
867.222481,-1480.411884,666.185348,-10189.070123
867.222801,222.061783,222.061783,-9882.631924
867.223121,0.000000,-814.226536,-9729.412825
867.223441,-1628.453072,-1776.494261,-10035.851024
867.223761,-1776.494261,-2368.659014,-9882.631924
867.224081,-1110.308913,-1480.411884,-9576.193725
867.224401,-370.102971,0.000000,-9269.755526
867.224722,444.123565,296.082377,-10418.898773
867.225042,1480.411884,-666.185348,-10418.898773
867.225362,1110.308913,-666.185348,-9959.241474
867.225682,370.102971,0.000000,-10418.898773
867.226002,-1776.494261,962.267725,-10878.556072
867.226322,-1998.556043,1332.370696,-10035.851024
867.226642,-592.164754,222.061783,-10495.508323
867.226962,-296.082377,-962.267725,-9806.022374
867.227283,0.000000,-1924.535449,-10955.165621
867.227603,740.205942,-1628.453072,-10112.460574
867.227923,2738.761985,-296.082377,-10189.070123
867.228243,2590.720797,370.102971,-10265.679673
867.228563,2294.638420,888.247130,-8963.317327
867.228883,1480.411884,666.185348,-9806.022374
867.229203,1480.411884,-222.061783,-10035.851024
867.229523,1332.370696,0.000000,-10495.508323
867.229844,1554.432478,0.000000,-10265.679673
867.230164,3552.988522,74.020594,-9806.022374
867.230484,1702.473667,-74.020594,-10189.070123
867.230804,888.247130,-1036.288319,-9882.631924
867.231124,444.123565,-814.226536,-9806.022374
867.231444,1554.432478,222.061783,-10265.679673
867.231764,1406.391290,1036.288319,-10112.460574
867.232085,444.123565,1332.370696,-10035.851024
867.232405,0.000000,74.020594,-9959.241474
867.232725,1110.308913,-592.164754,-9729.412825
867.233045,2590.720797,0.000000,-8733.488677
867.233365,2146.597232,962.267725,-10342.289223
867.233685,1554.432478,1924.535449,-10418.898773
867.234005,370.102971,1776.494261,-10418.898773
867.234325,-296.082377,518.144159,-9729.412825
867.234646,-592.164754,-740.205942,-9806.022374
867.234966,370.102971,-1332.370696,-9499.584175
867.235286,296.082377,0.000000,-10035.851024
867.235606,1110.308913,666.185348,-10495.508323
867.235926,296.082377,2516.700203,-12027.699319
867.236246,-888.247130,2072.576638,-10342.289223
867.236566,-1850.514855,1036.288319,-9959.241474
867.236886,-1036.288319,-296.082377,-9576.193725
867.237207,592.164754,-666.185348,-9652.803275
867.237527,1998.556043,0.000000,-11108.384721
867.237847,1850.514855,0.000000,-10495.508323
867.238167,0.000000,1036.288319,-10035.851024
867.238487,-592.164754,1406.391290,-9882.631924
867.238807,0.000000,1480.411884,-9806.022374
867.239127,0.000000,1184.329507,-10418.898773
867.239448,1850.514855,962.267725,-10418.898773
867.239768,1110.308913,370.102971,-10189.070123
867.240088,222.061783,444.123565,-10955.165621
867.240388,-1258.350101,740.205942,-9959.241474
867.240708,-1554.432478,888.247130,-10495.508323
867.241028,0.000000,1110.308913,-9729.412825
867.241348,2072.576638,1924.535449,-10265.679673
867.241669,2368.659014,2368.659014,-10495.508323
867.241989,0.000000,1184.329507,-10035.851024
867.242309,-1332.370696,962.267725,-9882.631924
867.242629,-370.102971,-370.102971,-9959.241474
867.242949,1110.308913,-814.226536,-8733.488677
867.243269,2072.576638,0.000000,-9882.631924
867.243589,1628.453072,666.185348,-10572.117872
867.243909,518.144159,1554.432478,-10112.460574
867.244229,0.000000,1924.535449,-9806.022374
867.244549,962.267725,0.000000,-10035.851024
867.244869,1702.473667,-1850.514855,-9729.412825
867.245189,2146.597232,-2368.659014,-9499.584175
867.245509,1554.432478,-1554.432478,-10265.679673
867.245830,222.061783,444.123565,-10495.508323
867.246150,-2368.659014,1776.494261,-10112.460574
867.246470,-1702.473667,1480.411884,-9882.631924
867.246790,-222.061783,148.041188,-10035.851024
867.247110,1332.370696,-740.205942,-10035.851024
867.247430,1184.329507,-888.247130,-10801.946522
867.247750,888.247130,-222.061783,-10648.727422
867.248070,1258.350101,370.102971,-10035.851024
867.248390,370.102971,888.247130,-10495.508323
867.248710,2146.597232,0.000000,-9959.241474
867.249030,1554.432478,592.164754,-10265.679673
867.249350,518.144159,370.102971,-10572.117872
867.249671,814.226536,814.226536,-10265.679673
867.249991,666.185348,1776.494261,-10112.460574
867.250311,592.164754,444.123565,-9806.022374
867.250631,0.000000,0.000000,-10189.070123
867.250951,888.247130,-888.247130,-9959.241474
867.251271,1184.329507,-962.267725,-10035.851024
867.251591,370.102971,74.020594,-9959.241474
867.251911,888.247130,888.247130,-9806.022374
867.252231,444.123565,1702.473667,-10189.070123
867.252551,1776.494261,148.041188,-9882.631924
867.252871,3034.844362,-1480.411884,-9729.412825
867.253191,2590.720797,-2294.638420,-9806.022374
867.253511,1924.535449,-1332.370696,-9652.803275
867.253832,1998.556043,296.082377,-9959.241474
867.254152,1702.473667,2294.638420,-10189.070123
867.254472,962.267725,1628.453072,-10878.556072
867.254792,-444.123565,370.102971,-10342.289223
867.255112,-148.041188,-518.144159,-9959.241474
867.255432,-296.082377,296.082377,-10265.679673
867.255752,-444.123565,1110.308913,-9882.631924
867.256072,-1480.411884,2146.597232,-10342.289223
867.256392,-1258.350101,1406.391290,-10342.289223
867.256712,-444.123565,-1110.308913,-9806.022374
867.257032,-222.061783,-1184.329507,-9422.974625
867.257352,-444.123565,-2072.576638,-9806.022374
867.257673,-2072.576638,-592.164754,-10035.851024
867.257993,-296.082377,666.185348,-9882.631924
867.258313,666.185348,592.164754,-10648.727422
867.258633,1480.411884,518.144159,-9346.365076
867.258953,1110.308913,-296.082377,-10495.508323
867.259273,814.226536,296.082377,-10801.946522
867.259593,0.000000,814.226536,-10265.679673
867.259913,-740.205942,1480.411884,-10725.336972
867.260233,-444.123565,1480.411884,-9576.193725
867.260553,148.041188,-592.164754,-9882.631924
867.260873,740.205942,-740.205942,-10342.289223
867.261193,296.082377,-370.102971,-10189.070123
867.261513,-888.247130,2146.597232,-10342.289223
867.261834,-740.205942,1998.556043,-10035.851024
867.262154,-1184.329507,1406.391290,-9806.022374
867.262474,-1406.391290,-370.102971,-9806.022374
867.262794,0.000000,-1480.411884,-9422.974625
867.263114,-148.041188,-1702.473667,-9576.193725
867.263434,740.205942,-666.185348,-9806.022374
867.263754,2072.576638,518.144159,-9882.631924
867.264074,962.267725,1406.391290,-10035.851024
867.264394,1258.350101,1332.370696,-10035.851024
867.264714,370.102971,1850.514855,-10189.070123
867.265034,962.267725,888.247130,-10725.336972
867.265354,1480.411884,370.102971,-9806.022374
867.265675,370.102971,592.164754,-10035.851024
867.265995,-666.185348,0.000000,-9806.022374
867.266315,-1110.308913,-740.205942,-10342.289223
867.266635,-1036.288319,-1110.308913,-9729.412825
867.266955,-962.267725,-518.144159,-9806.022374
867.267275,-518.144159,1406.391290,-10495.508323
867.267595,1332.370696,1184.329507,-10495.508323
867.267915,740.205942,1554.432478,-10572.117872
867.268235,444.123565,1776.494261,-10495.508323
867.268555,592.164754,1480.411884,-10725.336972
867.268875,814.226536,1184.329507,-10572.117872
867.269195,-222.061783,592.164754,-10112.460574
867.269515,0.000000,518.144159,-10418.898773
867.269836,1332.370696,296.082377,-10495.508323
867.270156,2294.638420,-370.102971,-10189.070123
867.270476,2220.617826,-370.102971,-9806.022374
867.270796,1702.473667,-148.041188,-10112.460574
867.271116,1628.453072,222.061783,-9729.412825
867.271436,1924.535449,666.185348,-11108.384721
867.271756,666.185348,1406.391290,-9806.022374
867.272076,-518.144159,1776.494261,-9652.803275
867.272396,1184.329507,740.205942,-10035.851024
867.272716,2442.679609,-222.061783,-9806.022374
867.273036,2072.576638,-1332.370696,-9193.145976
867.273356,2812.782580,-1258.350101,-9576.193725
867.273677,2294.638420,-740.205942,-9576.193725
867.273997,1702.473667,0.000000,-9652.803275
867.274317,1110.308913,592.164754,-9729.412825
867.274637,1184.329507,1258.350101,-9576.193725
867.274957,2294.638420,1850.514855,-9882.631924
867.275277,2812.782580,518.144159,-10342.289223
867.275597,2516.700203,-222.061783,-9806.022374
867.275917,2146.597232,0.000000,-10035.851024
867.276237,1332.370696,592.164754,-10342.289223
867.276557,518.144159,962.267725,-10112.460574
867.276877,-370.102971,888.247130,-10342.289223
867.277197,-1184.329507,666.185348,-10189.070123
867.277517,-296.082377,0.000000,-10112.460574
867.277838,-1924.535449,-592.164754,-10035.851024
867.278158,-1850.514855,0.000000,-10418.898773
867.278478,222.061783,-370.102971,-10189.070123
867.278798,370.102971,740.205942,-10342.289223
867.279118,444.123565,814.226536,-10265.679673
867.279438,148.041188,1184.329507,-10572.117872
867.279758,74.020594,518.144159,-10495.508323
867.280078,740.205942,370.102971,-9882.631924
867.280398,-444.123565,296.082377,-10418.898773
867.280718,-1628.453072,0.000000,-10112.460574
867.281038,-740.205942,-1036.288319,-10189.070123
867.281358,148.041188,-1850.514855,-9959.241474
867.281679,-666.185348,-1332.370696,-9959.241474
867.281999,-2368.659014,148.041188,-9882.631924
867.282319,-2664.741391,592.164754,-9806.022374
867.282639,-2368.659014,888.247130,-9576.193725
867.282959,-592.164754,1036.288319,-10035.851024
867.283279,-592.164754,-370.102971,-10112.460574
867.283599,-962.267725,-1406.391290,-9806.022374
867.283919,74.020594,-666.185348,-9729.412825
867.284239,1406.391290,0.000000,-9806.022374
867.284559,1702.473667,1184.329507,-10035.851024
867.284879,592.164754,1184.329507,-10189.070123
867.285199,-1036.288319,814.226536,-9729.412825
867.285519,-1998.556043,222.061783,-9959.241474
867.285840,-1110.308913,0.000000,-9882.631924
867.286160,-592.164754,-740.205942,-9959.241474
867.286480,370.102971,-962.267725,-9959.241474
867.286800,518.144159,-666.185348,-9729.412825
867.287120,1036.288319,666.185348,-11721.261119
867.287440,1628.453072,1036.288319,-10955.165621
867.287760,814.226536,888.247130,-9959.241474
867.288080,814.226536,518.144159,-10265.679673
867.288400,3034.844362,148.041188,-10189.070123
867.288720,4293.194464,222.061783,-10572.117872
867.289040,3552.988522,296.082377,-10418.898773
867.289360,1332.370696,666.185348,-10265.679673
867.289681,1554.432478,1110.308913,-10265.679673
867.290001,2294.638420,1776.494261,-10342.289223
867.290321,1924.535449,0.000000,-10189.070123
867.290641,666.185348,-1554.432478,-9882.631924
867.290961,1628.453072,-222.061783,-9959.241474
867.291281,2812.782580,1480.411884,-10955.165621
867.291601,3034.844362,1480.411884,-10418.898773
867.291921,1776.494261,1628.453072,-10035.851024
867.292241,1480.411884,518.144159,-10418.898773
867.292561,666.185348,444.123565,-9806.022374
867.292881,962.267725,0.000000,-10495.508323
867.293201,370.102971,740.205942,-9806.022374
867.293521,370.102971,74.020594,-10342.289223
867.293842,518.144159,-888.247130,-9729.412825
867.294162,222.061783,-814.226536,-9882.631924
867.294482,0.000000,-444.123565,-9652.803275
867.294802,-370.102971,222.061783,-9882.631924
867.295122,296.082377,1406.391290,-10189.070123
867.295442,518.144159,2516.700203,-10572.117872
867.295762,-518.144159,1480.411884,-9346.365076
867.296082,-1998.556043,666.185348,-9959.241474
867.296402,666.185348,-444.123565,-9422.974625
867.296722,666.185348,-222.061783,-10035.851024
867.297042,296.082377,0.000000,-9576.193725
867.297362,814.226536,222.061783,-9806.022374
867.297683,666.185348,518.144159,-10112.460574
867.298003,518.144159,222.061783,-10495.508323
867.298323,222.061783,-1036.288319,-10495.508323
867.298643,-222.061783,-296.082377,-9882.631924
867.298963,148.041188,1258.350101,-10342.289223
867.299283,592.164754,2442.679609,-10878.556072
867.299603,0.000000,2146.597232,-10648.727422
867.299923,0.000000,962.267725,-9959.241474
867.300243,0.000000,296.082377,-10572.117872
867.300563,592.164754,-296.082377,-10265.679673
867.300883,592.164754,-518.144159,-10112.460574
867.301203,74.020594,222.061783,-10572.117872
867.301524,-962.267725,888.247130,-10112.460574
867.301844,-1184.329507,74.020594,-9882.631924
867.302164,0.000000,962.267725,-9806.022374
867.302484,1258.350101,74.020594,-10035.851024
867.302804,2220.617826,-592.164754,-9499.584175
867.303124,1628.453072,-370.102971,-10035.851024
867.303444,592.164754,-518.144159,-9652.803275
867.303764,148.041188,-1628.453072,-9652.803275
867.304084,74.020594,-962.267725,-9193.145976
867.304404,0.000000,-296.082377,-9652.803275
867.304724,888.247130,592.164754,-10495.508323
867.305044,1480.411884,1332.370696,-10189.070123
867.305364,-370.102971,1628.453072,-10112.460574
867.305685,-888.247130,2368.659014,-9652.803275
867.306005,-1184.329507,2072.576638,-10342.289223
867.306325,-1332.370696,444.123565,-10801.946522
867.306645,-740.205942,-1110.308913,-9806.022374
867.306965,-592.164754,-1924.535449,-9499.584175
867.307285,592.164754,-2072.576638,-10189.070123
867.307605,1184.329507,-1258.350101,-9959.241474
867.307925,1258.350101,444.123565,-10572.117872
867.308245,1924.535449,1850.514855,-10495.508323
867.308565,2072.576638,3256.906145,-10418.898773
867.308885,2072.576638,3552.988522,-11108.384721
867.309205,1850.514855,2368.659014,-11184.994271
867.309526,1110.308913,222.061783,-10648.727422
867.309846,1554.432478,-1332.370696,-11031.775171
867.310166,1776.494261,-1850.514855,-9806.022374
867.310486,1850.514855,-888.247130,-10418.898773
867.310806,962.267725,1332.370696,-10265.679673
867.311126,518.144159,2146.597232,-10648.727422
867.311446,-888.247130,2738.761985,-10878.556072
867.311766,-1332.370696,2368.659014,-9959.241474
867.312086,-666.185348,740.205942,-9806.022374
867.312406,1184.329507,-666.185348,-9959.241474
867.312726,2886.803174,-2368.659014,-9806.022374
867.313046,2368.659014,-2220.617826,-9652.803275
867.313366,2220.617826,-1332.370696,-9806.022374
867.313687,518.144159,1036.288319,-9422.974625
867.314007,-148.041188,2516.700203,-9806.022374
867.314327,296.082377,2294.638420,-9806.022374
867.314647,1480.411884,370.102971,-9652.803275
867.314967,814.226536,-1332.370696,-10112.460574
867.315287,-740.205942,-3923.091493,-9652.803275
867.315607,-1406.391290,-2220.617826,-10189.070123
867.315927,-2146.597232,-592.164754,-9576.193725
867.316247,-814.226536,222.061783,-10035.851024
867.316567,592.164754,2072.576638,-10418.898773
867.316887,962.267725,2886.803174,-10725.336972
867.317207,1110.308913,1776.494261,-10955.165621
867.317528,222.061783,592.164754,-10418.898773
867.317848,518.144159,0.000000,-10265.679673
867.318168,148.041188,-740.205942,-10265.679673
867.318488,0.000000,-296.082377,-10725.336972
867.318808,1036.288319,-222.061783,-10801.946522
867.319128,1036.288319,592.164754,-10495.508323
867.319448,-740.205942,1776.494261,-10418.898773
867.319768,-1776.494261,3256.906145,-10878.556072
867.320088,-296.082377,1776.494261,-10495.508323
867.320408,1776.494261,740.205942,-10035.851024
867.320728,2590.720797,-592.164754,-9806.022374
867.321048,814.226536,-2146.597232,-9806.022374
867.321368,592.164754,-2590.720797,-11338.213370
867.321689,-148.041188,-666.185348,-9652.803275
867.322009,-1554.432478,1110.308913,-9806.022374
867.322329,-1258.350101,2442.679609,-9652.803275
867.322649,1332.370696,1036.288319,-9576.193725
867.322969,2368.659014,-740.205942,-9882.631924
867.323289,2368.659014,-2960.823768,-10112.460574
867.323609,222.061783,-2516.700203,-9959.241474
867.323929,-1184.329507,-1332.370696,-9499.584175
867.324249,-296.082377,0.000000,-9806.022374
867.324569,740.205942,2960.823768,-9806.022374
867.324889,1036.288319,3108.864956,-10265.679673
867.325209,888.247130,1702.473667,-10495.508323
867.325530,370.102971,148.041188,-10035.851024
867.325850,-296.082377,-518.144159,-10265.679673
867.326170,-888.247130,-1554.432478,-9729.412825
867.326490,-888.247130,-1184.329507,-10035.851024
867.326810,-1110.308913,-148.041188,-9806.022374
867.327130,-962.267725,1258.350101,-10112.460574
867.327450,-888.247130,2368.659014,-10112.460574
867.327770,-1184.329507,2368.659014,-10342.289223
867.328090,518.144159,1850.514855,-10878.556072
867.328410,2664.741391,370.102971,-10189.070123
867.328730,3330.926739,-1036.288319,-10035.851024
867.329050,2590.720797,-1406.391290,-9806.022374
867.329370,370.102971,0.000000,-10725.336972
867.329691,-1554.432478,592.164754,-9959.241474
867.330011,-1480.411884,1258.350101,-10265.679673
867.330331,148.041188,2294.638420,-10035.851024
867.330651,1480.411884,2220.617826,-10648.727422
867.330971,2368.659014,2146.597232,-10418.898773
867.331291,2368.659014,1110.308913,-10495.508323
867.331611,2146.597232,0.000000,-10495.508323
867.331931,1776.494261,-814.226536,-10112.460574
867.332251,1628.453072,-1036.288319,-10265.679673
867.332571,962.267725,148.041188,-9499.584175
867.332891,1480.411884,740.205942,-10112.460574
867.333211,3108.864956,2220.617826,-10265.679673
867.333532,2294.638420,2664.741391,-10342.289223
867.333852,1628.453072,1554.432478,-10035.851024
867.334172,740.205942,444.123565,-9499.584175
867.334492,0.000000,-888.247130,-9806.022374
867.334812,-296.082377,-370.102971,-9422.974625
867.335132,1036.288319,-370.102971,-9806.022374
867.335452,1258.350101,814.226536,-9806.022374
867.335772,518.144159,2072.576638,-9806.022374
867.336092,-518.144159,1184.329507,-10189.070123
867.336412,296.082377,148.041188,-9193.145976
867.336732,592.164754,888.247130,-10418.898773
867.337052,1480.411884,518.144159,-9959.241474
867.337372,962.267725,-518.144159,-10035.851024
867.337693,-888.247130,-1036.288319,-9729.412825
867.338013,-1850.514855,-1036.288319,-9652.803275
867.338333,-1258.350101,-1184.329507,-9729.412825
867.338653,1480.411884,148.041188,-10112.460574
867.338973,2220.617826,1406.391290,-10495.508323
867.339293,1850.514855,1998.556043,-11108.384721
867.339613,666.185348,1776.494261,-10495.508323
867.339933,-1702.473667,592.164754,-10265.679673
867.340253,-2146.597232,-740.205942,-9959.241474
867.340573,-1776.494261,-1480.411884,-9882.631924
867.340893,-888.247130,-1776.494261,-9806.022374
867.341213,148.041188,-666.185348,-9576.193725
867.341533,74.020594,1110.308913,-10342.289223
867.341853,740.205942,1628.453072,-10189.070123
867.342173,1554.432478,1406.391290,-10495.508323
867.342493,2220.617826,888.247130,-10265.679673
867.342813,962.267725,0.000000,-9959.241474
867.343133,222.061783,-1110.308913,-10189.070123
867.343453,370.102971,-814.226536,-10035.851024
867.343773,0.000000,-962.267725,-9882.631924
867.344093,-1110.308913,0.000000,-9039.926876
867.344413,-2072.576638,370.102971,-10112.460574
867.344733,-740.205942,740.205942,-9806.022374
867.345053,74.020594,370.102971,-10495.508323
867.345373,1554.432478,74.020594,-10035.851024
867.345693,370.102971,740.205942,-9882.631924
867.346013,962.267725,518.144159,-10418.898773
867.346333,370.102971,-296.082377,-9576.193725
867.346653,-296.082377,-888.247130,-10112.460574
867.346973,1184.329507,-1184.329507,-9959.241474
867.347293,1998.556043,-592.164754,-10572.117872
867.347613,592.164754,74.020594,-10112.460574
867.347933,74.020594,370.102971,-9806.022374
867.348253,814.226536,1184.329507,-10189.070123
867.348573,370.102971,888.247130,-10035.851024
867.348893,370.102971,296.082377,-10342.289223
867.349213,444.123565,222.061783,-10265.679673
867.349533,1332.370696,814.226536,-10725.336972
867.349853,1628.453072,962.267725,-9882.631924
867.350173,2072.576638,814.226536,-10418.898773
867.350493,370.102971,1480.411884,-10112.460574
867.350813,-666.185348,1554.432478,-10342.289223
867.351133,-666.185348,592.164754,-10495.508323
867.351453,-592.164754,0.000000,-10265.679673
867.351774,-814.226536,-592.164754,-9652.803275
867.352094,-1702.473667,-148.041188,-10265.679673
867.352414,962.267725,518.144159,-9576.193725
867.352734,2146.597232,1554.432478,-10955.165621
867.353054,4071.132681,1776.494261,-10342.289223
867.353374,4811.338623,1258.350101,-10342.289223
867.353694,3404.947333,1406.391290,-9806.022374
867.354014,1406.391290,888.247130,-9729.412825
867.354334,0.000000,-592.164754,-9576.193725
867.354654,-370.102971,-1480.411884,-9116.536426
867.354974,-444.123565,-1110.308913,-9882.631924
867.355294,148.041188,-370.102971,-10035.851024
867.355614,222.061783,518.144159,-10265.679673
867.355934,-666.185348,666.185348,-10418.898773
867.356254,-518.144159,518.144159,-10112.460574
867.356574,-222.061783,518.144159,-9729.412825
867.356894,-148.041188,370.102971,-11797.870669
867.357214,296.082377,0.000000,-10648.727422
867.357534,592.164754,-740.205942,-10418.898773
867.357854,370.102971,-296.082377,-10112.460574
867.358174,1628.453072,0.000000,-10035.851024
867.358494,1554.432478,370.102971,-9806.022374
867.358814,740.205942,592.164754,-10265.679673
867.359134,1184.329507,1036.288319,-10418.898773
867.359454,592.164754,1332.370696,-10418.898773
867.359774,-666.185348,888.247130,-9806.022374
867.360094,-1332.370696,0.000000,-9806.022374
867.360414,-1110.308913,-1480.411884,-9806.022374
867.360734,962.267725,-1924.535449,-9729.412825
867.361054,962.267725,-1258.350101,-9806.022374
867.361374,740.205942,-222.061783,-10035.851024
867.361694,74.020594,814.226536,-10189.070123
867.362014,296.082377,666.185348,-10418.898773
867.362334,444.123565,888.247130,-9806.022374
867.362654,518.144159,-1110.308913,-9806.022374
867.362974,1258.350101,-444.123565,-10035.851024
867.363294,1628.453072,-444.123565,-10265.679673
867.363614,1332.370696,444.123565,-10495.508323
867.363934,0.000000,518.144159,-10112.460574
867.364254,-592.164754,-148.041188,-10265.679673
867.364574,-370.102971,-1184.329507,-9729.412825
867.364894,888.247130,0.000000,-10189.070123
867.365214,1184.329507,962.267725,-10418.898773
867.365534,-1184.329507,1776.494261,-9882.631924
867.365854,-1776.494261,2220.617826,-10189.070123
867.366174,-1036.288319,518.144159,-9806.022374
867.366494,-148.041188,-592.164754,-9806.022374
867.366814,740.205942,-1554.432478,-9882.631924
867.367134,888.247130,-1036.288319,-9652.803275
867.367454,1554.432478,740.205942,-10572.117872
867.367774,962.267725,2220.617826,-10112.460574
867.368094,370.102971,1406.391290,-10265.679673
867.368414,370.102971,592.164754,-10112.460574
867.368734,1332.370696,-296.082377,-9882.631924
867.369054,814.226536,296.082377,-10265.679673
867.369374,962.267725,444.123565,-10035.851024
867.369694,518.144159,1184.329507,-9959.241474
867.370014,1776.494261,1258.350101,-10265.679673
867.370334,2294.638420,962.267725,-10112.460574
867.370654,2072.576638,296.082377,-9806.022374
867.370974,1776.494261,-444.123565,-10189.070123
867.371294,2072.576638,814.226536,-9959.241474
867.371614,740.205942,1702.473667,-10189.070123
867.371934,-592.164754,1554.432478,-10572.117872
867.372254,-1258.350101,444.123565,-10112.460574
867.372574,962.267725,0.000000,-10725.336972
867.372894,2146.597232,-740.205942,-10342.289223
867.373214,1998.556043,1258.350101,-10878.556072
867.373534,296.082377,2368.659014,-10342.289223
867.373854,370.102971,2368.659014,-10418.898773
867.374174,1332.370696,1850.514855,-9882.631924
867.374494,1850.514855,518.144159,-10418.898773
867.374815,1406.391290,0.000000,-9806.022374
867.375135,814.226536,-444.123565,-10265.679673
867.375455,740.205942,370.102971,-9882.631924
867.375775,-1110.308913,1332.370696,-9269.755526
867.376095,-592.164754,888.247130,-9806.022374
867.376415,518.144159,1406.391290,-9652.803275
867.376735,222.061783,0.000000,-9806.022374
867.377055,74.020594,-518.144159,-10112.460574
867.377375,-1184.329507,-740.205942,-9039.926876
867.377695,-1110.308913,-1036.288319,-9422.974625
867.378015,0.000000,-740.205942,-9652.803275
867.378335,888.247130,-444.123565,-10572.117872
867.378655,666.185348,-814.226536,-10189.070123
867.378975,518.144159,-1036.288319,-9729.412825
867.379295,814.226536,-296.082377,-9959.241474
867.379615,666.185348,962.267725,-10112.460574
867.379935,518.144159,1776.494261,-9882.631924
867.380255,962.267725,1036.288319,-10265.679673
867.380575,888.247130,-962.267725,-10265.679673
867.380895,222.061783,-1702.473667,-10342.289223
867.381215,-1628.453072,-1258.350101,-9959.241474
867.381535,-814.226536,-962.267725,-10495.508323
867.381855,74.020594,370.102971,-10342.289223
867.382175,0.000000,1184.329507,-10955.165621
867.382495,-518.144159,444.123565,-10801.946522
867.382815,148.041188,888.247130,-10572.117872
867.383135,962.267725,592.164754,-11184.994271
867.383455,962.267725,148.041188,-10342.289223
867.383775,518.144159,592.164754,-10418.898773
867.384095,222.061783,0.000000,-10265.679673
867.384415,1628.453072,-518.144159,-9729.412825
867.384735,962.267725,-888.247130,-10342.289223
867.385055,0.000000,-1258.350101,-10189.070123
867.385375,-814.226536,-518.144159,-9652.803275
867.385695,-2146.597232,592.164754,-10265.679673
867.386015,-1110.308913,518.144159,-9806.022374
867.386335,-962.267725,-444.123565,-9959.241474
867.386655,-814.226536,-1258.350101,-9499.584175
867.386975,740.205942,-1332.370696,-10112.460574
867.387295,1776.494261,-444.123565,-10342.289223
867.387615,2146.597232,666.185348,-9882.631924
867.387935,1258.350101,1332.370696,-10572.117872
867.388255,1332.370696,1184.329507,-9806.022374
867.388575,740.205942,148.041188,-9806.022374
867.388895,814.226536,222.061783,-10189.070123
867.389215,296.082377,-148.041188,-10112.460574
867.389535,-148.041188,-296.082377,-9806.022374
867.389855,1258.350101,74.020594,-9959.241474
867.390175,2220.617826,444.123565,-9806.022374
867.390495,2220.617826,962.267725,-10112.460574
867.390815,2220.617826,1554.432478,-10648.727422
867.391135,1554.432478,1850.514855,-10342.289223
867.391455,2220.617826,2442.679609,-9806.022374
867.391775,1924.535449,2442.679609,-10189.070123
867.392095,1776.494261,1036.288319,-9959.241474
867.392415,1184.329507,-222.061783,-9422.974625
867.392735,1850.514855,-740.205942,-10035.851024
867.393055,1998.556043,-1332.370696,-9806.022374
867.393375,592.164754,-296.082377,-10189.070123
867.393695,-518.144159,592.164754,-10112.460574
867.394015,444.123565,1628.453072,-10265.679673
867.394335,1776.494261,2664.741391,-10112.460574
867.394655,2664.741391,2220.617826,-10572.117872
867.394975,1998.556043,1924.535449,-10189.070123
867.395295,444.123565,1184.329507,-10265.679673
867.395615,592.164754,148.041188,-10035.851024
867.395935,0.000000,-296.082377,-9806.022374
867.396255,-962.267725,-740.205942,-9882.631924
867.396575,-592.164754,444.123565,-9806.022374
867.396895,518.144159,1776.494261,-10265.679673
867.397215,888.247130,2442.679609,-10801.946522
867.397535,444.123565,2146.597232,-9806.022374
867.397855,74.020594,888.247130,-10189.070123
867.398176,814.226536,592.164754,-9806.022374
867.398496,1258.350101,-296.082377,-9806.022374
867.398816,518.144159,0.000000,-10265.679673
867.399136,370.102971,-148.041188,-10112.460574
867.399456,-1036.288319,148.041188,-9806.022374
867.399776,-666.185348,-666.185348,-9346.365076
867.400096,0.000000,74.020594,-10112.460574
867.400416,-1110.308913,1036.288319,-9959.241474
867.400736,-518.144159,1480.411884,-10572.117872
867.401056,148.041188,962.267725,-10265.679673
867.401376,-962.267725,74.020594,-10418.898773
867.401696,-1184.329507,-1924.535449,-10725.336972
867.402016,-1258.350101,-3108.864956,-9422.974625
867.402336,-370.102971,-2146.597232,-10189.070123
867.402656,1924.535449,518.144159,-11797.870669
867.402976,1258.350101,2590.720797,-10495.508323
867.403296,592.164754,2516.700203,-10572.117872
867.403616,74.020594,1998.556043,-10112.460574
867.403936,-148.041188,-222.061783,-11108.384721
867.404256,1110.308913,-2516.700203,-10035.851024
867.404576,0.000000,-3108.864956,-9576.193725
867.404896,-1110.308913,-1850.514855,-10342.289223
867.405216,-1332.370696,-962.267725,-10035.851024
867.405536,-1184.329507,-666.185348,-9729.412825
867.405856,-740.205942,740.205942,-10495.508323
867.406176,-222.061783,1258.350101,-9806.022374
867.406496,1850.514855,1850.514855,-10878.556072
867.406816,2738.761985,-1036.288319,-9806.022374
867.407136,1850.514855,-962.267725,-10342.289223
867.407456,-518.144159,-666.185348,-9806.022374
867.407776,0.000000,-1332.370696,-10265.679673
867.408096,1480.411884,-814.226536,-10495.508323
867.408416,370.102971,-148.041188,-10418.898773
867.408736,148.041188,-518.144159,-10112.460574
867.409056,148.041188,1110.308913,-10189.070123
867.409376,518.144159,1406.391290,-10418.898773
867.409696,740.205942,592.164754,-10418.898773
867.410016,814.226536,-370.102971,-10112.460574
867.410336,1036.288319,-1184.329507,-9729.412825
867.410656,1258.350101,-1258.350101,-10035.851024
867.410976,1628.453072,-148.041188,-10495.508323
867.411296,2072.576638,740.205942,-10342.289223
867.411616,740.205942,2072.576638,-10495.508323
867.411936,370.102971,1110.308913,-10189.070123
867.412256,3330.926739,592.164754,-10648.727422
867.412576,2294.638420,740.205942,-12257.527968
867.412896,888.247130,222.061783,-10801.946522
867.413216,592.164754,1406.391290,-10572.117872
867.413536,-148.041188,1702.473667,-10418.898773
867.413856,666.185348,1332.370696,-9346.365076
867.414176,962.267725,592.164754,-9806.022374
867.414496,1702.473667,740.205942,-10112.460574
867.414816,1036.288319,592.164754,-10112.460574
867.415136,370.102971,1258.350101,-9882.631924
867.415456,1258.350101,0.000000,-9499.584175
867.415776,1258.350101,370.102971,-9499.584175
867.416096,1480.411884,148.041188,-9422.974625
867.416416,1110.308913,814.226536,-9499.584175
867.416736,-370.102971,1628.453072,-9193.145976
867.417056,-1480.411884,888.247130,-9269.755526
867.417376,-962.267725,1406.391290,-9499.584175
867.417696,0.000000,666.185348,-10112.460574
867.418016,296.082377,-740.205942,-9422.974625
867.418336,518.144159,-444.123565,-9806.022374
867.418656,592.164754,-370.102971,-9729.412825
867.418976,-148.041188,592.164754,-10035.851024
867.419296,-222.061783,1036.288319,-9959.241474
867.419616,222.061783,1776.494261,-10112.460574
867.419936,1554.432478,814.226536,-9882.631924
867.420256,1776.494261,1258.350101,-10495.508323
867.420576,370.102971,1628.453072,-10418.898773
867.420896,-888.247130,1332.370696,-10725.336972
867.421217,-296.082377,222.061783,-10418.898773
867.421537,370.102971,148.041188,-10648.727422
867.421857,814.226536,0.000000,-10495.508323
867.422177,-518.144159,222.061783,-10418.898773
867.422497,0.000000,1628.453072,-10572.117872
867.422817,222.061783,2516.700203,-10725.336972
867.423137,1480.411884,1184.329507,-10495.508323
867.423457,370.102971,296.082377,-10418.898773
867.423777,-296.082377,-1332.370696,-10112.460574
867.424097,-296.082377,-1924.535449,-9882.631924
867.424417,0.000000,592.164754,-9959.241474
867.424737,814.226536,2072.576638,-10265.679673
867.425057,1258.350101,1776.494261,-10572.117872
867.425377,74.020594,1184.329507,-9729.412825
867.425697,-1406.391290,-148.041188,-9806.022374
867.426017,-518.144159,-1110.308913,-9422.974625
867.426337,0.000000,-1480.411884,-9729.412825
867.426657,518.144159,-370.102971,-10112.460574
867.426977,1110.308913,-296.082377,-9882.631924
867.427297,1184.329507,-1110.308913,-9806.022374
867.427617,148.041188,-740.205942,-9576.193725
867.427937,370.102971,-1258.350101,-9652.803275
867.428257,1110.308913,-296.082377,-10189.070123
867.428577,1258.350101,0.000000,-10189.070123
867.428897,2590.720797,222.061783,-9806.022374
867.429217,1998.556043,888.247130,-9959.241474
867.429537,0.000000,666.185348,-9193.145976
867.429857,148.041188,222.061783,-10035.851024
867.430177,-740.205942,-666.185348,-10189.070123
867.430497,1036.288319,0.000000,-10801.946522
867.430817,1702.473667,0.000000,-10801.946522
867.431137,2516.700203,-814.226536,-10265.679673
867.431457,0.000000,1110.308913,-10035.851024
867.431777,-370.102971,1480.411884,-11031.775171
867.432097,962.267725,1406.391290,-10418.898773
867.432417,2368.659014,1110.308913,-10265.679673
867.432737,2368.659014,-370.102971,-9959.241474
867.433057,592.164754,-1776.494261,-10572.117872
867.433377,-222.061783,-1036.288319,-9959.241474
867.433697,-1554.432478,222.061783,-10418.898773
867.434017,-1258.350101,1554.432478,-9652.803275
867.434337,0.000000,2442.679609,-10189.070123
867.434657,592.164754,2516.700203,-10342.289223
867.434977,1628.453072,740.205942,-10265.679673
867.435297,1924.535449,-2516.700203,-9576.193725
867.435617,370.102971,-3552.988522,-9346.365076
867.435937,74.020594,-3923.091493,-9193.145976
867.436257,0.000000,-2368.659014,-8886.707777
867.436577,1110.308913,814.226536,-9422.974625
867.436897,1924.535449,1406.391290,-9806.022374
867.437217,1480.411884,1776.494261,-10112.460574
867.437537,-148.041188,2516.700203,-9806.022374
867.437857,-296.082377,1184.329507,-9882.631924
867.438177,1332.370696,740.205942,-9422.974625
867.438497,0.000000,296.082377,-10112.460574
867.438817,-1258.350101,-1110.308913,-10648.727422
867.439137,-888.247130,-2294.638420,-9729.412825
867.439457,296.082377,296.082377,-10342.289223
867.439777,1184.329507,1406.391290,-9806.022374
867.440097,1258.350101,3330.926739,-10572.117872
867.440417,148.041188,4515.256246,-11491.432470
867.440737,-148.041188,3775.050304,-11568.042020
867.441057,222.061783,1480.411884,-10112.460574
867.441377,-814.226536,-1702.473667,-9806.022374
867.441697,-1480.411884,-2368.659014,-9806.022374
867.442017,1110.308913,-2072.576638,-10035.851024
867.442337,3330.926739,518.144159,-10648.727422
867.442657,2886.803174,1998.556043,-10495.508323
867.442977,740.205942,1924.535449,-10878.556072
867.443297,0.000000,1332.370696,-9959.241474
867.443617,-666.185348,962.267725,-9882.631924
867.443937,666.185348,1554.432478,-9729.412825
867.444257,1110.308913,148.041188,-9959.241474
867.444577,-370.102971,-814.226536,-9499.584175
867.444897,-814.226536,-2072.576638,-9806.022374
867.445217,-296.082377,-1184.329507,-9193.145976
867.445537,-296.082377,148.041188,-9806.022374
867.445857,-1406.391290,1110.308913,-9806.022374
867.446176,-1332.370696,1554.432478,-9576.193725
867.446496,-444.123565,1702.473667,-9959.241474
867.446816,0.000000,814.226536,-9806.022374
867.447136,-888.247130,-592.164754,-9576.193725
867.447456,-888.247130,-444.123565,-9652.803275
867.447776,1036.288319,-148.041188,-9882.631924
867.448096,2220.617826,1702.473667,-10112.460574
867.448416,3108.864956,1110.308913,-9959.241474
867.448736,2146.597232,148.041188,-10495.508323
867.449056,-444.123565,666.185348,-10112.460574
867.449376,-2294.638420,1480.411884,-10648.727422
867.449696,-814.226536,1258.350101,-11031.775171
867.450016,-1480.411884,592.164754,-10112.460574
867.450336,-592.164754,-370.102971,-10648.727422
867.450656,148.041188,-1554.432478,-10112.460574
867.450975,2220.617826,-740.205942,-10801.946522
867.451295,3849.070898,962.267725,-10265.679673
867.451615,3849.070898,2812.782580,-11261.603821
867.451935,2664.741391,2294.638420,-10495.508323
867.452255,3256.906145,1110.308913,-10342.289223
867.452575,2072.576638,1776.494261,-10342.289223
867.452895,1702.473667,296.082377,-10265.679673
867.453215,1110.308913,444.123565,-10342.289223
867.453535,962.267725,0.000000,-10572.117872
867.453855,1184.329507,-370.102971,-9959.241474
867.454175,1184.329507,740.205942,-9806.022374
867.454495,888.247130,962.267725,-9806.022374
867.454815,1110.308913,74.020594,-10112.460574
867.455135,-296.082377,0.000000,-9499.584175
867.455454,-666.185348,-222.061783,-9346.365076
867.455774,1110.308913,74.020594,-8963.317327
867.456094,2368.659014,222.061783,-9576.193725
867.456414,2294.638420,-592.164754,-9499.584175
867.456734,2072.576638,814.226536,-9729.412825
867.457054,1184.329507,1480.411884,-9346.365076
867.457374,1554.432478,814.226536,-9806.022374
867.457694,1850.514855,-1480.411884,-9652.803275
867.458014,-296.082377,-2442.679609,-9882.631924
867.458334,-1480.411884,-148.041188,-9729.412825
867.458654,-888.247130,-148.041188,-9576.193725
867.458974,-444.123565,2368.659014,-10572.117872
867.459294,-1924.535449,2146.597232,-10342.289223
867.459614,0.000000,1628.453072,-10878.556072
867.459934,148.041188,518.144159,-10418.898773
867.460253,814.226536,-666.185348,-10495.508323
867.460573,74.020594,-740.205942,-10801.946522
867.460893,-1776.494261,0.000000,-10265.679673
867.461213,-2146.597232,0.000000,-10495.508323
867.461533,-2516.700203,1258.350101,-10265.679673
867.461853,-1702.473667,1406.391290,-10801.946522
867.462173,0.000000,296.082377,-10418.898773
867.462493,222.061783,0.000000,-9959.241474
867.462813,0.000000,-592.164754,-10878.556072
867.463133,-518.144159,518.144159,-10572.117872
867.463453,-518.144159,-370.102971,-10265.679673
867.463773,-518.144159,-1184.329507,-9806.022374
867.464093,-518.144159,-962.267725,-9269.755526
867.464413,0.000000,518.144159,-10265.679673
867.464733,1184.329507,1480.411884,-10189.070123
867.465052,1036.288319,888.247130,-9499.584175
867.465372,1184.329507,444.123565,-10035.851024
867.465692,592.164754,-740.205942,-9729.412825
867.466012,-592.164754,-2220.617826,-8886.707777
867.466332,-1480.411884,-3627.009116,-8886.707777
867.466652,-222.061783,-2072.576638,-9116.536426
867.466972,148.041188,740.205942,-10189.070123
867.467292,518.144159,666.185348,-9806.022374
867.467612,1184.329507,-148.041188,-9652.803275
867.467932,518.144159,592.164754,-9729.412825
867.468252,2294.638420,1702.473667,-10418.898773
867.468572,2590.720797,888.247130,-10189.070123
867.468892,1332.370696,814.226536,-10572.117872
867.469212,-666.185348,592.164754,-9882.631924
867.469532,518.144159,0.000000,-10342.289223
867.469851,1998.556043,-296.082377,-10495.508323
867.470171,2072.576638,-666.185348,-10342.289223
867.470491,2220.617826,1480.411884,-10878.556072
867.470811,1776.494261,2886.803174,-10878.556072
867.471131,2368.659014,2812.782580,-11184.994271
867.471451,1036.288319,1332.370696,-10495.508323
867.471771,74.020594,-888.247130,-10418.898773
867.472091,-518.144159,-2072.576638,-9806.022374
867.472411,1332.370696,-1258.350101,-9959.241474
867.472731,3552.988522,518.144159,-10418.898773
867.473051,2738.761985,3849.070898,-10955.165621
867.473371,814.226536,3108.864956,-10648.727422
867.473691,1406.391290,1776.494261,-10112.460574
867.474011,518.144159,444.123565,-9576.193725
867.474331,148.041188,-444.123565,-10035.851024
867.474650,0.000000,-888.247130,-9576.193725
867.474970,-518.144159,-1332.370696,-9652.803275
867.475290,-296.082377,-1554.432478,-8886.707777
867.475610,148.041188,-592.164754,-9499.584175
867.475930,740.205942,370.102971,-9422.974625
867.476250,1406.391290,2516.700203,-9729.412825
867.476570,1184.329507,3775.050304,-10189.070123
867.476890,0.000000,2738.761985,-10342.289223
867.477210,-1110.308913,296.082377,-9422.974625
867.477530,-1628.453072,-1776.494261,-9652.803275
867.477850,0.000000,-2960.823768,-9422.974625
867.478170,1036.288319,-1998.556043,-9806.022374
867.478490,0.000000,148.041188,-10035.851024
867.478810,-518.144159,3256.906145,-10189.070123
867.479130,-1628.453072,3478.967927,-10035.851024
867.479449,-1258.350101,2738.761985,-10265.679673
867.479769,0.000000,74.020594,-10572.117872
867.480089,1258.350101,-1332.370696,-10035.851024
867.480409,296.082377,-666.185348,-9959.241474
867.480729,740.205942,1924.535449,-10648.727422
867.481049,2072.576638,3108.864956,-10572.117872
867.481369,1258.350101,1702.473667,-10572.117872
867.481689,1258.350101,148.041188,-10342.289223
867.482009,1702.473667,-1480.411884,-9806.022374
867.482329,0.000000,-2368.659014,-10035.851024
867.482649,-1628.453072,-1776.494261,-9806.022374
867.482969,-1554.432478,-1036.288319,-9806.022374
867.483289,-814.226536,0.000000,-10035.851024
867.483609,-740.205942,0.000000,-9959.241474
867.483929,-222.061783,888.247130,-9422.974625
867.484248,-518.144159,740.205942,-10342.289223
867.484568,0.000000,1702.473667,-10418.898773
867.484888,1480.411884,1480.411884,-10342.289223
867.485208,814.226536,740.205942,-9346.365076
867.485528,-444.123565,-962.267725,-10112.460574
867.485848,-2072.576638,-1628.453072,-9959.241474
867.486168,-2146.597232,-888.247130,-9652.803275
867.486488,-592.164754,888.247130,-9882.631924
867.486808,1702.473667,1110.308913,-10189.070123
867.487128,2738.761985,888.247130,-10189.070123
867.487448,3701.029710,148.041188,-10112.460574
867.487768,4811.338623,-148.041188,-10418.898773
867.488088,4367.215058,-296.082377,-10035.851024
867.488408,1924.535449,1110.308913,-10418.898773
867.488728,-296.082377,1036.288319,-10648.727422
867.489047,-444.123565,1036.288319,-10189.070123
867.489367,1036.288319,222.061783,-10189.070123
867.489687,2072.576638,-296.082377,-10418.898773
867.490007,1776.494261,0.000000,-9882.631924
867.490327,1332.370696,1258.350101,-10572.117872
867.490647,1850.514855,1776.494261,-10495.508323
867.490967,222.061783,1332.370696,-9806.022374
867.491287,-370.102971,0.000000,-9729.412825
867.491607,-296.082377,-1776.494261,-9729.412825
867.491927,0.000000,-2294.638420,-9499.584175
867.492247,666.185348,-444.123565,-10035.851024
867.492567,1776.494261,2072.576638,-9806.022374
867.492887,2368.659014,2738.761985,-10265.679673
867.493207,2220.617826,2072.576638,-10112.460574
867.493526,1332.370696,74.020594,-10189.070123
867.493846,0.000000,74.020594,-10265.679673
867.494166,-1554.432478,-1184.329507,-9652.803275
867.494486,-1258.350101,-1184.329507,-9729.412825
867.494806,-1924.535449,-962.267725,-9806.022374
867.495126,-1702.473667,-962.267725,-9652.803275
867.495446,-2146.597232,-518.144159,-9652.803275
867.495766,666.185348,-666.185348,-9959.241474
867.496086,1998.556043,148.041188,-10112.460574
867.496406,1258.350101,1776.494261,-10725.336972
867.496726,-1110.308913,1628.453072,-10112.460574
867.497046,-1184.329507,1184.329507,-9652.803275
867.497366,148.041188,-1110.308913,-9959.241474
867.497686,1850.514855,-2442.679609,-10112.460574
867.498006,1332.370696,-2960.823768,-10112.460574
867.498325,74.020594,-518.144159,-10418.898773
867.498645,370.102971,1110.308913,-10418.898773
867.498965,1110.308913,2664.741391,-10265.679673
867.499285,370.102971,2220.617826,-10495.508323
867.499605,222.061783,370.102971,-9959.241474
867.499925,148.041188,-1332.370696,-9806.022374
867.500245,444.123565,222.061783,-10801.946522
867.500565,148.041188,-740.205942,-10342.289223
867.500885,1036.288319,-370.102971,-10035.851024
867.501205,1184.329507,-666.185348,-9806.022374
867.501525,1332.370696,1258.350101,-10265.679673
867.501845,518.144159,1998.556043,-10801.946522
867.502165,-222.061783,1554.432478,-10648.727422
867.502485,0.000000,888.247130,-10035.851024
867.502805,-888.247130,-1406.391290,-9576.193725
867.503124,-1702.473667,-1258.350101,-9729.412825
867.503444,-296.082377,-1332.370696,-9729.412825
867.503764,1628.453072,592.164754,-10648.727422
867.504084,1998.556043,1628.453072,-9576.193725
867.504404,666.185348,1998.556043,-10725.336972
867.504724,296.082377,592.164754,-9499.584175
867.505044,740.205942,888.247130,-10189.070123
867.505364,1036.288319,444.123565,-10035.851024
867.505684,296.082377,-1036.288319,-10189.070123
867.506004,-1406.391290,-1776.494261,-8886.707777
867.506324,-2886.803174,-444.123565,-9882.631924
867.506644,-1924.535449,222.061783,-9346.365076
867.506964,-740.205942,1998.556043,-10035.851024
867.507284,592.164754,1110.308913,-9652.803275
867.507604,1924.535449,-666.185348,-9806.022374
867.507923,2738.761985,-1998.556043,-9576.193725
867.508243,3182.885551,-148.041188,-11414.822920
867.508563,666.185348,1110.308913,-10035.851024
867.508883,0.000000,3330.926739,-9806.022374
867.509203,-296.082377,3627.009116,-10418.898773
867.509523,592.164754,592.164754,-9882.631924
867.509843,2294.638420,592.164754,-10801.946522
867.510163,1036.288319,-666.185348,-10112.460574
867.510483,2738.761985,814.226536,-10725.336972
867.510803,1998.556043,2368.659014,-10342.289223
867.511123,2368.659014,2960.823768,-10495.508323
867.511443,1036.288319,740.205942,-10112.460574
867.511763,592.164754,-148.041188,-10572.117872
867.512083,518.144159,296.082377,-9576.193725
867.512403,1850.514855,666.185348,-10572.117872
867.512722,1850.514855,1110.308913,-10572.117872
867.513042,1480.411884,888.247130,-10265.679673
867.513362,1258.350101,296.082377,-10265.679673
867.513682,1332.370696,148.041188,-10878.556072
867.514002,148.041188,814.226536,-9959.241474
867.514322,370.102971,1406.391290,-10878.556072
867.514642,-962.267725,2590.720797,-10112.460574
867.514962,-962.267725,592.164754,-10189.070123
867.515282,-222.061783,-1628.453072,-9652.803275
867.515602,740.205942,-1332.370696,-10189.070123
867.515922,1406.391290,-2220.617826,-9806.022374
867.516242,2220.617826,0.000000,-10112.460574
867.516562,1702.473667,518.144159,-10265.679673
867.516882,148.041188,666.185348,-10189.070123
867.517202,-1110.308913,2368.659014,-9499.584175
867.517521,888.247130,1776.494261,-10265.679673
867.517841,2294.638420,666.185348,-9806.022374
867.518161,666.185348,-1628.453072,-9499.584175
867.518481,-1776.494261,-2294.638420,-9499.584175
867.518801,-1480.411884,-2072.576638,-9499.584175
867.519121,-962.267725,-962.267725,-9729.412825
867.519441,888.247130,0.000000,-9882.631924
867.519761,814.226536,1036.288319,-9652.803275
867.520081,-518.144159,1776.494261,-9882.631924
867.520401,-1332.370696,740.205942,-10572.117872
867.520721,-888.247130,666.185348,-9882.631924
867.521041,814.226536,74.020594,-9729.412825
867.521361,3182.885551,-1850.514855,-10572.117872
867.521681,2960.823768,-2294.638420,-9806.022374
867.522001,740.205942,-1628.453072,-10418.898773
867.522320,-518.144159,296.082377,-10648.727422
867.522640,-222.061783,1776.494261,-10418.898773
867.522960,-962.267725,1480.411884,-10801.946522
867.523280,-1776.494261,666.185348,-10648.727422
867.523600,-2368.659014,-1332.370696,-10572.117872
867.523920,-2220.617826,-2146.597232,-10189.070123
867.524240,-296.082377,-444.123565,-10572.117872
867.524560,518.144159,370.102971,-10418.898773
867.524880,-296.082377,666.185348,-10112.460574
867.525200,-518.144159,296.082377,-10189.070123
867.525520,1036.288319,0.000000,-10035.851024
867.525840,2368.659014,148.041188,-10112.460574
867.526160,1850.514855,1332.370696,-9959.241474
867.526480,1406.391290,814.226536,-10648.727422
867.526800,0.000000,518.144159,-9652.803275
867.527119,-1184.329507,-888.247130,-9652.803275
867.527439,-518.144159,-1036.288319,-8886.707777
867.527759,518.144159,0.000000,-9806.022374
867.528079,1258.350101,666.185348,-9652.803275
867.528399,518.144159,962.267725,-9959.241474
867.528719,0.000000,370.102971,-9422.974625
867.529039,0.000000,-888.247130,-9576.193725
867.529359,1110.308913,-1406.391290,-9729.412825
867.529679,2442.679609,-1924.535449,-9576.193725
867.529999,2368.659014,-296.082377,-10035.851024
867.530319,1332.370696,1332.370696,-10265.679673
867.530639,518.144159,2738.761985,-10418.898773
867.530959,-814.226536,3923.091493,-10035.851024
867.531279,-1702.473667,2294.638420,-10265.679673
867.531598,296.082377,-888.247130,-10418.898773
867.531918,2368.659014,-814.226536,-10648.727422
867.532238,2442.679609,-740.205942,-10265.679673
867.532558,2294.638420,1406.391290,-10955.165621
867.532878,2368.659014,1702.473667,-10495.508323
867.533198,2590.720797,2072.576638,-10648.727422
867.533518,1332.370696,1776.494261,-10495.508323
867.533838,-148.041188,1850.514855,-10342.289223
867.534158,1628.453072,1332.370696,-10801.946522
867.534478,1776.494261,1332.370696,-11031.775171
867.534798,666.185348,1628.453072,-10495.508323
867.535118,-1036.288319,1480.411884,-10495.508323
867.535438,-148.041188,-222.061783,-9806.022374
867.535758,1628.453072,-1702.473667,-9269.755526
867.536078,1184.329507,-1184.329507,-9806.022374
867.536397,444.123565,74.020594,-9959.241474
867.536717,370.102971,1850.514855,-9882.631924
867.537037,222.061783,1924.535449,-9576.193725
867.537357,148.041188,2146.597232,-9806.022374
867.537677,1628.453072,222.061783,-9806.022374
867.537997,1110.308913,-2294.638420,-9729.412825
867.538317,296.082377,-1850.514855,-9806.022374
867.538637,-222.061783,-740.205942,-9346.365076
867.538957,0.000000,1628.453072,-9422.974625
867.539277,888.247130,1628.453072,-10112.460574
867.539597,2072.576638,1110.308913,-9806.022374
867.539917,740.205942,-222.061783,-9269.755526
867.540237,-444.123565,-740.205942,-10035.851024
867.540557,74.020594,-592.164754,-9882.631924
867.540877,-222.061783,-518.144159,-9806.022374
867.541197,-592.164754,-518.144159,-9959.241474
867.541517,444.123565,-1332.370696,-9806.022374
867.541837,1628.453072,148.041188,-10265.679673
867.542157,0.000000,1406.391290,-10495.508323
867.542477,-370.102971,2886.803174,-11031.775171
867.542797,-370.102971,2590.720797,-10725.336972
867.543117,-666.185348,962.267725,-10878.556072
867.543437,1110.308913,-2886.803174,-10112.460574
867.543757,1850.514855,-3923.091493,-10035.851024
867.544077,0.000000,-2368.659014,-10648.727422
867.544397,-2072.576638,2738.761985,-10955.165621
867.544717,-3256.906145,3997.112087,-10878.556072
867.545037,-2368.659014,4441.235652,-10801.946522
867.545357,-370.102971,1998.556043,-9882.631924
867.545677,740.205942,-962.267725,-10112.460574
867.545997,296.082377,-2072.576638,-9882.631924
867.546317,592.164754,-1702.473667,-9959.241474
867.546637,1036.288319,0.000000,-9576.193725
867.546957,1924.535449,666.185348,-10648.727422
867.547277,1850.514855,0.000000,-9729.412825
867.547597,888.247130,518.144159,-9959.241474
867.547917,-296.082377,814.226536,-9652.803275
867.548237,0.000000,1850.514855,-9806.022374
867.548557,592.164754,1776.494261,-10418.898773
867.548877,814.226536,-296.082377,-9806.022374
867.549197,0.000000,-2294.638420,-9346.365076
867.549517,888.247130,-2664.741391,-9499.584175
867.549837,1628.453072,-1110.308913,-9346.365076
867.550157,1998.556043,1110.308913,-9959.241474
867.550477,3108.864956,3108.864956,-10265.679673
867.550797,1628.453072,2664.741391,-9882.631924
867.551117,0.000000,0.000000,-9959.241474
867.551437,148.041188,-666.185348,-9269.755526
867.551757,1480.411884,-962.267725,-10189.070123
867.552077,2664.741391,1702.473667,-10112.460574
867.552398,1850.514855,2368.659014,-10878.556072
867.552718,0.000000,1702.473667,-10035.851024
867.553038,-1036.288319,370.102971,-9652.803275
867.553358,666.185348,-1850.514855,-9806.022374
867.553678,2146.597232,-1628.453072,-9806.022374
867.553998,2072.576638,-1628.453072,-9806.022374
867.554318,1850.514855,518.144159,-10572.117872
867.554638,1184.329507,1628.453072,-10418.898773
867.554958,-148.041188,2590.720797,-10878.556072
867.555278,-2368.659014,2516.700203,-11108.384721
867.555598,-2294.638420,740.205942,-10342.289223
867.555918,-1258.350101,444.123565,-10648.727422
867.556238,-222.061783,296.082377,-10572.117872
867.556558,74.020594,-444.123565,-10265.679673
867.556878,370.102971,-1258.350101,-9806.022374
867.557198,666.185348,-1110.308913,-10342.289223
867.557518,2368.659014,-370.102971,-10265.679673
867.557838,1480.411884,518.144159,-10572.117872
867.558158,666.185348,2368.659014,-10189.070123
867.558478,888.247130,3478.967927,-10648.727422
867.558798,740.205942,2294.638420,-10189.070123
867.559118,74.020594,296.082377,-9806.022374
867.559438,0.000000,-2220.617826,-10495.508323
867.559758,-370.102971,-2220.617826,-9729.412825
867.560078,-296.082377,-1258.350101,-9576.193725
867.560398,74.020594,-222.061783,-10189.070123
867.560718,296.082377,1184.329507,-9346.365076
867.561038,222.061783,2368.659014,-10265.679673
867.561358,0.000000,962.267725,-9882.631924
867.561678,1258.350101,-666.185348,-9882.631924
867.561998,1110.308913,-1924.535449,-9729.412825
867.562318,518.144159,-2220.617826,-9806.022374
867.562638,370.102971,-1184.329507,-9422.974625
867.562958,-518.144159,1036.288319,-10112.460574
867.563278,-518.144159,1406.391290,-10189.070123
867.563598,-370.102971,740.205942,-9806.022374
867.563919,-370.102971,-296.082377,-10342.289223
867.564239,148.041188,-296.082377,-10265.679673
867.564559,-518.144159,-814.226536,-10342.289223
867.564879,-1036.288319,-1036.288319,-10265.679673
867.565199,222.061783,-740.205942,-10495.508323
867.565519,592.164754,518.144159,-10648.727422
867.565839,222.061783,1036.288319,-10418.898773
867.566159,-888.247130,2368.659014,-10265.679673
867.566479,592.164754,2072.576638,-10878.556072
867.566799,1332.370696,2294.638420,-10112.460574
867.567119,2368.659014,666.185348,-10801.946522
867.567439,1628.453072,-1702.473667,-10342.289223
867.567759,0.000000,-2220.617826,-10265.679673
867.568079,-296.082377,-1480.411884,-10878.556072
867.568399,0.000000,1480.411884,-10418.898773
867.568719,296.082377,2886.803174,-10265.679673
867.569039,814.226536,2960.823768,-10801.946522
867.569359,1258.350101,2368.659014,-9116.536426
867.569679,2664.741391,1628.453072,-10112.460574
867.569999,2220.617826,1110.308913,-10342.289223
867.570319,1850.514855,-370.102971,-9652.803275
867.570639,2220.617826,-1924.535449,-9269.755526
867.570959,3108.864956,-1110.308913,-8350.440928
867.571279,4219.173869,-296.082377,-9269.755526
867.571599,2590.720797,1998.556043,-9806.022374
867.571919,1554.432478,3108.864956,-9882.631924
867.572239,0.000000,3701.029710,-10189.070123
867.572559,-1628.453072,1776.494261,-9729.412825
867.572879,-2590.720797,0.000000,-9499.584175
867.573199,-1110.308913,-1998.556043,-9193.145976
867.573519,1702.473667,-2146.597232,-9806.022374
867.573839,3552.988522,-592.164754,-9806.022374
867.574159,4145.153275,518.144159,-10418.898773
867.574479,1776.494261,1998.556043,-9882.631924
867.574799,-444.123565,3034.844362,-10342.289223
867.575119,-1776.494261,2146.597232,-10265.679673
867.575439,-2590.720797,740.205942,-10189.070123
867.575760,-2664.741391,-1554.432478,-9806.022374
867.576080,-1702.473667,-2590.720797,-9729.412825
867.576400,592.164754,-2368.659014,-10648.727422
867.576720,1184.329507,-1036.288319,-10189.070123
867.577040,1184.329507,888.247130,-10878.556072
867.577360,1850.514855,1850.514855,-10418.898773
867.577680,2516.700203,1850.514855,-10342.289223
867.578000,1258.350101,2368.659014,-11108.384721
867.578320,148.041188,1110.308913,-10725.336972
867.578640,0.000000,814.226536,-10418.898773
867.578960,518.144159,0.000000,-10572.117872
867.579280,1998.556043,-444.123565,-10342.289223
867.579600,888.247130,-1332.370696,-9959.241474
867.579920,-1036.288319,-1480.411884,-9729.412825
867.580240,-1998.556043,370.102971,-10112.460574
867.580560,-1110.308913,1554.432478,-10189.070123
867.580880,-1628.453072,2294.638420,-9729.412825
867.581200,-1184.329507,74.020594,-9806.022374
867.581520,444.123565,-2812.782580,-9499.584175
867.581840,1924.535449,-3552.988522,-9193.145976
867.582160,1184.329507,-1924.535449,-10572.117872
867.582480,518.144159,0.000000,-9806.022374
867.582800,-148.041188,740.205942,-9729.412825
867.583120,-1110.308913,296.082377,-10189.070123
867.583440,-592.164754,-1480.411884,-9806.022374
867.583760,-814.226536,-2664.741391,-10648.727422
867.584080,-1702.473667,-2368.659014,-10189.070123
867.584400,-1110.308913,518.144159,-10342.289223
867.584720,-1480.411884,2442.679609,-10725.336972
867.585040,-666.185348,2294.638420,-10725.336972
867.585360,1332.370696,-148.041188,-10801.946522
867.585680,1776.494261,-2590.720797,-10189.070123
867.586000,1184.329507,-2960.823768,-10725.336972
867.586320,0.000000,-370.102971,-10572.117872
867.586640,-888.247130,1258.350101,-10112.460574
867.586960,-1406.391290,3552.988522,-10725.336972
867.587280,370.102971,1258.350101,-10725.336972
867.587601,1184.329507,-444.123565,-10189.070123
867.587921,888.247130,-518.144159,-10265.679673
867.588241,1554.432478,444.123565,-10648.727422
867.588561,2664.741391,2294.638420,-10112.460574
867.588881,2072.576638,1924.535449,-10418.898773
867.589201,3552.988522,0.000000,-10725.336972
867.589521,1480.411884,-2368.659014,-9652.803275
867.589841,-1184.329507,-1776.494261,-9729.412825
867.590161,0.000000,1702.473667,-10035.851024
867.590481,2886.803174,5255.462188,-10495.508323
867.590801,1924.535449,6365.771101,-9729.412825
867.591121,2368.659014,4663.297435,-10572.117872
867.591441,2590.720797,-666.185348,-9576.193725
867.591761,1332.370696,-3478.967927,-9039.926876
867.592081,296.082377,-3034.844362,-9499.584175
867.592401,222.061783,0.000000,-9269.755526
867.592721,296.082377,1998.556043,-9652.803275
867.593041,888.247130,2812.782580,-9806.022374
867.593361,2738.761985,1776.494261,-10189.070123
867.593681,3478.967927,1850.514855,-10342.289223
867.594001,3034.844362,1480.411884,-10112.460574
867.594321,2738.761985,2294.638420,-10265.679673
867.594641,1776.494261,2738.761985,-10112.460574
867.594961,-370.102971,1628.453072,-9806.022374
867.595281,-814.226536,-1332.370696,-9499.584175
867.595601,-1628.453072,-888.247130,-9652.803275
867.595921,-222.061783,296.082377,-9806.022374
867.596241,2368.659014,2368.659014,-10342.289223
867.596561,3108.864956,3627.009116,-10572.117872
867.596881,2738.761985,3627.009116,-10112.460574
867.597201,2590.720797,2590.720797,-10725.336972
867.597521,2812.782580,1332.370696,-10955.165621
867.597841,666.185348,1776.494261,-11338.213370
867.598161,-370.102971,3182.885551,-10495.508323
867.598481,1184.329507,3997.112087,-10342.289223
867.598801,2294.638420,3701.029710,-10265.679673
867.599121,2146.597232,1998.556043,-10112.460574
867.599442,1998.556043,888.247130,-10418.898773
867.599762,3997.112087,1702.473667,-10265.679673
867.600082,5033.400406,2220.617826,-10035.851024
867.600402,3552.988522,2516.700203,-9959.241474
867.600722,1332.370696,2738.761985,-9806.022374
867.601042,0.000000,1628.453072,-9806.022374
867.601362,814.226536,1406.391290,-9422.974625
867.601682,2516.700203,1924.535449,-9882.631924
867.602002,2886.803174,3034.844362,-10265.679673
867.602322,2738.761985,3627.009116,-10189.070123
867.602642,2516.700203,2368.659014,-10189.070123
867.602962,2812.782580,1184.329507,-9652.803275
867.603282,2220.617826,962.267725,-9882.631924
867.603602,1554.432478,2590.720797,-9652.803275
867.603922,1406.391290,1924.535449,-10035.851024
867.604242,740.205942,1406.391290,-9576.193725
867.604562,0.000000,1110.308913,-9499.584175
867.604882,1850.514855,1850.514855,-9576.193725
867.605202,4737.318029,3182.885551,-10495.508323
867.605522,4737.318029,3775.050304,-10801.946522
867.605842,1924.535449,3478.967927,-10878.556072
867.606162,-370.102971,2812.782580,-9959.241474
867.606482,888.247130,1554.432478,-10342.289223
867.606802,1702.473667,1258.350101,-10342.289223
867.607122,666.185348,666.185348,-10418.898773
867.607442,1258.350101,1110.308913,-10112.460574
867.607762,2886.803174,2368.659014,-10495.508323
867.608082,2960.823768,4071.132681,-10955.165621
867.608402,1036.288319,4515.256246,-10725.336972
867.608722,370.102971,3923.091493,-10189.070123
867.609042,2368.659014,3108.864956,-10572.117872
867.609362,4071.132681,2664.741391,-9882.631924
867.609682,4145.153275,2294.638420,-10495.508323
867.610002,3627.009116,2368.659014,-9806.022374
867.610322,3997.112087,2294.638420,-10418.898773
867.610642,3849.070898,3701.029710,-10112.460574
867.610963,2294.638420,3923.091493,-10572.117872
867.611283,0.000000,3330.926739,-9806.022374
867.611603,1036.288319,1850.514855,-9806.022374
867.611923,3775.050304,814.226536,-9959.241474
867.612243,4441.235652,1628.453072,-9729.412825
867.612563,3404.947333,2220.617826,-10035.851024
867.612883,3997.112087,3034.844362,-9499.584175
867.613203,4737.318029,3775.050304,-10189.070123
867.613523,5625.565159,5107.421000,-10189.070123
867.613843,4071.132681,5033.400406,-10035.851024
867.614163,1554.432478,3478.967927,-9806.022374
867.614483,444.123565,1850.514855,-9806.022374
867.614803,1554.432478,222.061783,-9882.631924
867.615123,2072.576638,370.102971,-9576.193725
867.615443,888.247130,814.226536,-9729.412825
867.615763,1406.391290,2220.617826,-9959.241474
867.616083,2516.700203,3552.988522,-9576.193725
867.616403,4589.276840,5403.503377,-10342.289223
867.616723,5625.565159,4737.318029,-11108.384721
867.617043,4663.297435,4293.194464,-10189.070123
867.617363,2590.720797,3108.864956,-10265.679673
867.617683,1480.411884,1924.535449,-9652.803275
867.618003,740.205942,1850.514855,-10112.460574
867.618323,666.185348,1554.432478,-10418.898773
867.618643,666.185348,1554.432478,-9422.974625
867.618963,74.020594,1924.535449,-10495.508323
867.619283,-888.247130,1998.556043,-9499.584175
867.619603,-740.205942,2368.659014,-9806.022374
867.619923,444.123565,2516.700203,-10801.946522
867.620243,3108.864956,1776.494261,-9806.022374
867.620563,3775.050304,1110.308913,-10035.851024
867.620883,2664.741391,1554.432478,-10725.336972
867.621203,666.185348,2368.659014,-9806.022374
867.621523,370.102971,2960.823768,-9882.631924
867.621843,2220.617826,3034.844362,-10648.727422
867.622163,3034.844362,1850.514855,-9959.241474
867.622483,2146.597232,814.226536,-10112.460574
867.622804,1258.350101,1258.350101,-10189.070123
867.623124,1184.329507,2146.597232,-9882.631924
867.623444,0.000000,3552.988522,-9959.241474
867.623764,74.020594,3034.844362,-10035.851024
867.624084,2368.659014,1554.432478,-9729.412825
867.624404,4071.132681,370.102971,-9959.241474
867.624724,4589.276840,296.082377,-10112.460574
867.625044,2812.782580,2146.597232,-10112.460574
867.625364,1628.453072,3330.926739,-10265.679673
867.625684,1332.370696,4145.153275,-10189.070123
867.626004,1554.432478,3108.864956,-9882.631924
867.626324,2442.679609,1480.411884,-9959.241474
867.626644,3108.864956,74.020594,-10725.336972
867.626964,3478.967927,74.020594,-9882.631924
867.627284,4145.153275,1776.494261,-10112.460574
867.627604,4811.338623,3552.988522,-10342.289223
867.627924,5773.606348,4737.318029,-10725.336972
867.628244,5255.462188,4811.338623,-10495.508323
867.628564,3182.885551,4071.132681,-10648.727422
867.628884,1036.288319,3182.885551,-10112.460574
867.629204,888.247130,1924.535449,-10955.165621
867.629524,2146.597232,0.000000,-9729.412825
867.629844,2960.823768,-370.102971,-9729.412825
867.630164,2442.679609,740.205942,-9729.412825
867.630484,2368.659014,2886.803174,-9806.022374
867.630804,3775.050304,5107.421000,-10265.679673
867.631124,5255.462188,5921.647536,-10648.727422
867.631444,5403.503377,5033.400406,-10495.508323
867.631764,3478.967927,3256.906145,-10112.460574
867.632084,1332.370696,1480.411884,-10725.336972
867.632404,-148.041188,444.123565,-9729.412825
867.632724,-962.267725,666.185348,-9576.193725
867.633044,296.082377,962.267725,-9652.803275
867.633364,1480.411884,1554.432478,-9806.022374
867.633684,1480.411884,2442.679609,-10189.070123
867.634004,1924.535449,3108.864956,-9882.631924
867.634324,3256.906145,3923.091493,-10189.070123
867.634645,4737.318029,4737.318029,-10418.898773
867.634965,4811.338623,4885.359217,-9959.241474
867.635285,3478.967927,4441.235652,-10495.508323
867.635605,2072.576638,3478.967927,-10112.460574
867.635925,1184.329507,2886.803174,-9959.241474
867.636245,370.102971,3182.885551,-10342.289223
867.636565,-148.041188,2738.761985,-10265.679673
867.636885,-888.247130,2368.659014,-9882.631924
867.637205,-1258.350101,1110.308913,-9806.022374
867.637525,-1110.308913,370.102971,-9576.193725
867.637845,1406.391290,-222.061783,-9729.412825
867.638165,2516.700203,1850.514855,-9806.022374
867.638485,4811.338623,3627.009116,-9959.241474
867.638805,6217.729913,4885.359217,-10495.508323
867.639125,6217.729913,5625.565159,-10725.336972
867.639445,4737.318029,5699.585753,-10418.898773
867.639765,2664.741391,5255.462188,-10495.508323
867.640085,1702.473667,4071.132681,-10725.336972
867.640405,1110.308913,2146.597232,-10035.851024
867.640725,666.185348,1036.288319,-9499.584175
867.641045,-296.082377,370.102971,-9652.803275
867.641365,-740.205942,222.061783,-9806.022374
867.641685,-296.082377,1258.350101,-9499.584175
867.642005,1332.370696,2738.761985,-9729.412825
867.642325,3552.988522,3108.864956,-9806.022374
867.642645,5477.523971,2664.741391,-9729.412825
867.642965,6439.791695,2146.597232,-9729.412825
867.643285,5107.421000,1480.411884,-10265.679673
867.643605,2960.823768,1924.535449,-9882.631924
867.643925,740.205942,2516.700203,-10342.289223
867.644245,-444.123565,2738.761985,-9806.022374
867.644565,-444.123565,2072.576638,-9959.241474
867.644885,-518.144159,370.102971,-9269.755526
867.645205,-592.164754,-962.267725,-9806.022374
867.645525,444.123565,-1036.288319,-9806.022374
867.645845,1184.329507,370.102971,-9806.022374
867.646165,2368.659014,2368.659014,-10495.508323
867.646485,3923.091493,3182.885551,-10189.070123
867.646805,4293.194464,4663.297435,-10648.727422
867.647125,3627.009116,4293.194464,-10801.946522
867.647445,3627.009116,3701.029710,-10725.336972
867.647765,3256.906145,2442.679609,-10648.727422
867.648085,2886.803174,1258.350101,-11108.384721
867.648405,1406.391290,962.267725,-9959.241474
867.648725,814.226536,148.041188,-10035.851024
867.649045,814.226536,370.102971,-9882.631924
867.649365,1776.494261,1480.411884,-10035.851024
867.649685,2812.782580,2442.679609,-10189.070123
867.650005,3627.009116,3330.926739,-9959.241474
867.650325,4811.338623,3849.070898,-10189.070123
867.650645,6217.729913,3849.070898,-10189.070123
867.650965,7105.977043,4219.173869,-9729.412825
867.651285,6513.812290,4811.338623,-10342.289223
867.651605,4885.359217,5551.544565,-10572.117872
867.651925,2368.659014,5033.400406,-10189.070123
867.652245,148.041188,3997.112087,-9652.803275
867.652565,-962.267725,1406.391290,-9499.584175
867.652885,-1036.288319,-592.164754,-9346.365076
867.653205,0.000000,-1258.350101,-9193.145976
867.653525,1628.453072,-370.102971,-9422.974625
867.653845,3108.864956,2072.576638,-9499.584175
867.654165,4219.173869,4737.318029,-9959.241474
867.654485,5403.503377,6661.853478,-10112.460574
867.654805,5995.668130,7402.059420,-10648.727422
867.655125,5107.421000,6735.874072,-10572.117872
867.655445,4293.194464,5255.462188,-10342.289223
867.655765,3552.988522,3478.967927,-10342.289223
867.656085,2368.659014,2442.679609,-10112.460574
867.656405,296.082377,1998.556043,-10112.460574
867.656725,-2294.638420,2442.679609,-9729.412825
867.657045,-3108.864956,2738.761985,-9882.631924
867.657365,-1776.494261,3034.844362,-9882.631924
867.657685,666.185348,2738.761985,-10418.898773
867.658005,2812.782580,2368.659014,-10189.070123
867.658325,3330.926739,2590.720797,-10112.460574
867.658645,3775.050304,3627.009116,-10035.851024
867.658965,4589.276840,5329.482782,-10495.508323
867.659285,5995.668130,6365.771101,-10265.679673
867.659605,5847.626942,5995.668130,-11031.775171
867.659925,3552.988522,4737.318029,-10648.727422
867.660245,0.000000,3256.906145,-10035.851024
867.660565,-2368.659014,1776.494261,-9729.412825
867.660885,-2294.638420,814.226536,-9729.412825
867.661205,-1258.350101,-296.082377,-9346.365076
867.661525,-592.164754,-444.123565,-9193.145976
867.661845,296.082377,444.123565,-9499.584175
867.662165,3034.844362,2368.659014,-9882.631924
867.662485,5773.606348,4811.338623,-10342.289223
867.662805,6809.894666,6291.750507,-10495.508323
867.663125,5995.668130,6291.750507,-10648.727422
867.663445,4737.318029,4959.379811,-10265.679673
867.663765,3330.926739,2664.741391,-9806.022374
867.664085,1850.514855,814.226536,-9576.193725
867.664405,1036.288319,0.000000,-9806.022374
867.664725,1110.308913,-370.102971,-9882.631924
867.665045,740.205942,148.041188,-10878.556072
867.665365,-148.041188,814.226536,-9882.631924
867.665685,518.144159,1998.556043,-10112.460574
867.666005,2738.761985,2664.741391,-9959.241474
867.666325,4663.297435,3034.844362,-10418.898773
867.666645,6439.791695,2960.823768,-11338.213370
867.666965,7105.977043,3701.029710,-10725.336972
867.667285,6513.812290,4367.215058,-11108.384721
867.667605,3997.112087,4885.359217,-10725.336972
867.667925,1480.411884,3997.112087,-10418.898773
867.668245,-444.123565,2590.720797,-10342.289223
867.668565,0.000000,74.020594,-9806.022374
867.668885,148.041188,-1258.350101,-10418.898773
867.669205,-444.123565,-1480.411884,-10035.851024
867.669525,-666.185348,-888.247130,-9499.584175
867.669845,1036.288319,962.267725,-9959.241474
867.670165,4441.235652,1776.494261,-9806.022374
867.670485,5625.565159,2516.700203,-9806.022374
867.670805,5921.647536,3849.070898,-10495.508323
867.671125,6217.729913,3701.029710,-10189.070123
867.671445,4663.297435,4367.215058,-10189.070123
867.671765,2738.761985,4071.132681,-10495.508323
867.672085,1924.535449,2146.597232,-9806.022374
867.672405,-222.061783,444.123565,-9882.631924
867.672725,-2590.720797,-814.226536,-9729.412825
867.673045,-4367.215058,-1258.350101,-9116.536426
867.673365,-4441.235652,-592.164754,-9576.193725
867.673685,-518.144159,-444.123565,-9882.631924
867.674005,2516.700203,1036.288319,-9576.193725
867.674325,3701.029710,2368.659014,-10112.460574
867.674645,3330.926739,3182.885551,-9729.412825
867.674965,3627.009116,4293.194464,-9269.755526
867.675285,5921.647536,4959.379811,-11031.775171
867.675605,7031.956449,4885.359217,-10801.946522
867.675925,4441.235652,3478.967927,-10955.165621
867.676245,148.041188,2072.576638,-10265.679673
867.676565,-1702.473667,814.226536,-9346.365076
867.676885,-1406.391290,592.164754,-10265.679673
867.677205,-740.205942,666.185348,-10418.898773
867.677525,-1332.370696,1184.329507,-9806.022374
867.677845,-592.164754,1850.514855,-9499.584175
867.678165,3404.947333,1628.453072,-10112.460574
867.678484,6143.709319,3256.906145,-10648.727422
867.678804,6217.729913,5033.400406,-10955.165621
867.679124,5255.462188,7105.977043,-10725.336972
867.679444,5921.647536,7328.038826,-10342.289223
867.679764,7105.977043,6143.709319,-10801.946522
867.680084,5995.668130,3701.029710,-10725.336972
867.680404,2146.597232,2812.782580,-10035.851024
867.680724,-1036.288319,2072.576638,-9806.022374
867.681044,-814.226536,2072.576638,-9422.974625
867.681364,-666.185348,1480.411884,-10265.679673
867.681684,370.102971,1110.308913,-9269.755526
