#time,accel_x,accel_y,accel_z
880.278012,518.144159,518.144159,-9116.536426
880.278332,148.041188,370.102971,-10112.460574
880.278652,370.102971,296.082377,-10265.679673
880.278972,296.082377,0.000000,-10189.070123
880.279292,518.144159,370.102971,-10265.679673
880.279612,444.123565,148.041188,-10189.070123
880.279932,444.123565,222.061783,-10035.851024
880.280252,296.082377,296.082377,-9882.631924
880.280572,518.144159,592.164754,-10418.898773
880.280892,666.185348,592.164754,-10035.851024
880.281212,518.144159,148.041188,-10112.460574
880.281532,740.205942,148.041188,-10035.851024
880.281852,1036.288319,148.041188,-9959.241474
880.282172,1036.288319,0.000000,-10342.289223
880.282492,222.061783,296.082377,-9806.022374
880.282812,-296.082377,0.000000,-9806.022374
880.283131,0.000000,148.041188,-10189.070123
880.283451,370.102971,74.020594,-10342.289223
880.283771,0.000000,296.082377,-9729.412825
880.284091,74.020594,148.041188,-10035.851024
880.284411,666.185348,74.020594,-9882.631924
880.284731,962.267725,592.164754,-10418.898773
880.285051,592.164754,518.144159,-10189.070123
880.285371,222.061783,148.041188,-10418.898773
880.285691,444.123565,-148.041188,-10112.460574
880.286011,370.102971,0.000000,-9959.241474
880.286331,444.123565,-592.164754,-10418.898773
880.286651,0.000000,-1184.329507,-10112.460574
880.286971,-814.226536,-666.185348,-10189.070123
880.287291,-370.102971,-518.144159,-9959.241474
880.287611,-518.144159,-296.082377,-10112.460574
880.287931,-296.082377,-518.144159,-9806.022374
880.288251,-592.164754,-518.144159,-10112.460574
880.288571,74.020594,-444.123565,-9959.241474
880.288891,0.000000,-444.123565,-9882.631924
880.289211,-962.267725,-1480.411884,-9729.412825
880.289531,-814.226536,-1776.494261,-9882.631924
880.289850,-222.061783,-1776.494261,-9806.022374
880.290170,-518.144159,-1628.453072,-9959.241474
880.290490,-1702.473667,-1924.535449,-9806.022374
880.290810,-1850.514855,-2072.576638,-9652.803275
880.291130,-1628.453072,-1998.556043,-9806.022374
880.291450,-814.226536,-1554.432478,-10189.070123
880.291770,-1110.308913,-1776.494261,-10112.460574
880.292090,-1702.473667,-1702.473667,-9039.926876
880.292410,-1036.288319,-2220.617826,-9806.022374
880.292730,-370.102971,-1554.432478,-10112.460574
880.293050,-740.205942,-1406.391290,-9959.241474
880.293370,-2072.576638,-1776.494261,-10189.070123
880.293690,-2590.720797,-2442.679609,-9269.755526
880.294010,-2442.679609,-3108.864956,-10035.851024
880.294330,-2220.617826,-3182.885551,-9959.241474
880.294650,-2664.741391,-3478.967927,-10265.679673
880.294970,-3108.864956,-3627.009116,-9499.584175
880.295290,-2368.659014,-3108.864956,-9729.412825
880.295610,-666.185348,-2368.659014,-10189.070123
880.295930,296.082377,-1036.288319,-10265.679673
880.296250,0.000000,-296.082377,-10572.117872
880.296569,-1332.370696,-518.144159,-10418.898773
880.296889,-2368.659014,-1184.329507,-10342.289223
880.297209,-3404.947333,-2590.720797,-10495.508323
880.297529,-4515.256246,-3997.112087,-9806.022374
880.297849,-5107.421000,-5403.503377,-9576.193725
880.298169,-4589.276840,-5699.585753,-9806.022374
880.298489,-2146.597232,-5551.544565,-9576.193725
880.298809,0.000000,-3997.112087,-9882.631924
880.299129,888.247130,-2294.638420,-10265.679673
880.299449,666.185348,0.000000,-10342.289223
880.299769,1628.453072,1406.391290,-10572.117872
880.300089,2294.638420,1258.350101,-10495.508323
880.300409,1702.473667,444.123565,-10648.727422
880.300729,518.144159,-1998.556043,-10342.289223
880.301049,-1702.473667,-3478.967927,-10112.460574
880.301369,-3404.947333,-4367.215058,-10112.460574
880.301689,-4737.318029,-4515.256246,-9499.584175
880.302009,-5773.606348,-4515.256246,-9346.365076
880.302329,-3775.050304,-4219.173869,-9422.974625
880.302649,-592.164754,-3997.112087,-10035.851024
880.302969,1332.370696,-2368.659014,-10342.289223
880.303289,2442.679609,-222.061783,-10035.851024
880.303608,3256.906145,2590.720797,-10648.727422
880.303928,4737.318029,3552.988522,-10878.556072
880.304248,3627.009116,3775.050304,-11184.994271
880.304568,0.000000,1998.556043,-11108.384721
880.304888,-4367.215058,-1332.370696,-9729.412825
880.305208,-5995.668130,-4441.235652,-9806.022374
880.305528,-5847.626942,-6587.832884,-9499.584175
880.305848,-4737.318029,-6883.915261,-9116.536426
880.306168,-4293.194464,-4885.359217,-9422.974625
880.306488,-2294.638420,-2146.597232,-9269.755526
880.306808,296.082377,962.267725,-9806.022374
880.307128,1554.432478,3849.070898,-10418.898773
880.307448,2220.617826,4589.276840,-10495.508323
880.307768,3330.926739,2590.720797,-9959.241474
880.308088,3701.029710,-148.041188,-10189.070123
880.308408,1406.391290,-1628.453072,-10035.851024
880.308728,-2516.700203,-2220.617826,-10035.851024
880.309048,-4515.256246,-1628.453072,-9806.022374
880.309368,-5255.462188,-962.267725,-10112.460574
880.309688,-7105.977043,-2368.659014,-9652.803275
880.310008,-8142.265362,-4959.379811,-8886.707777
880.310327,-7105.977043,-6661.853478,-9039.926876
880.310647,-2442.679609,-6291.750507,-9039.926876
880.310967,1850.514855,-3849.070898,-9576.193725
880.311287,3256.906145,74.020594,-10418.898773
880.311607,1850.514855,3775.050304,-10801.946522
880.311927,814.226536,5181.441594,-10418.898773
880.312247,1702.473667,4663.297435,-11491.432470
880.312567,2368.659014,888.247130,-10801.946522
880.312887,592.164754,-2886.803174,-10648.727422
880.313207,-3330.926739,-5699.585753,-10418.898773
880.313527,-6439.791695,-6143.709319,-11491.432470
880.313847,-8586.388927,-4663.297435,-9346.365076
880.314167,-8142.265362,-3182.885551,-9193.145976
880.314487,-4737.318029,-3627.009116,-9422.974625
880.314807,296.082377,-4811.338623,-9576.193725
880.315127,2664.741391,-3404.947333,-10418.898773
880.315447,3552.988522,-1776.494261,-10572.117872
880.315767,4145.153275,148.041188,-10418.898773
880.316087,3849.070898,3404.947333,-10878.556072
880.316407,2590.720797,4589.276840,-10878.556072
880.316727,370.102971,2516.700203,-11338.213370
880.317046,-3330.926739,-444.123565,-10572.117872
880.317366,-5329.482782,-4515.256246,-10189.070123
880.317686,-6587.832884,-7254.018232,-9576.193725
880.318006,-5921.647536,-9474.636058,-9116.536426
880.318326,-5699.585753,-9400.615463,-9269.755526
880.318646,-5107.421000,-7698.141797,-9116.536426
880.318966,-2368.659014,-4589.276840,-9269.755526
880.319286,1628.453072,-518.144159,-10418.898773
880.319606,5329.482782,3034.844362,-10801.946522
880.319926,5773.606348,4515.256246,-11721.261119
880.320246,3256.906145,3108.864956,-11338.213370
880.320566,0.000000,-296.082377,-10725.336972
880.320886,-2220.617826,-3997.112087,-10189.070123
880.321206,-2442.679609,-5773.606348,-10189.070123
880.321526,-4663.297435,-6883.915261,-10265.679673
880.321846,-7846.182985,-6661.853478,-9806.022374
880.322166,-9104.533087,-5625.565159,-8886.707777
880.322486,-5551.544565,-4293.194464,-9959.241474
880.322806,-1554.432478,-3775.050304,-9576.193725
880.323126,-888.247130,-2294.638420,-10265.679673
880.323446,-962.267725,-1776.494261,-9959.241474
880.323766,74.020594,666.185348,-10189.070123
880.324085,2664.741391,962.267725,-10572.117872
880.324405,3997.112087,444.123565,-10955.165621
880.324725,2442.679609,-222.061783,-10265.679673
880.325045,-222.061783,-444.123565,-10342.289223
880.325365,-3701.029710,-1480.411884,-10265.679673
880.325685,-5699.585753,-2294.638420,-10342.289223
880.326005,-6809.894666,-3997.112087,-9806.022374
880.326325,-4737.318029,-4663.297435,-9959.241474
880.326645,-2294.638420,-4589.276840,-9576.193725
880.326965,-962.267725,-3775.050304,-9806.022374
880.327285,74.020594,-2664.741391,-9806.022374
880.327605,1628.453072,-222.061783,-10648.727422
880.327925,2960.823768,1924.535449,-10495.508323
880.328245,1036.288319,1924.535449,-10342.289223
880.328565,0.000000,1702.473667,-10112.460574
880.328885,1036.288319,888.247130,-10112.460574
880.329205,1036.288319,-1258.350101,-10418.898773
880.329525,-2294.638420,-2664.741391,-10035.851024
880.329845,-5033.400406,-3849.070898,-9729.412825
880.330165,-5847.626942,-4589.276840,-9652.803275
880.330485,-4737.318029,-4145.153275,-9806.022374
880.330804,-3256.906145,-2516.700203,-9269.755526
880.331124,-1924.535449,-2886.803174,-9346.365076
880.331444,1110.308913,-2590.720797,-9652.803275
880.331764,2886.803174,-1998.556043,-10035.851024
880.332084,4663.297435,74.020594,-9729.412825
880.332404,3404.947333,3256.906145,-10265.679673
880.332724,740.205942,3478.967927,-10725.336972
880.333044,-1036.288319,1406.391290,-10189.070123
880.333364,-444.123565,-1998.556043,-9959.241474
880.333684,-2368.659014,-2590.720797,-9882.631924
880.334004,-4663.297435,-4663.297435,-10035.851024
880.334324,-5625.565159,-3627.009116,-9806.022374
880.334644,-6291.750507,-1258.350101,-9806.022374
880.334964,-4367.215058,-148.041188,-9882.631924
880.335284,-518.144159,-296.082377,-9499.584175
880.335604,1554.432478,-1258.350101,-10035.851024
880.335924,3256.906145,-1110.308913,-10112.460574
880.336243,3404.947333,74.020594,-11874.480219
880.336563,3627.009116,1998.556043,-10495.508323
880.336883,3404.947333,2220.617826,-10035.851024
880.337203,592.164754,2812.782580,-9959.241474
880.337523,-1850.514855,814.226536,-10035.851024
880.337843,-2294.638420,-666.185348,-10495.508323
880.338163,-3330.926739,-2738.761985,-9806.022374
880.338483,-4737.318029,-4589.276840,-10189.070123
880.338803,-5329.482782,-4367.215058,-9652.803275
880.339123,-3330.926739,-2294.638420,-8733.488677
880.339442,-1480.411884,-2294.638420,-9499.584175
880.339762,444.123565,-740.205942,-10035.851024
880.340082,2368.659014,296.082377,-10648.727422
880.340402,2516.700203,1480.411884,-10878.556072
880.340722,2590.720797,1480.411884,-10495.508323
880.341042,1406.391290,1036.288319,-10189.070123
880.341362,1332.370696,-1184.329507,-10035.851024
880.341682,1924.535449,-1776.494261,-10035.851024
880.342002,1480.411884,-2368.659014,-9806.022374
880.342321,-2664.741391,-1998.556043,-10572.117872
880.342641,-4737.318029,-2368.659014,-9729.412825
880.342961,-5625.565159,-1628.453072,-9269.755526
880.343281,-3330.926739,-1776.494261,-9422.974625
880.343601,296.082377,-2294.638420,-9959.241474
880.343921,3478.967927,-1554.432478,-10189.070123
880.344241,1184.329507,-296.082377,-11031.775171
880.344561,1110.308913,814.226536,-9806.022374
880.344881,2368.659014,2738.761985,-10265.679673
880.345201,4145.153275,2072.576638,-10418.898773
880.345520,2812.782580,592.164754,-10112.460574
880.345840,666.185348,-740.205942,-11261.603821
880.346160,-370.102971,-296.082377,-10418.898773
880.346480,-1628.453072,74.020594,-9882.631924
880.346800,-2590.720797,-444.123565,-10495.508323
880.347120,-2516.700203,-1628.453072,-9959.241474
880.347440,-1776.494261,-2664.741391,-10189.070123
880.347760,0.000000,-1554.432478,-10418.898773
880.348080,1998.556043,-296.082377,-10418.898773
880.348399,2294.638420,1702.473667,-10725.336972
880.348719,1776.494261,2220.617826,-10418.898773
880.349039,1184.329507,888.247130,-9806.022374
880.349359,2368.659014,518.144159,-9882.631924
880.349679,4071.132681,814.226536,-10342.289223
880.349999,1776.494261,370.102971,-10495.508323
880.350319,1184.329507,-592.164754,-10265.679673
880.350639,-2738.761985,-1184.329507,-9652.803275
880.350959,-3330.926739,-1850.514855,-9269.755526
880.351278,-4145.153275,-1184.329507,-9576.193725
880.351598,-1554.432478,-2072.576638,-9729.412825
880.351918,1184.329507,-222.061783,-9959.241474
880.352238,2664.741391,1110.308913,-9882.631924
880.352558,4145.153275,1850.514855,-9806.022374
880.352878,5773.606348,1480.411884,-10189.070123
880.353198,5773.606348,-1628.453072,-10035.851024
880.353518,4145.153275,-1554.432478,-10189.070123
880.353838,296.082377,-370.102971,-9806.022374
880.354158,-1850.514855,1184.329507,-9959.241474
880.354477,-666.185348,2442.679609,-10112.460574
880.354797,-1184.329507,370.102971,-10035.851024
880.355117,-962.267725,-1258.350101,-9806.022374
880.355437,-1480.411884,-3034.844362,-9806.022374
880.355757,222.061783,-1036.288319,-10112.460574
880.356077,1776.494261,2738.761985,-10342.289223
880.356397,1628.453072,3404.947333,-9729.412825
880.356717,2072.576638,2664.741391,-10572.117872
880.357037,1258.350101,-1184.329507,-9576.193725
880.357356,1258.350101,-2072.576638,-10342.289223
880.357676,2590.720797,-666.185348,-8810.098227
880.357996,1850.514855,1702.473667,-10572.117872
880.358316,888.247130,3775.050304,-10495.508323
880.358636,-444.123565,2886.803174,-10342.289223
880.358956,-148.041188,1110.308913,-10342.289223
880.359276,-1554.432478,-3034.844362,-9806.022374
880.359596,-4071.132681,-5255.462188,-9193.145976
880.359916,-4811.338623,-2294.638420,-9039.926876
880.360236,-3108.864956,1110.308913,-9882.631924
880.360555,1036.288319,370.102971,-9806.022374
880.360875,2960.823768,-740.205942,-10189.070123
880.361195,1480.411884,814.226536,-10418.898773
880.361515,222.061783,2516.700203,-10572.117872
880.361835,444.123565,3478.967927,-10112.460574
880.362155,1554.432478,3404.947333,-10035.851024
880.362475,370.102971,74.020594,-9806.022374
880.362795,-2072.576638,-2812.782580,-9959.241474
880.363115,-4367.215058,-4219.173869,-9806.022374
880.363434,1258.350101,-2886.803174,-9729.412825
880.363754,-444.123565,2368.659014,-11184.994271
880.364074,370.102971,1628.453072,-10035.851024
880.364394,666.185348,2294.638420,-9652.803275
880.364714,2812.782580,962.267725,-9959.241474
880.365034,592.164754,0.000000,-9422.974625
880.365354,888.247130,1554.432478,-10955.165621
880.365674,1998.556043,1332.370696,-10265.679673
880.365994,1924.535449,1998.556043,-10189.070123
880.366314,1702.473667,1702.473667,-10418.898773
880.366633,370.102971,0.000000,-10189.070123
880.366953,0.000000,518.144159,-9959.241474
880.367273,0.000000,444.123565,-10112.460574
880.367593,296.082377,1258.350101,-9959.241474
880.367913,444.123565,-962.267725,-9806.022374
880.368233,1184.329507,-1332.370696,-9652.803275
880.368553,1332.370696,-1184.329507,-9422.974625
880.368873,1850.514855,0.000000,-9882.631924
880.369193,3849.070898,2368.659014,-10342.289223
880.369512,4293.194464,3034.844362,-9959.241474
880.369832,4737.318029,1924.535449,-10342.289223
880.370152,3330.926739,1406.391290,-10418.898773
880.370472,888.247130,-740.205942,-9959.241474
880.370792,-1554.432478,-1554.432478,-10572.117872
880.371112,-1850.514855,74.020594,-9269.755526
880.371432,-592.164754,0.000000,-9959.241474
880.371752,888.247130,1110.308913,-9729.412825
880.372072,148.041188,-518.144159,-9806.022374
880.372392,1184.329507,-1776.494261,-10342.289223
880.372711,1406.391290,444.123565,-10418.898773
880.373031,2368.659014,2368.659014,-10572.117872
880.373351,2664.741391,3330.926739,-9959.241474
880.373671,2664.741391,2220.617826,-9959.241474
880.373991,74.020594,1258.350101,-10418.898773
880.374311,-1036.288319,0.000000,-10265.679673
880.374631,-518.144159,-444.123565,-9959.241474
880.374951,-1924.535449,74.020594,-10265.679673
880.375271,-592.164754,0.000000,-9729.412825
880.375590,0.000000,-1258.350101,-9882.631924
880.375910,-518.144159,-1554.432478,-9959.241474
880.376230,-2664.741391,-1036.288319,-9576.193725
880.376550,-2590.720797,-148.041188,-10725.336972
880.376870,-888.247130,666.185348,-9882.631924
880.377190,2072.576638,1258.350101,-9652.803275
880.377510,2516.700203,1628.453072,-10035.851024
880.377830,74.020594,1628.453072,-10648.727422
880.378150,-666.185348,-666.185348,-10112.460574
880.378470,-1480.411884,296.082377,-9806.022374
880.378789,-1406.391290,1036.288319,-10112.460574
880.379109,-1184.329507,1554.432478,-9959.241474
880.379429,-1702.473667,-1480.411884,-10189.070123
880.379749,-2590.720797,-3108.864956,-9729.412825
880.380069,-4145.153275,-4515.256246,-9806.022374
880.380389,-2220.617826,-3404.947333,-9652.803275
880.380709,222.061783,-592.164754,-9806.022374
880.381029,3404.947333,1110.308913,-10342.289223
880.381349,3034.844362,2368.659014,-11184.994271
880.381668,1924.535449,2368.659014,-10418.898773
880.381988,1184.329507,2812.782580,-10495.508323
880.382308,222.061783,814.226536,-10878.556072
880.382628,296.082377,-444.123565,-10265.679673
880.382948,1110.308913,-888.247130,-10035.851024
880.383268,444.123565,-1258.350101,-9499.584175
880.383588,-592.164754,-1702.473667,-9652.803275
880.383908,-666.185348,-1776.494261,-9499.584175
880.384228,1998.556043,592.164754,-10418.898773
880.384548,2368.659014,0.000000,-10035.851024
880.384867,1554.432478,148.041188,-10265.679673
880.385187,666.185348,148.041188,-9959.241474
880.385507,2886.803174,814.226536,-10189.070123
880.385827,3552.988522,2368.659014,-10572.117872
880.386147,2442.679609,3182.885551,-12257.527968
880.386467,1702.473667,1554.432478,-10112.460574
880.386787,592.164754,444.123565,-10035.851024
880.387107,-444.123565,0.000000,-9806.022374
880.387427,-1480.411884,-2220.617826,-9346.365076
880.387746,444.123565,-962.267725,-9729.412825
880.388066,0.000000,370.102971,-10495.508323
880.388386,1850.514855,444.123565,-10418.898773
880.388706,3478.967927,1332.370696,-10572.117872
880.389026,1998.556043,2368.659014,-10418.898773
880.389346,962.267725,1850.514855,-10342.289223
880.389666,1406.391290,2146.597232,-10418.898773
880.389986,3182.885551,1628.453072,-9806.022374
880.390306,1480.411884,2368.659014,-10878.556072
880.390626,-222.061783,-592.164754,-10572.117872
880.390945,-1480.411884,-2294.638420,-9729.412825
880.391265,-2886.803174,-2442.679609,-9499.584175
880.391585,-1628.453072,-1776.494261,-10112.460574
880.391905,592.164754,-444.123565,-9193.145976
880.392225,-296.082377,1036.288319,-10112.460574
880.392545,1554.432478,3182.885551,-10418.898773
880.392865,0.000000,2812.782580,-10495.508323
880.393185,1332.370696,296.082377,-10035.851024
880.393505,2368.659014,222.061783,-9806.022374
880.393824,3034.844362,814.226536,-10189.070123
880.394144,2220.617826,444.123565,-10955.165621
880.394464,1036.288319,-148.041188,-10265.679673
880.394784,-1110.308913,2590.720797,-10112.460574
880.395104,-3034.844362,4145.153275,-10342.289223
880.395424,-2664.741391,5107.421000,-10189.070123
880.395744,-296.082377,2368.659014,-10495.508323
880.396064,1332.370696,-962.267725,-10265.679673
880.396384,-148.041188,-3478.967927,-9499.584175
880.396704,-666.185348,-4293.194464,-9269.755526
880.397023,1628.453072,-2664.741391,-9116.536426
880.397343,2886.803174,222.061783,-9269.755526
880.397663,3849.070898,1924.535449,-10035.851024
880.397983,444.123565,1258.350101,-10112.460574
880.398303,-666.185348,444.123565,-10572.117872
880.398623,-2960.823768,0.000000,-9576.193725
880.398943,-1554.432478,0.000000,-9499.584175
880.399263,-814.226536,666.185348,-9959.241474
880.399583,0.000000,1480.411884,-10342.289223
880.399902,962.267725,1924.535449,-10801.946522
880.400222,0.000000,518.144159,-10495.508323
880.400542,-1776.494261,444.123565,-10342.289223
880.400862,-2664.741391,-370.102971,-9729.412825
880.401182,1332.370696,518.144159,-9806.022374
880.401502,2368.659014,2146.597232,-9959.241474
880.401822,2442.679609,3552.988522,-9882.631924
880.402142,3256.906145,3478.967927,-10725.336972
880.402462,2886.803174,2294.638420,-10572.117872
880.402782,2960.823768,148.041188,-9652.803275
880.403101,1702.473667,74.020594,-9806.022374
880.403421,2664.741391,-518.144159,-9959.241474
880.403741,3256.906145,-444.123565,-10342.289223
880.404061,2220.617826,0.000000,-10342.289223
880.404381,0.000000,444.123565,-9729.412825
880.404701,-148.041188,1332.370696,-10572.117872
880.405021,1480.411884,0.000000,-9499.584175
880.405341,2664.741391,814.226536,-9806.022374
880.405661,2220.617826,296.082377,-10112.460574
880.405980,1184.329507,0.000000,-10878.556072
880.406300,1258.350101,222.061783,-10265.679673
880.406620,740.205942,74.020594,-9806.022374
880.406940,1258.350101,444.123565,-9806.022374
880.407260,1554.432478,0.000000,-10035.851024
880.407580,-666.185348,74.020594,-10112.460574
880.407900,-2590.720797,-444.123565,-9959.241474
880.408220,-2960.823768,-1110.308913,-9422.974625
880.408540,-2072.576638,-1480.411884,-9422.974625
880.408860,-1850.514855,-222.061783,-9499.584175
880.409179,-1036.288319,-888.247130,-10189.070123
880.409499,0.000000,-1036.288319,-10112.460574
880.409819,592.164754,666.185348,-10342.289223
880.410139,296.082377,2294.638420,-10418.898773
880.410459,222.061783,3404.947333,-10418.898773
880.410779,518.144159,3330.926739,-10342.289223
880.411099,1110.308913,1258.350101,-10801.946522
880.411419,-962.267725,148.041188,-10035.851024
880.411739,-3108.864956,-1332.370696,-9576.193725
880.412058,-1036.288319,-2368.659014,-9959.241474
880.412378,666.185348,-2146.597232,-9959.241474
880.412698,814.226536,-1332.370696,-10035.851024
880.413018,148.041188,1036.288319,-10265.679673
880.413338,-1702.473667,2072.576638,-10342.289223
880.413658,-1406.391290,2368.659014,-10572.117872
880.413978,1850.514855,1332.370696,-10189.070123
880.414298,1998.556043,0.000000,-10572.117872
880.414618,592.164754,-1850.514855,-11874.480219
880.414938,1850.514855,-1776.494261,-9882.631924
880.415257,-888.247130,-1406.391290,-10725.336972
880.415577,222.061783,0.000000,-9729.412825
880.415897,74.020594,1036.288319,-10189.070123
880.416217,-148.041188,0.000000,-10495.508323
880.416537,148.041188,-962.267725,-9499.584175
880.416857,-1036.288319,-2368.659014,-9959.241474
880.417177,74.020594,-1554.432478,-8886.707777
880.417497,2294.638420,740.205942,-10342.289223
880.417817,2294.638420,2368.659014,-10189.070123
880.418136,1850.514855,1924.535449,-10189.070123
880.418456,222.061783,962.267725,-10495.508323
880.418776,-1628.453072,-370.102971,-9729.412825
880.419096,-1702.473667,-666.185348,-9959.241474
880.419416,-666.185348,444.123565,-10112.460574
880.419736,740.205942,1036.288319,-9959.241474
880.420056,1554.432478,148.041188,-10342.289223
880.420376,1702.473667,-666.185348,-10418.898773
880.420696,222.061783,-814.226536,-10035.851024
880.421016,222.061783,518.144159,-10112.460574
880.421335,444.123565,2812.782580,-10342.289223
880.421655,1850.514855,3256.906145,-10495.508323
880.421975,3627.009116,2072.576638,-10418.898773
880.422295,2812.782580,592.164754,-10418.898773
880.422615,740.205942,-444.123565,-9806.022374
880.422935,-444.123565,-1036.288319,-9806.022374
880.423255,1184.329507,0.000000,-9959.241474
880.423575,2294.638420,1036.288319,-9882.631924
880.423895,2812.782580,1184.329507,-9959.241474
880.424214,2886.803174,814.226536,-10418.898773
880.424534,2146.597232,962.267725,-9806.022374
880.424854,1628.453072,2220.617826,-10035.851024
880.425174,1924.535449,2442.679609,-10265.679673
880.425494,3775.050304,1332.370696,-10342.289223
880.425814,2516.700203,0.000000,-10342.289223
880.426134,1036.288319,-666.185348,-10112.460574
880.426454,-1480.411884,296.082377,-10189.070123
880.426774,-888.247130,2442.679609,-9959.241474
880.427094,1480.411884,2368.659014,-10189.070123
880.427413,1480.411884,74.020594,-9652.803275
880.427733,-962.267725,-1332.370696,-9193.145976
880.428053,-1998.556043,-592.164754,-9806.022374
880.428373,222.061783,0.000000,-9729.412825
880.428693,1480.411884,666.185348,-10265.679673
880.429013,3923.091493,962.267725,-9959.241474
880.429333,3404.947333,-370.102971,-9806.022374
880.429653,1776.494261,-740.205942,-9882.631924
880.429973,-666.185348,-888.247130,-9959.241474
880.430292,-1332.370696,518.144159,-9576.193725
880.430612,-1480.411884,962.267725,-10342.289223
880.430932,962.267725,1850.514855,-10572.117872
880.431252,296.082377,-74.020594,-10035.851024
880.431572,-1480.411884,-1258.350101,-10418.898773
880.431892,-2072.576638,-888.247130,-10342.289223
880.432212,-1628.453072,-444.123565,-9729.412825
880.432532,-592.164754,74.020594,-10495.508323
880.432852,0.000000,296.082377,-10495.508323
880.433172,148.041188,370.102971,-10572.117872
880.433491,-148.041188,518.144159,-10801.946522
880.433811,-1110.308913,2960.823768,-11184.994271
880.434131,-814.226536,3997.112087,-11261.603821
880.434451,0.000000,4885.359217,-11338.213370
880.434771,296.082377,3627.009116,-10572.117872
880.435091,0.000000,1258.350101,-10265.679673
880.435411,-1332.370696,-2368.659014,-10112.460574
880.435730,-2146.597232,-4737.318029,-9346.365076
880.436050,-2072.576638,-4515.256246,-8273.831378
880.436370,-962.267725,-3478.967927,-9652.803275
880.436690,444.123565,-2294.638420,-8810.098227
880.437010,444.123565,0.000000,-9806.022374
880.437330,-1110.308913,1924.535449,-8503.660028
880.437650,-1258.350101,2886.803174,-9576.193725
880.437969,962.267725,2886.803174,-10112.460574
880.438289,2442.679609,0.000000,-9806.022374
880.438609,3182.885551,-3775.050304,-8427.050478
880.438929,4441.235652,-5181.441594,-8350.440928
880.439249,4441.235652,-4737.318029,-9576.193725
880.439569,2812.782580,-1554.432478,-9729.412825
880.439889,-148.041188,2368.659014,-10189.070123
880.440209,-1998.556043,5255.462188,-10801.946522
880.440528,0.000000,4959.379811,-10648.727422
880.440848,2072.576638,2516.700203,-10572.117872
880.441168,1110.308913,-1480.411884,-10418.898773
880.441488,222.061783,-2442.679609,-9882.631924
880.441808,2368.659014,-2516.700203,-10955.165621
880.442128,4071.132681,-740.205942,-10878.556072
880.442448,3552.988522,1406.391290,-10342.289223
880.442767,518.144159,2812.782580,-10725.336972
880.443087,-666.185348,2516.700203,-10495.508323
880.443407,0.000000,2886.803174,-10878.556072
880.443727,1628.453072,2664.741391,-11031.775171
880.444047,2072.576638,518.144159,-10265.679673
880.444367,1776.494261,-1924.535449,-10418.898773
880.444687,1924.535449,-3034.844362,-10035.851024
880.445006,-962.267725,-1036.288319,-9882.631924
880.445326,-1924.535449,888.247130,-9959.241474
880.445646,888.247130,1850.514855,-10035.851024
880.445966,3775.050304,3478.967927,-10112.460574
880.446286,3775.050304,3108.864956,-10112.460574
880.446606,2812.782580,592.164754,-10572.117872
880.446926,962.267725,-888.247130,-9729.412825
880.447245,444.123565,-2368.659014,-9652.803275
880.447565,2072.576638,-1554.432478,-9959.241474
880.447885,1258.350101,-74.020594,-9346.365076
880.448205,740.205942,1554.432478,-10189.070123
880.448525,518.144159,2220.617826,-9959.241474
880.448845,-148.041188,2442.679609,-10495.508323
880.449165,0.000000,2738.761985,-9959.241474
880.449484,518.144159,1110.308913,-10189.070123
880.449804,148.041188,222.061783,-10418.898773
880.450124,-666.185348,-740.205942,-9806.022374
880.450444,-1850.514855,-1110.308913,-10189.070123
880.450764,-2368.659014,0.000000,-9652.803275
880.451084,-2294.638420,1850.514855,-10495.508323
880.451404,-2146.597232,1850.514855,-10418.898773
880.451723,-296.082377,222.061783,-10342.289223
880.452043,-148.041188,-222.061783,-10801.946522
880.452363,-814.226536,296.082377,-10265.679673
880.452683,-3108.864956,1110.308913,-9959.241474
880.453003,-1184.329507,888.247130,-10801.946522
880.453323,740.205942,370.102971,-9806.022374
880.453643,1036.288319,-814.226536,-10418.898773
880.453962,0.000000,-888.247130,-9652.803275
880.454282,-1776.494261,-296.082377,-9959.241474
880.454602,-1332.370696,-888.247130,-10112.460574
880.454922,-1110.308913,1554.432478,-10189.070123
880.455242,-1258.350101,1776.494261,-9959.241474
880.455562,-2368.659014,518.144159,-9806.022374
880.455882,-2294.638420,-222.061783,-9806.022374
880.456201,-3775.050304,-1110.308913,-9882.631924
880.456521,-2886.803174,-1258.350101,-9652.803275
880.456841,1110.308913,-296.082377,-9499.584175
880.457161,2368.659014,0.000000,-9729.412825
880.457481,2960.823768,888.247130,-9729.412825
880.457801,2516.700203,1258.350101,-10035.851024
880.458121,2738.761985,518.144159,-10035.851024
880.458441,0.000000,740.205942,-9959.241474
880.458760,74.020594,74.020594,-10035.851024
880.459080,1332.370696,-1850.514855,-9499.584175
880.459400,592.164754,-1998.556043,-9806.022374
880.459720,1184.329507,-222.061783,-9806.022374
880.460040,222.061783,518.144159,-9959.241474
880.460360,1702.473667,2294.638420,-10495.508323
880.460680,2812.782580,1332.370696,-10495.508323
880.460999,1554.432478,74.020594,-10725.336972
880.461319,888.247130,-2294.638420,-9806.022374
880.461639,1110.308913,-2368.659014,-9729.412825
880.461959,2590.720797,-1406.391290,-10418.898773
880.462279,3330.926739,1332.370696,-11338.213370
880.462599,4071.132681,1554.432478,-10878.556072
880.462919,2368.659014,1554.432478,-9729.412825
880.463238,1702.473667,740.205942,-10418.898773
880.463558,666.185348,296.082377,-10648.727422
880.463878,444.123565,370.102971,-10725.336972
880.464198,814.226536,148.041188,-10342.289223
880.464518,2146.597232,-148.041188,-10112.460574
880.464838,1258.350101,-1110.308913,-9729.412825
880.465158,962.267725,-1258.350101,-9959.241474
880.465477,518.144159,-1332.370696,-9806.022374
880.465797,1110.308913,888.247130,-9729.412825
880.466117,1628.453072,1258.350101,-10342.289223
880.466437,3775.050304,296.082377,-9882.631924
880.466757,2294.638420,-296.082377,-9806.022374
880.467077,518.144159,-444.123565,-9806.022374
880.467397,-370.102971,518.144159,-9499.584175
880.467716,-1628.453072,-740.205942,-10112.460574
880.468036,1110.308913,-740.205942,-10189.070123
880.468356,148.041188,-370.102971,-9652.803275
880.468676,-1258.350101,0.000000,-10035.851024
880.468996,-1480.411884,814.226536,-9959.241474
880.469316,-1924.535449,-740.205942,-9806.022374
880.469636,-1110.308913,-296.082377,-9806.022374
880.469955,444.123565,296.082377,-10648.727422
880.470275,592.164754,0.000000,-10418.898773
880.470595,-1110.308913,-370.102971,-10572.117872
880.470915,-2146.597232,370.102971,-10801.946522
880.471235,-296.082377,888.247130,-10801.946522
880.471555,592.164754,2072.576638,-12870.404366
880.471875,1480.411884,2220.617826,-11261.603821
880.472194,-740.205942,2738.761985,-10801.946522
880.472514,-2960.823768,2220.617826,-11184.994271
880.472834,-2516.700203,2442.679609,-10955.165621
880.473154,-1258.350101,962.267725,-10878.556072
880.473474,-888.247130,296.082377,-10495.508323
880.473794,-1110.308913,-1406.391290,-9499.584175
880.474114,-888.247130,-2220.617826,-9576.193725
880.474433,-222.061783,-592.164754,-9116.536426
880.474753,-444.123565,-370.102971,-9499.584175
880.475073,296.082377,1332.370696,-9806.022374
880.475393,1998.556043,1480.411884,-9806.022374
880.475713,2812.782580,1406.391290,-9806.022374
880.476033,740.205942,1332.370696,-9193.145976
880.476353,-1184.329507,888.247130,-9422.974625
880.476673,-962.267725,-1480.411884,-9039.926876
880.476992,1628.453072,-1850.514855,-8963.317327
880.477312,2812.782580,-2368.659014,-9729.412825
880.477632,3478.967927,-1036.288319,-9346.365076
880.477952,2220.617826,222.061783,-9882.631924
880.478272,2590.720797,1184.329507,-10418.898773
880.478592,1776.494261,2442.679609,-9959.241474
880.478912,1036.288319,2960.823768,-10648.727422
880.479231,2368.659014,1258.350101,-10418.898773
880.479551,3552.988522,74.020594,-10342.289223
880.479871,2072.576638,370.102971,-10801.946522
880.480191,1406.391290,1184.329507,-10572.117872
880.480511,888.247130,814.226536,-10648.727422
880.480831,1332.370696,296.082377,-10495.508323
880.481151,3256.906145,222.061783,-10495.508323
880.481470,3404.947333,1184.329507,-11261.603821
880.481790,1406.391290,2072.576638,-11491.432470
880.482110,-666.185348,1924.535449,-10725.336972
880.482430,296.082377,1406.391290,-10265.679673
880.482750,1998.556043,1036.288319,-10265.679673
880.483070,2738.761985,-888.247130,-10955.165621
880.483390,1406.391290,-2072.576638,-10035.851024
880.483709,148.041188,-1628.453072,-10112.460574
880.484029,-592.164754,-1110.308913,-10112.460574
880.484349,370.102971,1184.329507,-9882.631924
880.484669,-444.123565,962.267725,-10265.679673
880.484989,-1332.370696,1036.288319,-9422.974625
880.485309,-1406.391290,-1036.288319,-9576.193725
880.485629,814.226536,-370.102971,-9806.022374
880.485948,-592.164754,-1924.535449,-9499.584175
880.486268,1184.329507,-148.041188,-9959.241474
880.486588,888.247130,0.000000,-9729.412825
880.486908,1036.288319,-1110.308913,-9729.412825
880.487228,-444.123565,-518.144159,-9499.584175
880.487548,-2442.679609,0.000000,-10112.460574
880.487868,-1258.350101,1850.514855,-10035.851024
880.488187,-962.267725,888.247130,-10342.289223
880.488507,-148.041188,1110.308913,-9806.022374
880.488827,0.000000,-888.247130,-10418.898773
880.489147,-296.082377,-2886.803174,-9882.631924
880.489467,-740.205942,-2516.700203,-10801.946522
880.489787,-1258.350101,-1702.473667,-9959.241474
880.490107,-1776.494261,0.000000,-9882.631924
880.490426,-1480.411884,1110.308913,-10572.117872
880.490746,592.164754,370.102971,-10572.117872
880.491066,296.082377,370.102971,-10725.336972
880.491386,-592.164754,814.226536,-11414.822920
880.491706,-1628.453072,0.000000,-10955.165621
880.492026,-2960.823768,-518.144159,-10648.727422
880.492346,-2220.617826,-592.164754,-10342.289223
880.492665,-444.123565,-1702.473667,-9959.241474
880.492985,0.000000,-1184.329507,-10495.508323
880.493305,-1998.556043,-1998.556043,-9652.803275
880.493625,888.247130,888.247130,-9959.241474
880.493945,1998.556043,1332.370696,-10495.508323
880.494265,2072.576638,1406.391290,-10112.460574
880.494585,444.123565,0.000000,-9422.974625
880.494905,-518.144159,-1036.288319,-9882.631924
880.495224,0.000000,-1184.329507,-9346.365076
880.495544,814.226536,-1332.370696,-9422.974625
880.495864,2294.638420,-444.123565,-9576.193725
880.496184,2664.741391,1036.288319,-9499.584175
880.496504,3775.050304,444.123565,-9882.631924
880.496824,3997.112087,0.000000,-10035.851024
880.497144,1110.308913,666.185348,-9806.022374
880.497463,518.144159,296.082377,-9269.755526
880.497783,1332.370696,592.164754,-9193.145976
880.498103,1628.453072,962.267725,-9652.803275
880.498423,1406.391290,592.164754,-10189.070123
880.498743,3404.947333,444.123565,-10725.336972
880.499063,1332.370696,296.082377,-9882.631924
880.499383,2072.576638,370.102971,-10112.460574
880.499702,3108.864956,962.267725,-10265.679673
880.500022,3404.947333,1924.535449,-10648.727422
880.500342,1924.535449,296.082377,-10265.679673
880.500662,296.082377,518.144159,-10572.117872
880.500982,-666.185348,592.164754,-10265.679673
880.501302,0.000000,740.205942,-9882.631924
880.501622,2294.638420,1258.350101,-10801.946522
880.501941,2368.659014,1332.370696,-10572.117872
880.502261,2072.576638,2442.679609,-10878.556072
880.502581,888.247130,1998.556043,-10955.165621
880.502901,0.000000,1850.514855,-10342.289223
880.503221,-444.123565,740.205942,-10189.070123
880.503541,0.000000,518.144159,-10189.070123
880.503861,-296.082377,370.102971,-9959.241474
880.504180,-1036.288319,148.041188,-10265.679673
880.504500,-1110.308913,-518.144159,-9882.631924
880.504820,-518.144159,-222.061783,-9652.803275
880.505140,1406.391290,0.000000,-9806.022374
880.505460,1554.432478,444.123565,-9806.022374
880.505780,-296.082377,592.164754,-9729.412825
880.506100,-1998.556043,1258.350101,-10189.070123
880.506419,-2146.597232,370.102971,-9499.584175
880.506739,-740.205942,74.020594,-9422.974625
880.507059,222.061783,-592.164754,-9499.584175
880.507379,1110.308913,-962.267725,-9346.365076
880.507699,370.102971,-1554.432478,-10342.289223
880.508019,0.000000,-740.205942,-10112.460574
880.508339,-740.205942,148.041188,-9806.022374
880.508658,0.000000,1332.370696,-10189.070123
880.508978,-666.185348,592.164754,-10495.508323
880.509298,-1554.432478,296.082377,-10572.117872
880.509618,-2220.617826,0.000000,-10878.556072
880.509938,-1702.473667,1332.370696,-10495.508323
880.510258,-1332.370696,2072.576638,-10955.165621
880.510578,296.082377,2072.576638,-10495.508323
880.510897,1702.473667,296.082377,-10801.946522
880.511217,888.247130,-296.082377,-9959.241474
880.511537,0.000000,-518.144159,-10189.070123
880.511857,-1554.432478,-1036.288319,-10035.851024
880.512177,-962.267725,222.061783,-10342.289223
880.512497,222.061783,740.205942,-9959.241474
880.512817,1850.514855,1480.411884,-9422.974625
880.513136,1110.308913,962.267725,-10112.460574
880.513456,2442.679609,740.205942,-10112.460574
880.513776,2072.576638,-592.164754,-10572.117872
880.514096,1998.556043,-370.102971,-9806.022374
880.514416,2886.803174,-1628.453072,-9652.803275
880.514736,3330.926739,-814.226536,-9193.145976
880.515056,2442.679609,-370.102971,-9806.022374
880.515376,0.000000,1258.350101,-10035.851024
880.515695,-666.185348,1628.453072,-9806.022374
880.516015,444.123565,1924.535449,-9959.241474
880.516335,1332.370696,1406.391290,-9652.803275
880.516655,1850.514855,518.144159,-9652.803275
880.516975,2590.720797,-592.164754,-10189.070123
880.517295,1554.432478,-1332.370696,-9422.974625
880.517615,296.082377,-1702.473667,-9959.241474
880.517934,1702.473667,-296.082377,-9729.412825
880.518254,1776.494261,444.123565,-9959.241474
880.518574,3108.864956,1036.288319,-10342.289223
880.518894,2738.761985,1776.494261,-10572.117872
880.519214,2072.576638,888.247130,-10725.336972
880.519534,1554.432478,1184.329507,-10342.289223
880.519854,148.041188,740.205942,-10189.070123
880.520173,74.020594,888.247130,-10495.508323
880.520493,-740.205942,-296.082377,-9882.631924
880.520813,-1258.350101,-888.247130,-9806.022374
880.521133,74.020594,-592.164754,-10725.336972
880.521453,-444.123565,-444.123565,-9959.241474
880.521773,0.000000,740.205942,-10418.898773
880.522093,1554.432478,740.205942,-10189.070123
880.522412,1776.494261,1406.391290,-10418.898773
880.522732,1554.432478,1036.288319,-10955.165621
880.523052,370.102971,1554.432478,-10342.289223
880.523372,-2072.576638,1924.535449,-10725.336972
880.523692,-1332.370696,666.185348,-10495.508323
880.524012,1184.329507,-296.082377,-10035.851024
880.524332,1998.556043,-1036.288319,-9576.193725
880.524651,740.205942,-444.123565,-10725.336972
880.524971,-1850.514855,740.205942,-9959.241474
880.525291,-2516.700203,1702.473667,-10112.460574
880.525611,-1332.370696,1480.411884,-10035.851024
880.525931,-666.185348,-740.205942,-9193.145976
880.526251,-666.185348,-1332.370696,-9882.631924
880.526571,-3108.864956,-1480.411884,-9576.193725
880.526890,-2072.576638,-814.226536,-9652.803275
880.527210,-518.144159,444.123565,-9806.022374
880.527530,1850.514855,1258.350101,-9806.022374
880.527850,2812.782580,814.226536,-10495.508323
880.528170,2220.617826,0.000000,-9806.022374
880.528490,-370.102971,0.000000,-10265.679673
880.528810,-2590.720797,-222.061783,-9729.412825
880.529129,-2738.761985,-962.267725,-9729.412825
880.529449,-1036.288319,296.082377,-9806.022374
880.529769,1406.391290,370.102971,-9882.631924
880.530089,2368.659014,-740.205942,-10495.508323
880.530409,2294.638420,-666.185348,-10878.556072
880.530729,0.000000,-444.123565,-9806.022374
880.531049,-370.102971,1184.329507,-10189.070123
880.531368,-296.082377,2812.782580,-10035.851024
880.531688,814.226536,2368.659014,-10342.289223
880.532008,962.267725,1998.556043,-10265.679673
880.532328,666.185348,592.164754,-10648.727422
880.532648,592.164754,740.205942,-10265.679673
880.532968,1036.288319,-222.061783,-10112.460574
880.533288,3034.844362,148.041188,-10035.851024
880.533608,3034.844362,148.041188,-10035.851024
880.533927,1776.494261,-148.041188,-10418.898773
880.534247,-148.041188,740.205942,-10112.460574
880.534567,-1258.350101,1628.453072,-9882.631924
880.534887,-296.082377,2812.782580,-10112.460574
880.535207,1850.514855,3108.864956,-10495.508323
880.535527,4293.194464,1702.473667,-10189.070123
880.535847,3404.947333,-444.123565,-10035.851024
880.536166,1036.288319,-1406.391290,-9729.412825
880.536486,-1110.308913,-740.205942,-9729.412825
880.536806,74.020594,74.020594,-9576.193725
880.537126,2442.679609,962.267725,-8580.269578
880.537446,2738.761985,222.061783,-9729.412825
880.537766,1258.350101,444.123565,-10112.460574
880.538086,0.000000,0.000000,-9959.241474
880.538406,-888.247130,0.000000,-9039.926876
880.538726,1332.370696,814.226536,-10189.070123
880.539046,2368.659014,740.205942,-9882.631924
880.539366,3775.050304,814.226536,-10572.117872
880.539686,1406.391290,74.020594,-10035.851024
880.540006,-1036.288319,0.000000,-10189.070123
880.540326,-2516.700203,-518.144159,-9806.022374
880.540646,-592.164754,296.082377,-9729.412825
880.540966,888.247130,962.267725,-9959.241474
880.541286,1998.556043,444.123565,-9576.193725
880.541606,1036.288319,148.041188,-10572.117872
880.541926,1924.535449,0.000000,-9806.022374
880.542246,4145.153275,0.000000,-11184.994271
880.542565,296.082377,888.247130,-10265.679673
880.542885,-1850.514855,740.205942,-10189.070123
880.543205,-1332.370696,-222.061783,-9806.022374
880.543525,962.267725,1332.370696,-11031.775171
880.543845,-814.226536,1480.411884,-10572.117872
880.544165,-518.144159,1554.432478,-10265.679673
880.544485,74.020594,888.247130,-10801.946522
880.544805,1332.370696,0.000000,-10572.117872
880.545125,-1110.308913,-370.102971,-10648.727422
880.545445,-2738.761985,-1036.288319,-9806.022374
880.545765,-2812.782580,-888.247130,-9652.803275
880.546085,-1776.494261,-888.247130,-10342.289223
880.546405,296.082377,-1036.288319,-10112.460574
880.546725,0.000000,-74.020594,-10035.851024
880.547045,-592.164754,1554.432478,-9959.241474
880.547365,-370.102971,1332.370696,-9806.022374
880.547685,-1184.329507,1702.473667,-10112.460574
880.548005,-1332.370696,444.123565,-9806.022374
880.548325,-444.123565,-1036.288319,-9346.365076
880.548645,-962.267725,-1998.556043,-9806.022374
880.548965,444.123565,-1776.494261,-9882.631924
880.549285,1480.411884,0.000000,-9729.412825
880.549605,0.000000,1628.453072,-10035.851024
880.549925,-888.247130,2812.782580,-9959.241474
880.550245,1258.350101,2368.659014,-9882.631924
880.550564,1850.514855,1036.288319,-9882.631924
880.550884,740.205942,0.000000,-10035.851024
880.551204,-592.164754,-814.226536,-9729.412825
880.551524,0.000000,-666.185348,-9806.022374
880.551844,1850.514855,0.000000,-9576.193725
880.552164,2442.679609,1554.432478,-9959.241474
880.552484,2294.638420,1998.556043,-10342.289223
880.552804,1332.370696,1998.556043,-10342.289223
880.553124,1110.308913,1776.494261,-10342.289223
880.553444,962.267725,814.226536,-10342.289223
880.553764,2738.761985,-296.082377,-9806.022374
880.554084,2072.576638,74.020594,-10265.679673
880.554404,1554.432478,0.000000,-10648.727422
880.554724,2146.597232,0.000000,-10265.679673
880.555044,1184.329507,-740.205942,-10189.070123
880.555364,888.247130,222.061783,-10648.727422
880.555684,2146.597232,1776.494261,-10342.289223
880.556004,2294.638420,1406.391290,-10112.460574
880.556324,1702.473667,1998.556043,-10648.727422
880.556644,666.185348,962.267725,-10189.070123
880.556964,1554.432478,-518.144159,-10955.165621
880.557284,1258.350101,-1332.370696,-10878.556072
880.557604,2442.679609,-2220.617826,-10035.851024
880.557924,592.164754,-592.164754,-10035.851024
880.558244,-148.041188,1036.288319,-10955.165621
880.558563,-370.102971,3256.906145,-10112.460574
880.558883,-666.185348,2368.659014,-10572.117872
880.559203,-962.267725,1480.411884,-9806.022374
880.559523,0.000000,-1258.350101,-10035.851024
880.559843,1406.391290,-2220.617826,-9806.022374
880.560163,2294.638420,-1998.556043,-10035.851024
880.560483,592.164754,-1480.411884,-9882.631924
880.560803,-1110.308913,370.102971,-9806.022374
880.561123,-1776.494261,814.226536,-9806.022374
880.561443,-518.144159,1184.329507,-10878.556072
880.561763,74.020594,888.247130,-10035.851024
880.562083,-1184.329507,296.082377,-9499.584175
880.562403,-2368.659014,-740.205942,-9882.631924
880.562723,-1850.514855,-1184.329507,-9193.145976
880.563043,-518.144159,-2294.638420,-9652.803275
880.563363,-222.061783,-740.205942,-9882.631924
880.563683,-1924.535449,444.123565,-10189.070123
880.564003,-1850.514855,1258.350101,-10648.727422
880.564323,1258.350101,1184.329507,-10418.898773
880.564643,1702.473667,740.205942,-10955.165621
880.564963,2072.576638,296.082377,-10572.117872
880.565283,1406.391290,0.000000,-10112.460574
880.565603,1554.432478,1776.494261,-11031.775171
880.565923,1258.350101,1850.514855,-11414.822920
880.566242,148.041188,592.164754,-10801.946522
880.566562,-592.164754,-518.144159,-10112.460574
880.566882,-814.226536,-962.267725,-10112.460574
880.567202,-1036.288319,-518.144159,-10725.336972
880.567522,-1036.288319,2146.597232,-10495.508323
880.567842,-1628.453072,4219.173869,-10572.117872
880.568162,-1184.329507,3997.112087,-10648.727422
880.568482,0.000000,370.102971,-10035.851024
880.568802,444.123565,-2960.823768,-9422.974625
880.569122,1998.556043,-4293.194464,-9193.145976
880.569442,1628.453072,-2516.700203,-9652.803275
880.569762,2368.659014,518.144159,-9116.536426
880.570082,1184.329507,2886.803174,-9806.022374
880.570402,1110.308913,3330.926739,-9806.022374
880.570722,1258.350101,1406.391290,-9039.926876
880.571042,2812.782580,-222.061783,-9729.412825
880.571362,2516.700203,-740.205942,-9652.803275
880.571682,370.102971,-2442.679609,-8886.707777
880.572002,-740.205942,-962.267725,-8886.707777
880.572322,592.164754,0.000000,-9576.193725
880.572642,1480.411884,518.144159,-9729.412825
880.572962,2664.741391,1776.494261,-10418.898773
880.573282,2220.617826,2146.597232,-10342.289223
880.573602,1850.514855,2516.700203,-10035.851024
880.573922,1554.432478,2590.720797,-10648.727422
880.574241,2146.597232,1554.432478,-10035.851024
880.574561,1998.556043,-444.123565,-10495.508323
880.574881,1850.514855,-2146.597232,-10801.946522
880.575201,1924.535449,-1406.391290,-10265.679673
880.575521,962.267725,1406.391290,-10801.946522
880.575841,-222.061783,3627.009116,-11108.384721
880.576161,-370.102971,3404.947333,-10801.946522
880.576481,592.164754,2442.679609,-11031.775171
880.576801,888.247130,1110.308913,-10955.165621
880.577121,148.041188,-222.061783,-10801.946522
880.577441,222.061783,-888.247130,-10342.289223
880.577761,296.082377,-1184.329507,-9652.803275
880.578081,-222.061783,74.020594,-10189.070123
880.578401,-370.102971,814.226536,-10955.165621
880.578721,-666.185348,1406.391290,-10878.556072
880.579041,0.000000,1332.370696,-9959.241474
880.579361,-666.185348,1554.432478,-9806.022374
880.579681,-962.267725,740.205942,-9806.022374
880.580001,-296.082377,-222.061783,-9269.755526
880.580321,-814.226536,-1776.494261,-9729.412825
880.580641,-296.082377,-2812.782580,-9576.193725
880.580961,1036.288319,-3108.864956,-9116.536426
880.581281,888.247130,-370.102971,-9346.365076
880.581601,0.000000,814.226536,-9729.412825
880.581921,-1036.288319,2146.597232,-9806.022374
880.582240,-444.123565,1924.535449,-10265.679673
880.582560,-740.205942,888.247130,-10878.556072
880.582880,-1702.473667,-2146.597232,-9652.803275
880.583200,-1332.370696,-2368.659014,-10112.460574
880.583520,370.102971,-1998.556043,-10265.679673
880.583840,1184.329507,-814.226536,-10112.460574
880.584160,-148.041188,740.205942,-10878.556072
880.584480,-814.226536,1110.308913,-10725.336972
880.584800,-1702.473667,1702.473667,-10265.679673
880.585120,-1406.391290,2812.782580,-11108.384721
880.585440,592.164754,2220.617826,-10878.556072
880.585760,148.041188,1184.329507,-11108.384721
880.586080,2072.576638,-518.144159,-11338.213370
880.586400,1628.453072,-1924.535449,-10112.460574
880.586720,1924.535449,-814.226536,-10342.289223
880.587040,888.247130,1110.308913,-10725.336972
880.587360,148.041188,2664.741391,-10418.898773
880.587680,-1184.329507,2294.638420,-10265.679673
880.588000,-1036.288319,814.226536,-10265.679673
880.588320,740.205942,-222.061783,-9806.022374
880.588640,444.123565,-592.164754,-9806.022374
880.588960,1554.432478,0.000000,-9806.022374
880.589280,2146.597232,814.226536,-9652.803275
880.589600,2516.700203,1110.308913,-9729.412825
880.589920,1628.453072,1998.556043,-9422.974625
880.590239,518.144159,1480.411884,-9729.412825
880.590559,-518.144159,1702.473667,-9806.022374
880.590879,0.000000,962.267725,-9806.022374
880.591199,2738.761985,74.020594,-7584.345430
880.591519,2590.720797,-1258.350101,-9882.631924
880.591839,1036.288319,-2442.679609,-9269.755526
880.592159,370.102971,-2072.576638,-9193.145976
880.592479,-518.144159,-888.247130,-9499.584175
880.592799,2072.576638,814.226536,-10265.679673
880.593119,2960.823768,1998.556043,-10035.851024
880.593439,1998.556043,1702.473667,-10495.508323
880.593759,222.061783,1184.329507,-10112.460574
880.594079,592.164754,0.000000,-11031.775171
880.594399,1258.350101,-962.267725,-10495.508323
880.594719,3478.967927,-1850.514855,-10189.070123
880.595039,3775.050304,-1628.453072,-10342.289223
880.595359,2368.659014,-740.205942,-10189.070123
880.595679,-962.267725,1110.308913,-10265.679673
880.595999,-2146.597232,2368.659014,-11184.994271
880.596319,-1036.288319,2368.659014,-10801.946522
880.596639,1628.453072,296.082377,-10725.336972
880.596959,2516.700203,-740.205942,-10189.070123
880.597279,296.082377,-1036.288319,-10955.165621
880.597599,-2664.741391,-518.144159,-10035.851024
880.597919,-1850.514855,-296.082377,-10495.508323
880.598238,740.205942,0.000000,-10495.508323
880.598558,2368.659014,-740.205942,-10418.898773
880.598878,888.247130,0.000000,-10112.460574
880.599198,-1480.411884,1258.350101,-10495.508323
880.599518,-1036.288319,2072.576638,-10112.460574
880.599838,222.061783,1628.453072,-9269.755526
880.600158,1998.556043,-740.205942,-10189.070123
880.600478,518.144159,-3849.070898,-9269.755526
880.600798,-1850.514855,-4367.215058,-9193.145976
880.601118,-3330.926739,-3404.947333,-9039.926876
880.601438,-2516.700203,-296.082377,-9193.145976
880.601758,-962.267725,1924.535449,-10112.460574
880.602078,0.000000,2442.679609,-9959.241474
880.602398,666.185348,1184.329507,-10189.070123
880.602718,0.000000,74.020594,-10342.289223
880.603038,-1258.350101,-1184.329507,-10265.679673
880.603358,-592.164754,0.000000,-10035.851024
880.603678,740.205942,296.082377,-10801.946522
880.603998,74.020594,1258.350101,-11874.480219
880.604318,-1924.535449,2146.597232,-10495.508323
880.604638,-2738.761985,2368.659014,-10878.556072
880.604958,-444.123565,2590.720797,-10418.898773
880.605278,814.226536,3478.967927,-10801.946522
880.605598,2146.597232,962.267725,-10572.117872
880.605918,2442.679609,-1480.411884,-10342.289223
880.606237,2368.659014,-2442.679609,-10418.898773
880.606557,1850.514855,-1998.556043,-10265.679673
880.606877,370.102971,740.205942,-9499.584175
880.607197,296.082377,3182.885551,-10342.289223
880.607517,-370.102971,3552.988522,-10418.898773
880.607837,1924.535449,2738.761985,-9959.241474
880.608157,1184.329507,962.267725,-9806.022374
880.608477,1702.473667,-2072.576638,-9806.022374
880.608797,2146.597232,-2960.823768,-9346.365076
880.609117,1406.391290,-1480.411884,-9652.803275
880.609437,814.226536,1406.391290,-9346.365076
880.609757,444.123565,2368.659014,-9193.145976
880.610077,296.082377,2664.741391,-9806.022374
880.610397,740.205942,1924.535449,-9422.974625
880.610717,1628.453072,1554.432478,-9729.412825
880.611037,1850.514855,1554.432478,-9729.412825
880.611357,3404.947333,-1406.391290,-9806.022374
880.611677,3923.091493,-1184.329507,-9806.022374
880.611997,-296.082377,-1036.288319,-9806.022374
880.612317,-2738.761985,-148.041188,-9959.241474
880.612637,-1332.370696,2072.576638,-10955.165621
880.612957,1110.308913,2590.720797,-10801.946522
880.613277,2294.638420,2220.617826,-10801.946522
880.613597,666.185348,444.123565,-10955.165621
880.613916,0.000000,74.020594,-10725.336972
880.614236,370.102971,0.000000,-10801.946522
880.614556,2442.679609,1332.370696,-11108.384721
880.614876,3256.906145,2442.679609,-10878.556072
880.615196,2368.659014,444.123565,-10265.679673
880.615516,592.164754,-1332.370696,-10418.898773
880.615836,-962.267725,-1480.411884,-10418.898773
880.616156,-962.267725,148.041188,-10418.898773
880.616476,148.041188,2738.761985,-10725.336972
880.616796,1258.350101,3701.029710,-10878.556072
880.617116,962.267725,1258.350101,-10648.727422
880.617436,222.061783,-1850.514855,-9959.241474
880.617756,0.000000,-2886.803174,-9806.022374
880.618076,-222.061783,-2886.803174,-9576.193725
880.618396,0.000000,740.205942,-9959.241474
880.618716,1776.494261,1776.494261,-9806.022374
880.619036,1406.391290,1554.432478,-9576.193725
880.619356,370.102971,592.164754,-9959.241474
880.619676,-2294.638420,-518.144159,-9576.193725
880.619996,-2368.659014,-1554.432478,-9576.193725
880.620316,-666.185348,-2294.638420,-9269.755526
880.620636,1258.350101,-1850.514855,-9499.584175
880.620956,0.000000,-2368.659014,-9422.974625
880.621276,-1406.391290,-1998.556043,-9806.022374
880.621596,-2664.741391,-740.205942,-10112.460574
880.621915,-1628.453072,592.164754,-10189.070123
880.622235,148.041188,2368.659014,-10035.851024
880.622555,1998.556043,2516.700203,-11031.775171
880.622875,2146.597232,1702.473667,-10342.289223
880.623195,666.185348,-296.082377,-10725.336972
880.623515,-148.041188,-1924.535449,-10342.289223
880.623835,-888.247130,-2146.597232,-9422.974625
880.624155,-1406.391290,-740.205942,-9882.631924
880.624475,-1110.308913,444.123565,-10112.460574
880.624795,-888.247130,1776.494261,-10648.727422
880.625115,0.000000,2516.700203,-11338.213370
880.625435,2368.659014,1702.473667,-10342.289223
880.625755,1480.411884,1258.350101,-10725.336972
880.626075,1406.391290,-518.144159,-10342.289223
880.626395,1850.514855,-296.082377,-9806.022374
880.626715,1480.411884,0.000000,-9806.022374
880.627035,3478.967927,1850.514855,-10189.070123
880.627355,3775.050304,2368.659014,-9806.022374
880.627675,1924.535449,1332.370696,-9806.022374
880.627995,2220.617826,518.144159,-9882.631924
880.628315,2960.823768,74.020594,-9576.193725
880.628635,2146.597232,444.123565,-9882.631924
880.628955,814.226536,888.247130,-9729.412825
880.629275,-1036.288319,518.144159,-9652.803275
880.629595,666.185348,518.144159,-9422.974625
880.629914,2294.638420,0.000000,-9346.365076
880.630234,2072.576638,-148.041188,-9652.803275
880.630554,2072.576638,0.000000,-9576.193725
880.630874,1554.432478,0.000000,-9652.803275
880.631194,1554.432478,296.082377,-9652.803275
880.631514,2072.576638,0.000000,-9576.193725
880.631834,888.247130,-814.226536,-10035.851024
880.632154,1480.411884,-148.041188,-9806.022374
880.632474,1554.432478,1110.308913,-10572.117872
880.632794,1628.453072,1184.329507,-10725.336972
880.633114,1036.288319,888.247130,-10572.117872
880.633434,518.144159,444.123565,-10801.946522
880.633754,-814.226536,148.041188,-10189.070123
880.634074,-2590.720797,-1480.411884,-10035.851024
880.634394,-2368.659014,-962.267725,-10648.727422
880.634714,148.041188,370.102971,-10418.898773
880.635034,-666.185348,148.041188,-10495.508323
880.635354,-1332.370696,814.226536,-10035.851024
880.635674,-1184.329507,1036.288319,-10725.336972
880.635994,-1184.329507,592.164754,-10495.508323
880.636314,-1480.411884,1406.391290,-10495.508323
880.636634,-888.247130,666.185348,-10725.336972
880.636953,370.102971,-296.082377,-9959.241474
880.637273,444.123565,-296.082377,-10648.727422
880.637593,0.000000,-1110.308913,-9882.631924
880.637913,-1406.391290,-1332.370696,-9959.241474
880.638233,-962.267725,222.061783,-10189.070123
880.638553,-444.123565,0.000000,-9882.631924
880.638873,-2220.617826,-518.144159,-9882.631924
880.639193,-2368.659014,-814.226536,-9576.193725
880.639513,-814.226536,-222.061783,-9193.145976
880.639833,0.000000,0.000000,-10189.070123
880.640153,0.000000,0.000000,-9882.631924
880.640473,74.020594,-814.226536,-9959.241474
880.640792,74.020594,-1406.391290,-9652.803275
880.641112,1480.411884,-962.267725,-9193.145976
880.641432,1184.329507,222.061783,-10035.851024
880.641752,1036.288319,2442.679609,-10189.070123
880.642072,814.226536,3108.864956,-10648.727422
880.642392,1110.308913,2442.679609,-9959.241474
880.642712,1258.350101,814.226536,-10418.898773
880.643032,296.082377,-1258.350101,-10112.460574
880.643352,0.000000,-2368.659014,-9806.022374
880.643672,1258.350101,-1702.473667,-9806.022374
880.643992,2294.638420,296.082377,-10495.508323
880.644311,2516.700203,1554.432478,-10495.508323
880.644631,2072.576638,1776.494261,-10725.336972
880.644951,2516.700203,1110.308913,-10418.898773
880.645271,2960.823768,74.020594,-10112.460574
880.645591,2738.761985,0.000000,-10495.508323
880.645911,2442.679609,-444.123565,-10112.460574
880.646231,2886.803174,-444.123565,-10418.898773
880.646551,2368.659014,888.247130,-10189.070123
880.646871,-296.082377,2590.720797,-9499.584175
880.647191,-814.226536,3478.967927,-9959.241474
880.647511,592.164754,4145.153275,-11184.994271
880.647831,2220.617826,3256.906145,-10418.898773
880.648150,1998.556043,444.123565,-9499.584175
880.648470,1850.514855,-1332.370696,-9806.022374
880.648790,1332.370696,-2738.761985,-8810.098227
880.649110,740.205942,-3108.864956,-9499.584175
880.649430,1110.308913,-962.267725,-9882.631924
880.649750,814.226536,1184.329507,-9499.584175
880.650070,-370.102971,3108.864956,-10112.460574
880.650390,370.102971,2220.617826,-9959.241474
880.650710,1628.453072,1628.453072,-10035.851024
880.651030,2072.576638,444.123565,-9959.241474
880.651350,1480.411884,-962.267725,-10035.851024
880.651670,-148.041188,-1332.370696,-9806.022374
880.651989,-814.226536,-1628.453072,-9729.412825
880.652309,518.144159,-962.267725,-9806.022374
880.652629,2368.659014,518.144159,-9959.241474
880.652949,592.164754,2294.638420,-10572.117872
880.653269,-888.247130,3182.885551,-10801.946522
880.653589,-1702.473667,3775.050304,-10648.727422
880.653909,-2590.720797,1850.514855,-10265.679673
880.654229,-2516.700203,148.041188,-9576.193725
880.654549,-1850.514855,-1554.432478,-10265.679673
880.654869,-1036.288319,-1702.473667,-10342.289223
880.655189,-962.267725,-814.226536,-10035.851024
880.655509,0.000000,814.226536,-9806.022374
880.655828,666.185348,1924.535449,-10418.898773
880.656148,0.000000,1702.473667,-10265.679673
880.656468,444.123565,740.205942,-10189.070123
880.656788,592.164754,518.144159,-9576.193725
880.657108,-222.061783,370.102971,-10189.070123
880.657428,-740.205942,0.000000,-10035.851024
880.657748,-1702.473667,-1776.494261,-10112.460574
880.658068,-1924.535449,-2220.617826,-8427.050478
880.658388,-2368.659014,-1850.514855,-9576.193725
880.658708,-2738.761985,-962.267725,-10342.289223
880.659028,-1702.473667,1480.411884,-9652.803275
880.659348,-592.164754,2294.638420,-10189.070123
880.659667,1776.494261,2220.617826,-10495.508323
880.659987,2590.720797,74.020594,-9959.241474
880.660307,-296.082377,-1554.432478,-10112.460574
880.660627,-962.267725,-2886.803174,-9806.022374
880.660947,518.144159,-1924.535449,-9806.022374
880.661267,2738.761985,-370.102971,-10495.508323
880.661587,3108.864956,888.247130,-9959.241474
880.661907,2368.659014,1924.535449,-9959.241474
880.662227,1702.473667,2516.700203,-10418.898773
880.662547,222.061783,740.205942,-10572.117872
880.662867,962.267725,-74.020594,-9729.412825
880.663187,962.267725,-2368.659014,-10648.727422
880.663506,2146.597232,-2960.823768,-9422.974625
880.663826,2220.617826,-1480.411884,-9959.241474
880.664146,1406.391290,592.164754,-10342.289223
880.664466,666.185348,3256.906145,-10648.727422
880.664786,1480.411884,4515.256246,-10342.289223
880.665106,3108.864956,3923.091493,-10878.556072
880.665426,3997.112087,1554.432478,-10342.289223
880.665746,2812.782580,-2146.597232,-10189.070123
880.666066,1480.411884,-3997.112087,-9729.412825
880.666386,1480.411884,-2664.741391,-9193.145976
880.666706,2368.659014,-592.164754,-9806.022374
880.667026,2738.761985,1480.411884,-10112.460574
880.667345,2368.659014,2294.638420,-10342.289223
880.667665,370.102971,2886.803174,-9959.241474
880.667985,-296.082377,1702.473667,-10342.289223
880.668305,74.020594,814.226536,-10572.117872
880.668625,296.082377,-962.267725,-9806.022374
880.668945,814.226536,-2664.741391,-10189.070123
880.669265,1406.391290,-2368.659014,-9269.755526
880.669585,-592.164754,444.123565,-9959.241474
880.669905,-1924.535449,1110.308913,-9959.241474
880.670225,-1702.473667,2294.638420,-10189.070123
880.670545,-222.061783,2368.659014,-10801.946522
880.670865,740.205942,2368.659014,-11491.432470
880.671184,296.082377,888.247130,-10265.679673
880.671504,-666.185348,-444.123565,-10725.336972
880.671824,-888.247130,-1850.514855,-10035.851024
880.672144,-2072.576638,-1850.514855,-9652.803275
880.672464,-1258.350101,-222.061783,-10572.117872
880.672784,-592.164754,666.185348,-10035.851024
880.673104,888.247130,1332.370696,-10342.289223
880.673424,740.205942,1702.473667,-10572.117872
880.673744,148.041188,3182.885551,-10418.898773
880.674064,-444.123565,2442.679609,-10265.679673
880.674384,-444.123565,444.123565,-10189.070123
880.674704,-740.205942,-962.267725,-10035.851024
880.675023,-148.041188,-1406.391290,-9806.022374
880.675343,-518.144159,-296.082377,-9806.022374
880.675663,-814.226536,962.267725,-9499.584175
880.675983,0.000000,1184.329507,-9652.803275
880.676303,666.185348,814.226536,-10189.070123
880.676623,740.205942,-222.061783,-9116.536426
880.676943,-666.185348,-1110.308913,-9346.365076
880.677263,0.000000,-666.185348,-9959.241474
880.677583,-962.267725,1184.329507,-9882.631924
880.677903,518.144159,74.020594,-10265.679673
880.678223,2590.720797,888.247130,-9193.145976
880.678543,2886.803174,2368.659014,-10342.289223
880.678862,888.247130,2738.761985,-10572.117872
880.679182,814.226536,1776.494261,-10648.727422
880.679502,1184.329507,3034.844362,-10035.851024
880.679822,1036.288319,222.061783,-10265.679673
880.680142,1258.350101,-1776.494261,-9959.241474
880.680462,2072.576638,-1924.535449,-9882.631924
880.680782,814.226536,-1258.350101,-10955.165621
880.681102,1184.329507,0.000000,-10342.289223
880.681422,1036.288319,1406.391290,-10418.898773
880.681742,1332.370696,2516.700203,-10495.508323
880.682062,444.123565,1776.494261,-10342.289223
880.682382,1406.391290,296.082377,-10572.117872
880.682701,1036.288319,-740.205942,-10725.336972
880.683021,1998.556043,-2368.659014,-9959.241474
880.683341,1332.370696,-2368.659014,-9269.755526
880.683661,1184.329507,-1998.556043,-9652.803275
880.683981,1036.288319,-1184.329507,-9959.241474
880.684301,1036.288319,888.247130,-9652.803275
880.684621,-814.226536,3478.967927,-10342.289223
880.684941,-1110.308913,3182.885551,-9806.022374
880.685261,74.020594,3034.844362,-9499.584175
880.685581,814.226536,-370.102971,-9806.022374
880.685901,1924.535449,-3108.864956,-8963.317327
880.686221,814.226536,-3997.112087,-9193.145976
880.686540,0.000000,-3108.864956,-9116.536426
880.686860,518.144159,-814.226536,-9193.145976
880.687180,740.205942,2590.720797,-10572.117872
880.687500,1702.473667,4293.194464,-10572.117872
880.687820,666.185348,2886.803174,-10112.460574
880.688140,-740.205942,-370.102971,-10112.460574
880.688460,0.000000,-2886.803174,-9959.241474
880.688780,888.247130,-2960.823768,-9729.412825
880.689100,518.144159,-1480.411884,-10112.460574
880.689420,1998.556043,444.123565,-10418.898773
880.689740,1258.350101,1554.432478,-10725.336972
880.690060,-148.041188,1998.556043,-10725.336972
880.690379,-444.123565,2664.741391,-11108.384721
880.690699,-1850.514855,2368.659014,-9959.241474
880.691019,-1036.288319,1480.411884,-10955.165621
880.691339,1702.473667,-1332.370696,-10112.460574
880.691659,3997.112087,-2146.597232,-10572.117872
880.691979,1850.514855,-1332.370696,-10265.679673
880.692299,-1628.453072,888.247130,-10265.679673
880.692619,-2590.720797,2664.741391,-9729.412825
880.692939,-1554.432478,3108.864956,-10495.508323
880.693259,74.020594,2812.782580,-10035.851024
880.693579,1628.453072,74.020594,-10112.460574
880.693899,592.164754,-888.247130,-9806.022374
880.694218,666.185348,-2294.638420,-10035.851024
880.694538,370.102971,-1924.535449,-9422.974625
880.694858,-1702.473667,0.000000,-9422.974625
880.695178,-3404.947333,962.267725,-9269.755526
880.695498,-3478.967927,1258.350101,-9576.193725
880.695818,-814.226536,148.041188,-10265.679673
880.696138,666.185348,222.061783,-9882.631924
880.696458,962.267725,962.267725,-9806.022374
880.696778,1628.453072,888.247130,-9806.022374
880.697098,2516.700203,0.000000,-9806.022374
880.697418,2368.659014,-296.082377,-9806.022374
880.697738,296.082377,-370.102971,-10572.117872
880.698057,-1184.329507,1406.391290,-9499.584175
880.698377,518.144159,1332.370696,-10801.946522
880.698697,1850.514855,1184.329507,-10878.556072
880.699017,3182.885551,666.185348,-10572.117872
880.699337,666.185348,740.205942,-11951.089769
880.699657,-370.102971,1110.308913,-11108.384721
880.699977,592.164754,1480.411884,-10265.679673
880.700297,222.061783,1702.473667,-10418.898773
880.700617,518.144159,1480.411884,-10725.336972
880.700937,1702.473667,592.164754,-11108.384721
880.701257,2072.576638,296.082377,-10495.508323
880.701577,1258.350101,0.000000,-10112.460574
880.701896,1776.494261,666.185348,-9499.584175
880.702216,1258.350101,3404.947333,-10572.117872
880.702536,1554.432478,2516.700203,-10112.460574
880.702856,2738.761985,1110.308913,-9576.193725
880.703176,2664.741391,444.123565,-10189.070123
880.703496,1924.535449,-888.247130,-9806.022374
880.703816,2146.597232,-518.144159,-9346.365076
880.704136,1406.391290,1110.308913,-10189.070123
880.704456,1406.391290,1406.391290,-9422.974625
880.704776,962.267725,1184.329507,-9652.803275
880.705096,0.000000,962.267725,-10265.679673
880.705416,-592.164754,-1258.350101,-9806.022374
880.705735,0.000000,296.082377,-9422.974625
880.706055,-518.144159,444.123565,-9806.022374
880.706375,1036.288319,-444.123565,-9806.022374
880.706695,296.082377,-666.185348,-9882.631924
880.707015,-1924.535449,-1258.350101,-10572.117872
880.707335,-1258.350101,0.000000,-9652.803275
880.707655,740.205942,1110.308913,-9806.022374
880.707975,2294.638420,2738.761985,-10648.727422
880.708295,3256.906145,2590.720797,-10572.117872
880.708615,0.000000,740.205942,-10878.556072
880.708935,-2294.638420,-1850.514855,-10495.508323
880.709255,-2664.741391,-2738.761985,-9806.022374
880.709574,-1702.473667,-2072.576638,-9959.241474
880.709894,444.123565,0.000000,-10495.508323
880.710214,2590.720797,1628.453072,-10801.946522
880.710534,518.144159,2442.679609,-10801.946522
880.710854,-518.144159,888.247130,-10878.556072
880.711174,-296.082377,-592.164754,-10342.289223
880.711494,-814.226536,0.000000,-10265.679673
880.711814,-1258.350101,370.102971,-10112.460574
880.712134,0.000000,740.205942,-9959.241474
880.712454,1184.329507,1258.350101,-10801.946522
880.712774,-518.144159,-740.205942,-10495.508323
880.713094,-1480.411884,-2294.638420,-9193.145976
880.713413,-2590.720797,-1036.288319,-10112.460574
880.713733,-888.247130,-962.267725,-8963.317327
880.714053,4737.318029,222.061783,-9269.755526
880.714373,1850.514855,888.247130,-11031.775171
880.714693,518.144159,74.020594,-9269.755526
880.715013,-296.082377,-148.041188,-9346.365076
880.715333,518.144159,-444.123565,-9576.193725
880.715653,2220.617826,-296.082377,-9652.803275
880.715973,2812.782580,-1258.350101,-10265.679673
880.716293,2664.741391,-1406.391290,-9422.974625
880.716613,370.102971,444.123565,-9806.022374
880.716933,-1258.350101,2368.659014,-10035.851024
880.717252,-1702.473667,3256.906145,-10495.508323
880.717572,-296.082377,3034.844362,-10572.117872
880.717892,962.267725,148.041188,-10265.679673
880.718212,-666.185348,-3627.009116,-10342.289223
880.718532,-1036.288319,-5995.668130,-9499.584175
880.718852,296.082377,-4515.256246,-9959.241474
880.719172,2442.679609,-222.061783,-10725.336972
880.719492,4071.132681,5403.503377,-10648.727422
880.719812,2294.638420,6883.915261,-11261.603821
880.720132,1332.370696,4737.318029,-11414.822920
880.720452,1184.329507,1554.432478,-9806.022374
880.720772,666.185348,-1776.494261,-10418.898773
880.721091,-814.226536,-2442.679609,-9959.241474
880.721411,-296.082377,-2590.720797,-9422.974625
880.721731,592.164754,-2368.659014,-10189.070123
880.722051,1406.391290,-1036.288319,-9652.803275
880.722371,592.164754,2960.823768,-9806.022374
880.722691,0.000000,4589.276840,-10572.117872
880.723011,0.000000,4145.153275,-9422.974625
880.723331,370.102971,1628.453072,-9729.412825
880.723651,666.185348,-518.144159,-8810.098227
880.723971,2442.679609,-4145.153275,-9576.193725
880.724291,1184.329507,-3775.050304,-8963.317327
880.724611,1184.329507,-1332.370696,-9499.584175
880.724930,1554.432478,296.082377,-9346.365076
880.725250,1332.370696,2738.761985,-9499.584175
880.725570,444.123565,3182.885551,-10495.508323
880.725890,-370.102971,1406.391290,-9422.974625
880.726210,-666.185348,-370.102971,-9576.193725
880.726530,296.082377,-740.205942,-9729.412825
880.726850,2368.659014,-1998.556043,-9806.022374
880.727170,1776.494261,-2368.659014,-10418.898773
880.727490,518.144159,-518.144159,-10342.289223
880.727810,-518.144159,1628.453072,-10418.898773
880.728130,-740.205942,3182.885551,-10189.070123
880.728450,-518.144159,3923.091493,-11491.432470
880.728769,740.205942,2368.659014,-10572.117872
880.729089,1406.391290,-148.041188,-10495.508323
880.729409,1184.329507,-1702.473667,-10648.727422
880.729729,148.041188,-1850.514855,-9806.022374
880.730049,-888.247130,0.000000,-10725.336972
880.730369,0.000000,1110.308913,-10572.117872
880.730689,74.020594,740.205942,-10189.070123
880.731009,148.041188,1258.350101,-10265.679673
880.731329,-222.061783,962.267725,-10112.460574
880.731649,-222.061783,1850.514855,-10035.851024
880.731969,-814.226536,1702.473667,-10189.070123
880.732289,0.000000,814.226536,-10112.460574
880.732608,666.185348,-1332.370696,-9422.974625
880.732928,-370.102971,-3775.050304,-9499.584175
880.733248,-666.185348,-2590.720797,-9576.193725
880.733568,-518.144159,-888.247130,-8350.440928
880.733888,740.205942,1406.391290,-10035.851024
880.734208,1258.350101,2442.679609,-9652.803275
880.734528,1184.329507,1184.329507,-9806.022374
880.734848,814.226536,-592.164754,-9806.022374
880.735168,444.123565,-2072.576638,-9729.412825
880.735488,0.000000,-592.164754,-9652.803275
880.735808,370.102971,-148.041188,-10572.117872
880.736128,1258.350101,592.164754,-9959.241474
880.736448,1406.391290,1036.288319,-10189.070123
880.736768,370.102971,814.226536,-10418.898773
880.737088,-1998.556043,-592.164754,-9882.631924
880.737408,-2812.782580,888.247130,-10189.070123
880.737728,-1702.473667,1258.350101,-10342.289223
880.738048,1628.453072,-296.082377,-9882.631924
880.738368,3478.967927,-1258.350101,-10418.898773
880.738688,4737.318029,-666.185348,-10801.946522
880.739008,4515.256246,0.000000,-9806.022374
880.739328,3404.947333,3108.864956,-11568.042020
880.739648,2368.659014,4293.194464,-11184.994271
880.739968,2590.720797,3256.906145,-10418.898773
880.740288,1480.411884,1850.514855,-10801.946522
880.740608,0.000000,-814.226536,-10189.070123
880.740928,-1036.288319,-1776.494261,-9729.412825
880.741248,-1110.308913,-888.247130,-10112.460574
880.741568,1110.308913,0.000000,-10035.851024
880.741888,2812.782580,222.061783,-10035.851024
880.742208,1998.556043,1258.350101,-10342.289223
880.742528,-444.123565,592.164754,-9806.022374
880.742848,-814.226536,1110.308913,-9959.241474
880.743168,-962.267725,1628.453072,-10495.508323
880.743488,74.020594,666.185348,-9576.193725
880.743808,1110.308913,-888.247130,-10035.851024
880.744128,1332.370696,-1776.494261,-9806.022374
880.744448,888.247130,-2368.659014,-9806.022374
880.744768,666.185348,-962.267725,-9499.584175
880.745088,0.000000,518.144159,-11414.822920
880.745408,-296.082377,1406.391290,-9959.241474
880.745728,-518.144159,1480.411884,-9882.631924
880.746048,-2738.761985,0.000000,-10265.679673
880.746368,-1702.473667,-1110.308913,-10112.460574
880.746688,-814.226536,-666.185348,-10189.070123
880.747008,148.041188,74.020594,-10342.289223
880.747328,2368.659014,444.123565,-10418.898773
880.747648,1480.411884,592.164754,-10035.851024
880.747968,1628.453072,592.164754,-11108.384721
880.748288,0.000000,-370.102971,-9806.022374
880.748608,-1628.453072,-148.041188,-10725.336972
880.748928,-1258.350101,0.000000,-10418.898773
880.749248,0.000000,296.082377,-10648.727422
880.749568,222.061783,518.144159,-10648.727422
880.749888,444.123565,518.144159,-10572.117872
880.750208,740.205942,518.144159,-10572.117872
880.750528,-518.144159,1036.288319,-10495.508323
880.750848,444.123565,1184.329507,-10495.508323
880.751168,-1258.350101,74.020594,-9729.412825
880.751488,-2072.576638,0.000000,-10648.727422
880.751808,-518.144159,-962.267725,-9652.803275
880.752128,666.185348,-592.164754,-9499.584175
880.752448,1258.350101,666.185348,-9806.022374
880.752768,296.082377,518.144159,-10035.851024
880.753088,2368.659014,74.020594,-9039.926876
880.753408,1998.556043,-740.205942,-10189.070123
880.753728,0.000000,-1406.391290,-9422.974625
880.754048,-1184.329507,-1480.411884,-8886.707777
880.754368,-888.247130,296.082377,-10035.851024
880.754688,222.061783,1850.514855,-9882.631924
880.755008,1628.453072,962.267725,-9652.803275
880.755328,3182.885551,-148.041188,-10418.898773
880.755648,1776.494261,-1628.453072,-10189.070123
880.755968,1480.411884,-1258.350101,-10418.898773
880.756288,1998.556043,518.144159,-10495.508323
880.756608,1998.556043,2220.617826,-9959.241474
880.756928,888.247130,3701.029710,-10572.117872
880.757248,518.144159,2812.782580,-11108.384721
880.757568,518.144159,1332.370696,-9882.631924
880.757888,1258.350101,-1406.391290,-10189.070123
880.758208,2664.741391,-814.226536,-10418.898773
880.758528,2812.782580,-1850.514855,-9652.803275
880.758848,2516.700203,1258.350101,-10418.898773
880.759168,1924.535449,2960.823768,-11031.775171
880.759488,814.226536,2960.823768,-10112.460574
880.759808,-1628.453072,2886.803174,-10495.508323
880.760128,-1184.329507,1332.370696,-9806.022374
880.760448,888.247130,-370.102971,-9576.193725
880.760768,1110.308913,-888.247130,-9806.022374
880.761088,222.061783,-222.061783,-10035.851024
880.761408,1480.411884,-222.061783,-9729.412825
880.761728,518.144159,592.164754,-9729.412825
880.762048,1406.391290,814.226536,-9959.241474
880.762368,1776.494261,1628.453072,-9882.631924
880.762688,0.000000,1628.453072,-10265.679673
880.763008,-592.164754,-296.082377,-9576.193725
880.763328,222.061783,0.000000,-9499.584175
880.763648,518.144159,74.020594,-9806.022374
880.763968,1924.535449,222.061783,-10418.898773
880.764288,2146.597232,740.205942,-10112.460574
880.764608,-370.102971,740.205942,-9959.241474
880.764928,-2072.576638,-1184.329507,-9959.241474
880.765248,-2368.659014,-592.164754,-9499.584175
880.765568,-592.164754,-222.061783,-10418.898773
880.765888,-666.185348,-222.061783,-10035.851024
880.766208,-888.247130,222.061783,-10035.851024
880.766528,-1110.308913,-148.041188,-10801.946522
880.766848,-1036.288319,444.123565,-9806.022374
880.767168,-1184.329507,1850.514855,-10418.898773
880.767488,-296.082377,444.123565,-10418.898773
880.767808,1036.288319,-148.041188,-9882.631924
880.768128,-148.041188,-1480.411884,-10112.460574
880.768448,-888.247130,-2146.597232,-10112.460574
880.768768,-2072.576638,-2220.617826,-9499.584175
880.769088,-962.267725,-1184.329507,-10342.289223
880.769408,1036.288319,666.185348,-9959.241474
880.769728,296.082377,888.247130,-10265.679673
880.770048,0.000000,1036.288319,-10725.336972
880.770368,-962.267725,-592.164754,-9882.631924
880.770688,-296.082377,-444.123565,-10112.460574
880.771008,-370.102971,-1776.494261,-9959.241474
880.771328,1184.329507,-2738.761985,-9959.241474
880.771648,518.144159,-2886.803174,-9346.365076
880.771968,1554.432478,-1850.514855,-10265.679673
880.772288,666.185348,2812.782580,-10572.117872
880.772608,222.061783,3404.947333,-10342.289223
880.772928,1554.432478,1850.514855,-10418.898773
880.773248,2072.576638,444.123565,-10265.679673
880.773568,1406.391290,-1554.432478,-10878.556072
880.773888,1776.494261,-1702.473667,-10189.070123
880.774208,1258.350101,-2072.576638,-9882.631924
880.774528,1036.288319,-814.226536,-10035.851024
880.774848,2220.617826,1110.308913,-9806.022374
880.775168,3775.050304,-222.061783,-9882.631924
880.775488,4885.359217,1776.494261,-10265.679673
880.775808,3627.009116,1554.432478,-10725.336972
880.776128,2664.741391,1184.329507,-10572.117872
880.776448,592.164754,1036.288319,-9346.365076
880.776768,296.082377,74.020594,-10342.289223
880.777088,1406.391290,-962.267725,-9039.926876
880.777408,2072.576638,-1184.329507,-10265.679673
880.777728,962.267725,0.000000,-9729.412825
880.778048,-370.102971,1258.350101,-9959.241474
880.778368,-1258.350101,592.164754,-9116.536426
880.778688,74.020594,222.061783,-10648.727422
880.779008,-296.082377,-592.164754,-9346.365076
880.779328,148.041188,-1036.288319,-9806.022374
880.779648,1184.329507,1258.350101,-10418.898773
880.779968,962.267725,1702.473667,-9882.631924
880.780288,2146.597232,1850.514855,-10342.289223
880.780608,2220.617826,2368.659014,-10495.508323
880.780928,814.226536,1258.350101,-10342.289223
880.781248,962.267725,2368.659014,-11108.384721
880.781568,-1332.370696,1480.411884,-10572.117872
880.781888,-1480.411884,0.000000,-9806.022374
880.782208,-1776.494261,74.020594,-10725.336972
880.782528,-1702.473667,-1258.350101,-9806.022374
880.782848,-222.061783,518.144159,-10189.070123
880.783168,-1184.329507,1258.350101,-10189.070123
880.783488,-518.144159,3775.050304,-11797.870669
880.783808,-222.061783,3552.988522,-10648.727422
880.784128,2442.679609,2590.720797,-10955.165621
880.784448,1776.494261,-1258.350101,-10112.460574
880.784768,740.205942,-2812.782580,-9652.803275
880.785088,518.144159,-2294.638420,-9806.022374
880.785408,296.082377,-1036.288319,-9959.241474
880.785728,370.102971,1628.453072,-9576.193725
880.786048,0.000000,2516.700203,-9959.241474
880.786368,1184.329507,2664.741391,-9882.631924
880.786688,1628.453072,0.000000,-10112.460574
880.787008,1184.329507,-814.226536,-10112.460574
880.787328,-1184.329507,-1554.432478,-9269.755526
880.787648,-814.226536,-1628.453072,-9116.536426
880.787968,0.000000,-814.226536,-9729.412825
880.788288,-592.164754,-1258.350101,-9576.193725
880.788608,-592.164754,518.144159,-9652.803275
880.788928,-1332.370696,2146.597232,-10418.898773
880.789248,148.041188,1776.494261,-10112.460574
880.789568,1406.391290,1406.391290,-10112.460574
880.789888,2368.659014,-370.102971,-10495.508323
880.790208,1924.535449,-2072.576638,-9729.412825
880.790528,1480.411884,-1628.453072,-10189.070123
880.790848,-518.144159,-296.082377,-10572.117872
880.791168,-962.267725,-1924.535449,-9729.412825
880.791488,740.205942,-592.164754,-10189.070123
880.791808,1924.535449,592.164754,-10418.898773
880.792128,2664.741391,1406.391290,-11797.870669
880.792448,1036.288319,2294.638420,-11414.822920
880.792768,-296.082377,1258.350101,-11031.775171
880.793088,-518.144159,-740.205942,-10265.679673
880.793408,0.000000,-1480.411884,-9652.803275
880.793728,444.123565,-2220.617826,-9882.631924
880.794048,666.185348,-888.247130,-10495.508323
880.794368,740.205942,2368.659014,-11491.432470
880.794688,1554.432478,3775.050304,-11184.994271
880.795008,2738.761985,2590.720797,-10342.289223
880.795328,1332.370696,1258.350101,-10495.508323
880.795648,2072.576638,-1332.370696,-10035.851024
880.795968,1998.556043,-2220.617826,-9269.755526
880.796288,444.123565,-1776.494261,-9652.803275
880.796608,-296.082377,-370.102971,-9882.631924
880.796928,-1406.391290,1702.473667,-9422.974625
880.797248,-296.082377,2072.576638,-10648.727422
880.797568,1776.494261,-592.164754,-9193.145976
880.797888,2516.700203,-370.102971,-9806.022374
880.798208,-296.082377,-2072.576638,-9576.193725
880.798528,-666.185348,-2220.617826,-9116.536426
880.798848,0.000000,-444.123565,-9499.584175
880.799168,0.000000,148.041188,-9729.412825
880.799488,0.000000,-962.267725,-9499.584175
880.799808,0.000000,-1184.329507,-10112.460574
880.800128,0.000000,148.041188,-10648.727422
880.800448,1110.308913,296.082377,-9806.022374
880.800768,1184.329507,1998.556043,-9959.241474
880.801088,1998.556043,1850.514855,-11108.384721
880.801408,2368.659014,1628.453072,-9959.241474
880.801728,1036.288319,148.041188,-10725.336972
880.802048,-1036.288319,814.226536,-10495.508323
880.802368,-1258.350101,148.041188,-10112.460574
880.802688,-222.061783,0.000000,-10572.117872
880.803008,888.247130,-370.102971,-10342.289223
880.803328,444.123565,814.226536,-10189.070123
880.803648,-888.247130,2072.576638,-11108.384721
880.803968,-1110.308913,2590.720797,-10189.070123
880.804288,148.041188,4441.235652,-10955.165621
880.804608,1258.350101,1776.494261,-10801.946522
880.804928,2886.803174,-1036.288319,-9806.022374
880.805248,-814.226536,-1924.535449,-9116.536426
880.805568,-1628.453072,-814.226536,-10342.289223
880.805888,-592.164754,-444.123565,-9806.022374
880.806208,444.123565,2146.597232,-9346.365076
880.806528,962.267725,2886.803174,-9882.631924
880.806848,1110.308913,2072.576638,-9499.584175
880.807168,296.082377,-222.061783,-9882.631924
880.807488,-518.144159,-1480.411884,-9806.022374
880.807808,-1554.432478,-740.205942,-9269.755526
880.808128,-592.164754,518.144159,-9882.631924
880.808448,0.000000,222.061783,-9806.022374
880.808768,1406.391290,-1480.411884,-9422.974625
880.809088,1406.391290,-1110.308913,-9576.193725
880.809408,74.020594,518.144159,-10265.679673
880.809728,0.000000,2738.761985,-10189.070123
880.810048,-1110.308913,3404.947333,-9806.022374
880.810368,888.247130,2738.761985,-10265.679673
880.810688,1480.411884,592.164754,-10265.679673
880.811008,-592.164754,-2590.720797,-9652.803275
880.811328,0.000000,-2294.638420,-10418.898773
880.811648,-222.061783,74.020594,-10035.851024
880.811968,1258.350101,888.247130,-11031.775171
880.812288,3478.967927,1776.494261,-10418.898773
880.812608,2664.741391,2220.617826,-10342.289223
880.812928,1036.288319,1628.453072,-10648.727422
880.813248,2590.720797,1332.370696,-10801.946522
880.813568,1332.370696,1184.329507,-9882.631924
880.813888,222.061783,1036.288319,-10418.898773
880.814208,888.247130,-74.020594,-9576.193725
880.814528,1554.432478,-1332.370696,-10112.460574
880.814848,888.247130,-1776.494261,-8810.098227
880.815168,444.123565,444.123565,-10648.727422
880.815488,148.041188,2368.659014,-10342.289223
880.815808,592.164754,3997.112087,-11184.994271
880.816128,814.226536,2886.803174,-9652.803275
880.816448,2442.679609,-296.082377,-9882.631924
880.816768,1924.535449,-1998.556043,-9652.803275
880.817088,1554.432478,-2146.597232,-9652.803275
880.817408,3404.947333,-592.164754,-9499.584175
880.817728,3182.885551,2072.576638,-10418.898773
880.818048,3256.906145,3034.844362,-10342.289223
880.818368,-444.123565,2294.638420,-9729.412825
880.818688,-518.144159,2886.803174,-10725.336972
880.819008,-740.205942,2072.576638,-10342.289223
880.819328,-148.041188,-1480.411884,-10725.336972
880.819648,-370.102971,-3182.885551,-9422.974625
880.819968,-962.267725,-3330.926739,-9652.803275
880.820288,-444.123565,-666.185348,-9806.022374
880.820608,-1628.453072,666.185348,-10418.898773
880.820928,-1332.370696,3330.926739,-9806.022374
880.821248,-814.226536,3627.009116,-10801.946522
880.821568,444.123565,2664.741391,-10342.289223
880.821888,2220.617826,-740.205942,-9806.022374
880.822208,370.102971,-3701.029710,-9882.631924
880.822528,518.144159,-3627.009116,-10189.070123
880.822848,-444.123565,-2442.679609,-9806.022374
880.823168,-888.247130,0.000000,-10265.679673
880.823488,518.144159,1406.391290,-10572.117872
880.823808,518.144159,1924.535449,-10418.898773
880.824128,-740.205942,1406.391290,-10878.556072
880.824448,-814.226536,148.041188,-10648.727422
880.824768,-1258.350101,518.144159,-9882.631924
880.825088,-1110.308913,-1480.411884,-10189.070123
880.825408,296.082377,-3034.844362,-10035.851024
880.825728,-370.102971,-4219.173869,-9806.022374
880.826048,-814.226536,-2368.659014,-10572.117872
880.826368,-1924.535449,0.000000,-10035.851024
880.826688,-2664.741391,1406.391290,-10265.679673
880.827008,-2738.761985,3256.906145,-11031.775171
880.827328,-1628.453072,2516.700203,-9959.241474
880.827648,1554.432478,74.020594,-10112.460574
880.827968,1110.308913,-3775.050304,-9959.241474
880.828288,1776.494261,-4589.276840,-9576.193725
880.828608,814.226536,-3108.864956,-9652.803275
880.828928,2220.617826,-888.247130,-10112.460574
880.829248,3256.906145,666.185348,-10112.460574
880.829568,1184.329507,814.226536,-10035.851024
880.829888,-1480.411884,2220.617826,-11031.775171
880.830208,-2886.803174,1258.350101,-9806.022374
880.830528,-1036.288319,148.041188,-10112.460574
880.830848,814.226536,-962.267725,-9959.241474
880.831168,2738.761985,-962.267725,-9959.241474
880.831488,1850.514855,-2368.659014,-9959.241474
880.831808,3108.864956,-1628.453072,-10265.679673
880.832128,2590.720797,0.000000,-9882.631924
880.832449,1850.514855,4145.153275,-10801.946522
880.832769,3034.844362,5255.462188,-10648.727422
880.833089,3997.112087,3182.885551,-10342.289223
880.833409,4959.379811,-222.061783,-10342.289223
880.833729,3182.885551,-1850.514855,-10189.070123
880.834049,1184.329507,-296.082377,-9806.022374
880.834369,1036.288319,1776.494261,-10878.556072
880.834689,1480.411884,2220.617826,-10648.727422
880.835009,1554.432478,2590.720797,-10418.898773
880.835329,-1110.308913,1184.329507,-9729.412825
880.835649,-888.247130,1628.453072,-10035.851024
880.835969,-1258.350101,1998.556043,-9576.193725
880.836289,1258.350101,1480.411884,-9269.755526
880.836609,1554.432478,-1332.370696,-9806.022374
880.836929,1406.391290,-3034.844362,-9422.974625
880.837249,-148.041188,-2664.741391,-9652.803275
880.837569,1036.288319,814.226536,-9193.145976
880.837889,1998.556043,2664.741391,-9499.584175
880.838209,1332.370696,4515.256246,-10878.556072
880.838529,-222.061783,3923.091493,-9576.193725
880.838849,-1184.329507,2886.803174,-9652.803275
880.839169,-1036.288319,-222.061783,-10955.165621
880.839489,-148.041188,-2368.659014,-9499.584175
880.839809,-370.102971,-2220.617826,-8810.098227
880.840129,-1184.329507,-296.082377,-9959.241474
880.840449,-666.185348,296.082377,-9499.584175
880.840770,370.102971,1628.453072,-10418.898773
880.841090,-222.061783,2368.659014,-10112.460574
880.841410,-370.102971,2960.823768,-9576.193725
880.841730,-1702.473667,4071.132681,-10495.508323
880.842050,370.102971,2072.576638,-10648.727422
880.842370,0.000000,-1258.350101,-10112.460574
880.842690,666.185348,-4367.215058,-9806.022374
880.843010,444.123565,-2516.700203,-10418.898773
880.843330,-888.247130,-1628.453072,-8427.050478
880.843650,-1110.308913,1332.370696,-10801.946522
880.843970,296.082377,3182.885551,-10878.556072
880.844290,444.123565,3923.091493,-10955.165621
880.844611,-1036.288319,3034.844362,-10572.117872
880.844931,-2886.803174,-296.082377,-10801.946522
880.845251,-1850.514855,-1554.432478,-9882.631924
880.845571,2442.679609,-1332.370696,-10725.336972
880.845891,5107.421000,-2220.617826,-10035.851024
880.846211,3256.906145,74.020594,-10572.117872
880.846531,1332.370696,-370.102971,-10572.117872
880.846851,-148.041188,1036.288319,-10572.117872
880.847171,-1258.350101,2294.638420,-9576.193725
880.847491,-444.123565,1850.514855,-11491.432470
880.847811,814.226536,666.185348,-10265.679673
880.848132,1776.494261,-1036.288319,-10035.851024
880.848452,2442.679609,-2516.700203,-10418.898773
880.848772,2590.720797,-1998.556043,-9499.584175
880.849092,962.267725,0.000000,-9882.631924
880.849412,2146.597232,962.267725,-10572.117872
880.849732,3256.906145,1110.308913,-9806.022374
880.850052,2590.720797,1184.329507,-10035.851024
880.850372,1110.308913,1110.308913,-10189.070123
880.850692,-1258.350101,222.061783,-9269.755526
880.851012,-1036.288319,-592.164754,-10112.460574
880.851332,1924.535449,-370.102971,-10648.727422
880.851653,2294.638420,74.020594,-10189.070123
880.851973,962.267725,666.185348,-10572.117872
880.852293,-148.041188,740.205942,-10342.289223
880.852613,-962.267725,148.041188,-8963.317327
880.852933,-296.082377,1110.308913,-10495.508323
880.853253,1110.308913,0.000000,-9959.241474
880.853573,2294.638420,-888.247130,-9652.803275
880.853893,888.247130,-148.041188,-9959.241474
880.854213,592.164754,-444.123565,-10342.289223
880.854533,-592.164754,962.267725,-10112.460574
880.854853,518.144159,1036.288319,-10725.336972
880.855173,1036.288319,370.102971,-9729.412825
880.855494,0.000000,740.205942,-9576.193725
880.855814,0.000000,0.000000,-10418.898773
880.856134,74.020594,-666.185348,-10801.946522
880.856454,-444.123565,-296.082377,-9882.631924
880.856774,740.205942,-518.144159,-10495.508323
880.857094,2294.638420,148.041188,-9729.412825
880.857414,1332.370696,592.164754,-10572.117872
880.857734,74.020594,1258.350101,-10955.165621
880.858054,-1184.329507,814.226536,-9806.022374
880.858374,-148.041188,444.123565,-9959.241474
880.858694,740.205942,-962.267725,-10035.851024
880.859015,888.247130,-2664.741391,-9269.755526
880.859335,444.123565,-814.226536,-10112.460574
880.859655,1036.288319,666.185348,-10342.289223
880.859975,0.000000,2886.803174,-9729.412825
880.860295,-888.247130,1776.494261,-10112.460574
880.860615,-222.061783,-592.164754,-9806.022374
880.860935,1332.370696,-2442.679609,-10112.460574
880.861255,370.102971,-3108.864956,-9116.536426
880.861575,-2590.720797,-2146.597232,-10112.460574
880.861895,-3330.926739,-370.102971,-9193.145976
880.862215,-1702.473667,222.061783,-10342.289223
880.862536,1036.288319,518.144159,-10112.460574
880.862856,1184.329507,296.082377,-9806.022374
880.863176,-1480.411884,444.123565,-10342.289223
880.863496,-2442.679609,-444.123565,-10189.070123
880.863816,-1184.329507,-962.267725,-9729.412825
880.864136,1480.411884,-1184.329507,-10725.336972
880.864456,2368.659014,-1998.556043,-10189.070123
880.864776,2738.761985,-1258.350101,-9959.241474
880.865096,2368.659014,444.123565,-10495.508323
880.865416,1776.494261,3108.864956,-11031.775171
880.865736,0.000000,3108.864956,-10495.508323
880.866056,-888.247130,1628.453072,-10265.679673
880.866377,-962.267725,-740.205942,-9499.584175
880.866697,296.082377,-1850.514855,-9882.631924
880.867017,2146.597232,-1702.473667,-10418.898773
880.867337,2368.659014,-1554.432478,-10265.679673
880.867657,0.000000,740.205942,-10572.117872
880.867977,222.061783,2146.597232,-10572.117872
880.868297,1924.535449,2590.720797,-10265.679673
880.868617,1036.288319,3034.844362,-10189.070123
880.868937,740.205942,1554.432478,-10725.336972
880.869257,444.123565,1184.329507,-9806.022374
880.869577,666.185348,740.205942,-10265.679673
880.869898,2590.720797,148.041188,-9959.241474
880.870218,4145.153275,0.000000,-9806.022374
880.870538,3775.050304,-962.267725,-9806.022374
880.870858,1924.535449,592.164754,-10342.289223
880.871178,1258.350101,1332.370696,-9039.926876
880.871498,592.164754,1850.514855,-10189.070123
880.871818,1480.411884,1776.494261,-10342.289223
880.872138,1776.494261,1110.308913,-10035.851024
880.872458,222.061783,444.123565,-9806.022374
880.872778,-370.102971,-148.041188,-9959.241474
880.873098,-370.102971,962.267725,-9576.193725
880.873419,1184.329507,1554.432478,-10342.289223
880.873739,1628.453072,1628.453072,-10189.070123
880.874059,1628.453072,222.061783,-9806.022374
880.874379,-740.205942,-888.247130,-10265.679673
880.874699,-1110.308913,-962.267725,-9039.926876
880.875019,-962.267725,592.164754,-9806.022374
880.875339,1036.288319,1036.288319,-10648.727422
880.875659,3330.926739,1924.535449,-10648.727422
880.875979,2368.659014,1332.370696,-10035.851024
880.876299,222.061783,666.185348,-10342.289223
880.876619,-814.226536,518.144159,-10342.289223
880.876940,-1554.432478,1406.391290,-9806.022374
880.877260,-888.247130,888.247130,-10189.070123
880.877580,962.267725,0.000000,-10035.851024
880.877900,444.123565,-740.205942,-10265.679673
880.878220,-370.102971,-370.102971,-10342.289223
880.878540,-888.247130,814.226536,-9729.412825
880.878860,-2072.576638,2886.803174,-9499.584175
880.879180,-1184.329507,1776.494261,-10725.336972
880.879500,-370.102971,74.020594,-9959.241474
880.879820,-222.061783,-2516.700203,-10112.460574
880.880140,-1850.514855,-2590.720797,-9806.022374
880.880460,-1332.370696,-1332.370696,-9499.584175
880.880781,444.123565,592.164754,-10112.460574
880.881101,2738.761985,2368.659014,-10495.508323
880.881421,2664.741391,1258.350101,-9882.631924
880.881741,74.020594,0.000000,-10342.289223
880.882061,-1332.370696,-1702.473667,-10189.070123
880.882381,-2220.617826,-1184.329507,-9652.803275
880.882701,-1036.288319,1406.391290,-10265.679673
880.883021,444.123565,74.020594,-10265.679673
880.883341,1406.391290,-814.226536,-9959.241474
880.883661,-666.185348,-2442.679609,-9729.412825
880.883981,-740.205942,-2368.659014,-10035.851024
880.884302,370.102971,-962.267725,-9652.803275
880.884622,1480.411884,-148.041188,-9882.631924
880.884942,1776.494261,666.185348,-10189.070123
880.885262,148.041188,-370.102971,-9806.022374
880.885582,-222.061783,-1554.432478,-10801.946522
880.885902,-222.061783,-2220.617826,-10112.460574
880.886222,-444.123565,-592.164754,-9729.412825
880.886542,0.000000,888.247130,-10801.946522
880.886862,3108.864956,518.144159,-10189.070123
880.887182,4885.359217,296.082377,-10495.508323
880.887502,3182.885551,-1036.288319,-12257.527968
880.887823,370.102971,-962.267725,-10112.460574
880.888143,-1998.556043,-1036.288319,-10035.851024
880.888463,-888.247130,518.144159,-10801.946522
880.888783,1776.494261,740.205942,-9882.631924
880.889103,3256.906145,1554.432478,-11491.432470
880.889423,2664.741391,1184.329507,-10878.556072
880.889743,1110.308913,740.205942,-10725.336972
880.890063,-592.164754,1036.288319,-9882.631924
880.890383,222.061783,2442.679609,-10265.679673
880.890703,1554.432478,444.123565,-9346.365076
880.891023,1850.514855,-444.123565,-10342.289223
880.891343,296.082377,-1258.350101,-10189.070123
880.891664,592.164754,-148.041188,-10112.460574
880.891984,1776.494261,1554.432478,-10265.679673
880.892304,2812.782580,3034.844362,-10342.289223
880.892624,1480.411884,1184.329507,-9729.412825
880.892944,-666.185348,1924.535449,-9959.241474
880.893264,-1036.288319,-222.061783,-10342.289223
880.893584,666.185348,0.000000,-9269.755526
880.893904,518.144159,-444.123565,-9959.241474
880.894224,1110.308913,-1628.453072,-9652.803275
880.894544,1702.473667,-1406.391290,-9039.926876
880.894864,1480.411884,1332.370696,-10418.898773
880.895185,148.041188,2442.679609,-10035.851024
880.895505,-888.247130,4959.379811,-10265.679673
880.895825,-888.247130,5033.400406,-10572.117872
880.896145,1184.329507,1406.391290,-10189.070123
880.896465,1406.391290,-1702.473667,-9269.755526
880.896785,-222.061783,-3330.926739,-10035.851024
880.897105,-962.267725,-2664.741391,-9576.193725
880.897425,2516.700203,1184.329507,-9039.926876
880.897745,1776.494261,3478.967927,-12180.918418
880.898065,814.226536,3701.029710,-9806.022374
880.898385,-2368.659014,1776.494261,-11031.775171
880.898706,-2738.761985,74.020594,-10495.508323
880.899026,-148.041188,-592.164754,-9499.584175
880.899346,0.000000,0.000000,-11031.775171
880.899666,518.144159,-296.082377,-10342.289223
880.899986,1628.453072,222.061783,-10495.508323
880.900306,740.205942,1628.453072,-10035.851024
880.900626,0.000000,962.267725,-10265.679673
880.900946,-296.082377,1258.350101,-10189.070123
880.901266,-2294.638420,518.144159,-9882.631924
880.901586,-1184.329507,0.000000,-10035.851024
880.901906,1258.350101,-1036.288319,-9422.974625
880.902226,962.267725,-1924.535449,-10342.289223
880.902547,-296.082377,-1998.556043,-10112.460574
880.902867,-2146.597232,-370.102971,-9193.145976
880.903187,-2072.576638,1406.391290,-10189.070123
880.903507,444.123565,1776.494261,-9959.241474
880.903827,2072.576638,444.123565,-9652.803275
880.904147,2516.700203,-962.267725,-10265.679673
880.904467,1776.494261,-2368.659014,-9422.974625
880.904787,0.000000,-1332.370696,-9499.584175
880.905107,-370.102971,-1184.329507,-9882.631924
880.905427,1184.329507,222.061783,-9729.412825
880.905747,2812.782580,888.247130,-9806.022374
880.906068,1924.535449,740.205942,-10648.727422
880.906388,-370.102971,-888.247130,-10418.898773
880.906708,-962.267725,74.020594,-9346.365076
880.907028,148.041188,1554.432478,-10725.336972
880.907348,2072.576638,2738.761985,-9116.536426
880.907668,2812.782580,1850.514855,-10342.289223
880.907988,1776.494261,-296.082377,-10725.336972
880.908308,1406.391290,-1184.329507,-9576.193725
880.908628,2294.638420,-444.123565,-10418.898773
880.908948,3182.885551,962.267725,-10418.898773
880.909268,2442.679609,592.164754,-10035.851024
880.909589,0.000000,814.226536,-10342.289223
880.909909,-888.247130,740.205942,-11031.775171
880.910229,-814.226536,1480.411884,-10112.460574
880.910549,0.000000,1628.453072,-10878.556072
880.910869,888.247130,1998.556043,-11108.384721
880.911189,2368.659014,1036.288319,-10342.289223
880.911509,1850.514855,-370.102971,-10878.556072
880.911829,296.082377,-814.226536,-10112.460574
880.912149,-740.205942,-222.061783,-9806.022374
880.912469,-740.205942,1110.308913,-10495.508323
880.912789,518.144159,2072.576638,-10342.289223
880.913110,814.226536,1850.514855,-10265.679673
880.913430,740.205942,888.247130,-10418.898773
880.913750,592.164754,-1184.329507,-9729.412825
880.914070,296.082377,-148.041188,-9652.803275
880.914390,296.082377,0.000000,-9882.631924
880.914710,-666.185348,-666.185348,-9652.803275
880.915030,-296.082377,-1406.391290,-9039.926876
880.915350,-370.102971,-740.205942,-9499.584175
880.915670,-1036.288319,0.000000,-9422.974625
880.915990,-666.185348,1406.391290,-9806.022374
880.916310,-1332.370696,1184.329507,-9729.412825
880.916630,592.164754,0.000000,-9422.974625
880.916951,2072.576638,-888.247130,-9576.193725
880.917271,1628.453072,-370.102971,-10572.117872
880.917591,-1258.350101,-444.123565,-9806.022374
880.917911,-4071.132681,666.185348,-9652.803275
880.918231,-2738.761985,1480.411884,-10572.117872
880.918551,74.020594,1184.329507,-9959.241474
880.918871,-740.205942,1628.453072,-9959.241474
880.919191,-666.185348,74.020594,-10725.336972
880.919511,-444.123565,1110.308913,-10878.556072
880.919831,148.041188,1110.308913,-10725.336972
880.920151,296.082377,1924.535449,-11797.870669
880.920472,518.144159,148.041188,-10495.508323
880.920792,-296.082377,0.000000,-10418.898773
880.921112,740.205942,592.164754,-11338.213370
880.921432,962.267725,1184.329507,-10265.679673
880.921752,-740.205942,2072.576638,-11951.089769
880.922072,370.102971,1184.329507,-10648.727422
880.922392,2960.823768,370.102971,-9959.241474
880.922712,3108.864956,888.247130,-9959.241474
880.923032,2146.597232,740.205942,-10112.460574
880.923352,0.000000,1924.535449,-9576.193725
880.923672,74.020594,1036.288319,-10495.508323
880.923993,1998.556043,-370.102971,-9882.631924
880.924313,2590.720797,-1110.308913,-9422.974625
880.924633,1110.308913,-148.041188,-9499.584175
880.924953,1406.391290,0.000000,-9806.022374
880.925273,2072.576638,1998.556043,-9652.803275
880.925593,1924.535449,2146.597232,-10265.679673
880.925913,2368.659014,1406.391290,-9346.365076
880.926233,2368.659014,-592.164754,-9422.974625
880.926553,1998.556043,-1110.308913,-9959.241474
880.926873,1998.556043,-1184.329507,-9729.412825
880.927193,592.164754,-370.102971,-9806.022374
880.927513,888.247130,0.000000,-10418.898773
880.927834,888.247130,296.082377,-9882.631924
880.928154,-148.041188,370.102971,-9806.022374
880.928474,-222.061783,1554.432478,-10648.727422
880.928794,-370.102971,1258.350101,-9806.022374
880.929114,0.000000,592.164754,-10495.508323
880.929434,222.061783,-222.061783,-10342.289223
880.929754,666.185348,-962.267725,-10495.508323
880.930074,592.164754,-1184.329507,-10572.117872
880.930394,740.205942,-444.123565,-10572.117872
880.930714,222.061783,592.164754,-10342.289223
880.931034,-370.102971,1554.432478,-10955.165621
880.931355,148.041188,1924.535449,-11108.384721
880.931675,1184.329507,1332.370696,-10495.508323
880.931995,518.144159,740.205942,-10189.070123
880.932315,-222.061783,0.000000,-10955.165621
880.932635,-518.144159,-518.144159,-9729.412825
880.932955,-666.185348,-888.247130,-10189.070123
880.933275,-740.205942,-370.102971,-9806.022374
880.933595,74.020594,296.082377,-9499.584175
880.933915,0.000000,1036.288319,-10189.070123
880.934235,0.000000,1258.350101,-10418.898773
880.934555,0.000000,814.226536,-9346.365076
880.934876,-1406.391290,1850.514855,-10342.289223
880.935196,-814.226536,0.000000,-9652.803275
880.935516,1258.350101,-2368.659014,-8963.317327
880.935836,1924.535449,-2812.782580,-9882.631924
880.936156,1110.308913,-2368.659014,-9116.536426
880.936476,-814.226536,-1258.350101,-8886.707777
880.936796,-740.205942,-444.123565,-9882.631924
880.937116,962.267725,0.000000,-9116.536426
880.937436,222.061783,0.000000,-9269.755526
880.937756,-962.267725,-518.144159,-10112.460574
880.938076,-1702.473667,-962.267725,-9652.803275
880.938396,-2368.659014,-444.123565,-10035.851024
880.938716,-1480.411884,148.041188,-10495.508323
880.939036,1184.329507,-740.205942,-9806.022374
880.939356,1924.535449,-1406.391290,-9959.241474
880.939676,74.020594,-1258.350101,-11108.384721
880.939996,-1332.370696,148.041188,-10648.727422
880.940316,-518.144159,2368.659014,-11338.213370
880.940636,2072.576638,3478.967927,-11261.603821
880.940956,3997.112087,2442.679609,-10955.165621
880.941276,2664.741391,1998.556043,-10955.165621
880.941596,2072.576638,296.082377,-9959.241474
880.941916,2590.720797,-518.144159,-10112.460574
880.942236,1702.473667,-222.061783,-10035.851024
880.942556,0.000000,-740.205942,-10725.336972
880.942876,1184.329507,-1332.370696,-9806.022374
880.943196,2442.679609,-296.082377,-9806.022374
880.943516,2368.659014,1628.453072,-10878.556072
880.943836,740.205942,3552.988522,-9806.022374
880.944156,444.123565,3997.112087,-10725.336972
880.944476,1776.494261,3034.844362,-10189.070123
880.944796,2368.659014,-148.041188,-9806.022374
880.945116,2220.617826,-518.144159,-9499.584175
880.945436,1258.350101,296.082377,-9729.412825
880.945756,518.144159,2072.576638,-8886.707777
880.946076,666.185348,4367.215058,-10035.851024
880.946396,2590.720797,4959.379811,-10112.460574
880.946716,3478.967927,3034.844362,-8886.707777
880.947037,3552.988522,518.144159,-9729.412825
880.947357,1332.370696,296.082377,-9806.022374
880.947677,0.000000,0.000000,-9499.584175
880.947997,592.164754,888.247130,-9269.755526
880.948317,3478.967927,2294.638420,-9806.022374
880.948637,4589.276840,2146.597232,-9806.022374
880.948957,3108.864956,2146.597232,-10112.460574
880.949277,1776.494261,2442.679609,-10648.727422
880.949597,2146.597232,4737.318029,-10418.898773
880.949917,2368.659014,5033.400406,-11414.822920
880.950237,2664.741391,3182.885551,-10648.727422
880.950557,1998.556043,148.041188,-10265.679673
880.950877,1110.308913,-1332.370696,-9806.022374
880.951197,1036.288319,1110.308913,-10035.851024
880.951517,2368.659014,3923.091493,-10801.946522
880.951837,2886.803174,6069.688724,-10801.946522
880.952157,2738.761985,6661.853478,-11031.775171
880.952477,3404.947333,4885.359217,-10342.289223
880.952797,2886.803174,3256.906145,-10878.556072
880.953117,1776.494261,1628.453072,-11108.384721
880.953437,1480.411884,1924.535449,-9959.241474
880.953757,1332.370696,2146.597232,-10035.851024
880.954077,666.185348,3552.988522,-9346.365076
880.954397,1628.453072,3256.906145,-9116.536426
880.954717,2590.720797,2812.782580,-9346.365076
880.955037,3108.864956,1554.432478,-9422.974625
880.955357,3997.112087,1998.556043,-9499.584175
880.955677,4737.318029,1406.391290,-9806.022374
880.955997,4071.132681,1702.473667,-9729.412825
880.956317,2516.700203,1702.473667,-9269.755526
880.956637,1332.370696,2812.782580,-9576.193725
880.956957,814.226536,4441.235652,-10112.460574
880.957277,814.226536,4515.256246,-11338.213370
880.957597,740.205942,4441.235652,-10342.289223
880.957917,814.226536,2516.700203,-10189.070123
880.958237,1554.432478,296.082377,-9882.631924
880.958557,1110.308913,-518.144159,-10035.851024
880.958877,1110.308913,-296.082377,-9806.022374
880.959197,3330.926739,666.185348,-10418.898773
880.959517,4441.235652,2812.782580,-10801.946522
880.959837,3701.029710,4441.235652,-11184.994271
880.960157,2516.700203,4811.338623,-10495.508323
880.960477,3627.009116,4367.215058,-11261.603821
880.960797,4367.215058,3775.050304,-11184.994271
880.961117,3775.050304,3552.988522,-11184.994271
880.961437,2294.638420,2294.638420,-10418.898773
880.961757,444.123565,1184.329507,-10189.070123
880.962077,666.185348,740.205942,-10112.460574
880.962397,666.185348,1036.288319,-10189.070123
880.962717,370.102971,1480.411884,-9806.022374
880.963037,2146.597232,2146.597232,-9806.022374
880.963357,3552.988522,3775.050304,-10035.851024
880.963677,4589.276840,3849.070898,-10265.679673
880.963997,3701.029710,2516.700203,-9806.022374
880.964317,4219.173869,1480.411884,-9652.803275
880.964637,5477.523971,592.164754,-9729.412825
880.964957,4885.359217,1998.556043,-9806.022374
880.965277,1554.432478,2516.700203,-9959.241474
880.965597,0.000000,3108.864956,-8963.317327
880.965917,1036.288319,2442.679609,-9193.145976
880.966237,2146.597232,1998.556043,-9806.022374
880.966557,2738.761985,1258.350101,-9806.022374
880.966878,1332.370696,518.144159,-9959.241474
880.967198,1480.411884,740.205942,-9806.022374
880.967518,1998.556043,888.247130,-9806.022374
880.967838,2146.597232,2072.576638,-10418.898773
880.968158,1184.329507,2886.803174,-10035.851024
880.968478,1406.391290,3330.926739,-10648.727422
880.968798,3404.947333,4219.173869,-10418.898773
880.969118,4589.276840,4441.235652,-10801.946522
880.969438,4589.276840,3775.050304,-11338.213370
880.969758,3997.112087,2516.700203,-11108.384721
880.970078,1998.556043,2072.576638,-11031.775171
880.970398,-296.082377,1406.391290,-10265.679673
880.970718,-1776.494261,1998.556043,-10112.460574
880.971038,-592.164754,1924.535449,-10418.898773
880.971358,1480.411884,1480.411884,-10189.070123
880.971678,2442.679609,1628.453072,-10189.070123
880.971998,1184.329507,2664.741391,-10189.070123
880.972318,1480.411884,3923.091493,-9806.022374
880.972638,2886.803174,4441.235652,-10572.117872
880.972958,4959.379811,3997.112087,-10265.679673
880.973278,4663.297435,2442.679609,-9422.974625
880.973598,2368.659014,1628.453072,-10265.679673
880.973918,222.061783,1332.370696,-9806.022374
880.974238,-888.247130,1628.453072,-9576.193725
880.974558,296.082377,2072.576638,-9652.803275
880.974878,2146.597232,1406.391290,-9499.584175
880.975198,2886.803174,1184.329507,-9499.584175
880.975518,3256.906145,1776.494261,-9882.631924
880.975838,3997.112087,2738.761985,-9346.365076
880.976158,3256.906145,4663.297435,-10189.070123
880.976478,2294.638420,4367.215058,-9806.022374
880.976798,3404.947333,2516.700203,-9652.803275
880.977118,4071.132681,814.226536,-9959.241474
880.977438,3627.009116,888.247130,-9882.631924
880.977758,2220.617826,1776.494261,-10035.851024
880.978078,1554.432478,3182.885551,-10572.117872
880.978398,1850.514855,3701.029710,-10418.898773
880.978718,1332.370696,3849.070898,-10342.289223
880.979038,1036.288319,1332.370696,-10035.851024
880.979358,2442.679609,518.144159,-9959.241474
880.979678,3997.112087,814.226536,-10418.898773
880.979998,4811.338623,2738.761985,-10342.289223
880.980318,5255.462188,4367.215058,-10572.117872
880.980638,5699.585753,5699.585753,-10648.727422
880.980958,5329.482782,5551.544565,-10878.556072
880.981278,2886.803174,5033.400406,-10878.556072
880.981598,0.000000,3108.864956,-10189.070123
880.981918,-1184.329507,1406.391290,-9959.241474
880.982238,74.020594,-592.164754,-10035.851024
880.982558,1480.411884,-1776.494261,-9652.803275
880.982878,1332.370696,-814.226536,-9039.926876
880.983198,1406.391290,1776.494261,-9422.974625
880.983518,3330.926739,4885.359217,-10112.460574
880.983838,5551.544565,7105.977043,-10265.679673
880.984158,6217.729913,6735.874072,-10418.898773
880.984478,4441.235652,5181.441594,-10265.679673
880.984798,2146.597232,2220.617826,-10035.851024
880.985118,-296.082377,518.144159,-9806.022374
880.985438,-1924.535449,-370.102971,-9422.974625
880.985758,-2812.782580,148.041188,-9116.536426
880.986078,-740.205942,74.020594,-9116.536426
880.986399,814.226536,666.185348,-9576.193725
880.986719,1850.514855,1628.453072,-9652.803275
880.987039,2886.803174,3108.864956,-9806.022374
880.987359,4959.379811,5033.400406,-10189.070123
880.987679,6365.771101,5551.544565,-10342.289223
880.987999,6365.771101,4959.379811,-10495.508323
880.988319,4441.235652,3775.050304,-10648.727422
880.988639,2220.617826,3108.864956,-11644.651570
880.988959,592.164754,2960.823768,-10725.336972
880.989279,-148.041188,2812.782580,-10342.289223
880.989599,-888.247130,2368.659014,-10265.679673
880.989919,-1480.411884,1184.329507,-10112.460574
880.990239,-2146.597232,0.000000,-9576.193725
880.990559,0.000000,0.000000,-9729.412825
880.990879,2294.638420,1332.370696,-9806.022374
880.991199,4811.338623,3034.844362,-9959.241474
880.991519,7624.121203,3701.029710,-10035.851024
880.991839,7846.182985,5551.544565,-10495.508323
880.992159,6809.894666,6069.688724,-10801.946522
880.992479,4663.297435,5847.626942,-10572.117872
880.992799,2368.659014,4737.318029,-10418.898773
880.993119,1036.288319,2960.823768,-10265.679673
880.993439,222.061783,814.226536,-9652.803275
880.993759,-518.144159,-814.226536,-9576.193725
880.994079,-1110.308913,-1258.350101,-9193.145976
880.994399,-1628.453072,222.061783,-9269.755526
880.994719,666.185348,1628.453072,-9652.803275
880.995039,3404.947333,3404.947333,-9959.241474
880.995359,5699.585753,4145.153275,-10112.460574
880.995679,6735.874072,3775.050304,-10572.117872
880.995999,6069.688724,3108.864956,-9806.022374
880.996319,4441.235652,2368.659014,-10035.851024
880.996639,2146.597232,2220.617826,-10189.070123
880.996959,0.000000,1480.411884,-9959.241474
880.997279,-1850.514855,592.164754,-10725.336972
880.997599,-2294.638420,-296.082377,-9882.631924
880.997919,-1702.473667,-888.247130,-9959.241474
880.998239,-740.205942,-518.144159,-10189.070123
880.998559,444.123565,370.102971,-9959.241474
880.998879,2220.617826,1850.514855,-10189.070123
880.999199,3997.112087,3478.967927,-10495.508323
880.999519,4811.338623,4367.215058,-10725.336972
880.999839,4441.235652,4811.338623,-10801.946522
881.000159,3627.009116,4367.215058,-11108.384721
881.000479,2812.782580,3552.988522,-10955.165621
881.000799,1554.432478,2368.659014,-10955.165621
881.001119,296.082377,1110.308913,-9959.241474
881.001439,-148.041188,148.041188,-9882.631924
881.001759,-444.123565,444.123565,-9882.631924
881.002079,1036.288319,888.247130,-10035.851024
881.002399,2368.659014,1850.514855,-10035.851024
881.002719,3330.926739,2960.823768,-10035.851024
881.003039,4737.318029,3627.009116,-9806.022374
881.003359,6365.771101,4367.215058,-10189.070123
881.003679,7624.121203,4589.276840,-10035.851024
881.003999,7402.059420,4959.379811,-10418.898773
881.004319,6143.709319,5181.441594,-9499.584175
881.004639,3404.947333,4885.359217,-10189.070123
881.004959,592.164754,3552.988522,-9806.022374
881.005279,-1406.391290,1850.514855,-9499.584175
881.005599,-1702.473667,0.000000,-9269.755526
881.005919,0.000000,-1110.308913,-8963.317327
881.006240,1332.370696,-962.267725,-9193.145976
881.006560,2738.761985,1110.308913,-9499.584175
881.006880,4145.153275,4071.132681,-9806.022374
881.007200,6069.688724,7624.121203,-10189.070123
881.007520,6735.874072,7920.203579,-10648.727422
881.007840,6513.812290,7772.162391,-10801.946522
881.008160,5107.421000,6143.709319,-10495.508323
881.008480,3849.070898,3923.091493,-10342.289223
881.008800,2516.700203,2368.659014,-10418.898773
881.009120,444.123565,2294.638420,-10265.679673
881.009440,-2516.700203,2442.679609,-9882.631924
881.009760,-3627.009116,2738.761985,-9806.022374
881.010080,-1554.432478,2368.659014,-10035.851024
881.010400,740.205942,2368.659014,-10189.070123
881.010720,2886.803174,1998.556043,-10112.460574
881.011040,3701.029710,2516.700203,-9959.241474
881.011360,4367.215058,4145.153275,-9806.022374
881.011680,4737.318029,5477.523971,-10342.289223
881.012000,5995.668130,6587.832884,-10648.727422
881.012320,6587.832884,6069.688724,-10648.727422
881.012640,4293.194464,4811.338623,-10418.898773
881.012960,370.102971,3256.906145,-9806.022374
881.013280,-2442.679609,1850.514855,-9806.022374
881.013600,-2960.823768,666.185348,-9806.022374
881.013920,-1850.514855,-444.123565,-9193.145976
881.014240,-962.267725,-740.205942,-9039.926876
881.014560,-148.041188,-296.082377,-8963.317327
881.014880,2442.679609,1110.308913,-9499.584175
881.015200,5625.565159,3775.050304,-9882.631924
881.015520,7254.018232,5995.668130,-10725.336972
881.015840,7105.977043,7624.121203,-10265.679673
881.016160,6143.709319,5847.626942,-10265.679673
881.016480,4589.276840,4071.132681,-10342.289223
881.016800,2368.659014,1332.370696,-9729.412825
881.017120,0.000000,0.000000,-10418.898773
881.017440,-148.041188,-888.247130,-9806.022374
881.017760,-518.144159,-740.205942,-9806.022374
881.018080,-1480.411884,444.123565,-9652.803275
881.018400,-814.226536,1702.473667,-9806.022374
881.018720,0.000000,2960.823768,-10418.898773
881.019040,4515.256246,3034.844362,-10572.117872
881.019360,6587.832884,2590.720797,-10648.727422
881.019680,7254.018232,3034.844362,-10725.336972
881.020000,7254.018232,3256.906145,-10801.946522
881.020320,4441.235652,4515.256246,-10801.946522
881.020640,2294.638420,4441.235652,-10495.508323
881.020960,74.020594,2738.761985,-10878.556072
881.021280,-444.123565,148.041188,-9882.631924
881.021600,0.000000,-1702.473667,-10418.898773
881.021920,0.000000,-2072.576638,-10418.898773
881.022240,-592.164754,-666.185348,-9806.022374
881.022560,-148.041188,1332.370696,-10112.460574
881.022880,1628.453072,3108.864956,-10342.289223
881.023200,4293.194464,3775.050304,-9729.412825
881.023520,5847.626942,3923.091493,-10495.508323
881.023840,7031.956449,3108.864956,-10418.898773
881.024160,5995.668130,3182.885551,-10342.289223
881.024480,3997.112087,3552.988522,-10418.898773
881.024800,2738.761985,2516.700203,-10572.117872
881.025120,1258.350101,1480.411884,-9806.022374
881.025440,-1406.391290,444.123565,-9882.631924
881.025761,-3627.009116,148.041188,-10112.460574
881.026081,-4885.359217,-370.102971,-9346.365076
881.026401,-2220.617826,-370.102971,-9652.803275
881.026721,2738.761985,0.000000,-9346.365076
881.027041,5107.421000,740.205942,-10801.946522
881.027361,4737.318029,2590.720797,-10725.336972
881.027681,4367.215058,4071.132681,-9576.193725
881.028001,5477.523971,6069.688724,-10801.946522
881.028321,7031.956449,6587.832884,-10648.727422
881.028641,5107.421000,5255.462188,-11108.384721
881.028961,1110.308913,3182.885551,-10495.508323
881.029281,-1850.514855,814.226536,-9576.193725
881.029601,-1776.494261,-296.082377,-9959.241474
881.029921,-370.102971,-1110.308913,-10035.851024
881.030241,-518.144159,-518.144159,-9806.022374
881.030561,0.000000,740.205942,-10035.851024
881.030881,3034.844362,1924.535449,-9882.631924
881.031201,6143.709319,4145.153275,-10572.117872
881.031521,7105.977043,6291.750507,-11338.213370
881.031841,5033.400406,7550.100608,-10495.508323
881.032161,3182.885551,7254.018232,-10265.679673
881.032481,4811.338623,5699.585753,-10418.898773
881.032801,6291.750507,2960.823768,-10342.289223
881.033121,4441.235652,2072.576638,-10342.289223
881.033441,962.267725,1628.453072,-10112.460574
881.033761,-592.164754,2072.576638,-9729.412825
881.034081,-2220.617826,2738.761985,-10265.679673
881.034401,-2442.679609,2960.823768,-9269.755526
881.034721,-1184.329507,2664.741391,-9193.145976
881.035041,2886.803174,2072.576638,-9729.412825
881.035361,6217.729913,2590.720797,-9806.022374
881.035681,6587.832884,3849.070898,-9806.022374
881.036001,6439.791695,5255.462188,-10112.460574
881.036321,7328.038826,5477.523971,-10342.289223
881.036641,6661.853478,5107.421000,-10648.727422
881.036961,3256.906145,4145.153275,-9806.022374
881.037281,-814.226536,3997.112087,-9806.022374
881.037601,-2072.576638,3701.029710,-10342.289223
881.037921,-1998.556043,2220.617826,-10035.851024
881.038241,-1628.453072,222.061783,-9422.974625
881.038561,-518.144159,-518.144159,-8656.879127
881.038881,1554.432478,0.000000,-9652.803275
881.039201,3034.844362,2516.700203,-10265.679673
881.039521,3775.050304,5477.523971,-10418.898773
881.039841,4737.318029,6735.874072,-9652.803275
881.040161,5181.441594,6439.791695,-10265.679673
881.040481,3997.112087,4663.297435,-10572.117872
881.040802,2812.782580,3108.864956,-10418.898773
881.041122,1110.308913,1332.370696,-10112.460574
881.041442,666.185348,1184.329507,-9576.193725
881.041762,0.000000,592.164754,-9806.022374
881.042082,-740.205942,740.205942,-10189.070123
881.042402,-1776.494261,-888.247130,-9806.022374
881.042722,-888.247130,-1258.350101,-10418.898773
881.043042,2146.597232,1110.308913,-10189.070123
881.043362,3627.009116,3256.906145,-10265.679673
881.043682,3108.864956,5551.544565,-10495.508323
881.044002,4367.215058,5181.441594,-10878.556072
881.044322,5329.482782,4145.153275,-10342.289223
881.044642,5773.606348,2220.617826,-10189.070123
881.044962,962.267725,1332.370696,-10648.727422
881.045282,-2368.659014,1036.288319,-9806.022374
881.045602,-1036.288319,370.102971,-9882.631924
881.045923,814.226536,222.061783,-9806.022374
881.046243,1110.308913,-222.061783,-9806.022374
881.046563,-1480.411884,-1480.411884,-9729.412825
881.046883,-1110.308913,-444.123565,-9499.584175
881.047203,2368.659014,666.185348,-10342.289223
881.047523,4515.256246,962.267725,-9882.631924
881.047843,6513.812290,0.000000,-9959.241474
881.048163,6661.853478,-222.061783,-9806.022374
881.048483,4367.215058,1406.391290,-10112.460574
881.048803,3108.864956,3923.091493,-10572.117872
881.049123,1036.288319,5625.565159,-11338.213370
881.049443,-1480.411884,4441.235652,-10418.898773
881.049763,-3182.885551,962.267725,-9806.022374
881.050083,-3627.009116,-3923.091493,-9959.241474
881.050403,-2812.782580,-5995.668130,-8963.317327
881.050724,-296.082377,-4293.194464,-9959.241474
881.051044,2590.720797,-740.205942,-10112.460574
881.051364,4367.215058,2220.617826,-10189.070123
881.051684,3775.050304,2294.638420,-9959.241474
881.052004,2960.823768,1406.391290,-10342.289223
881.052324,2442.679609,444.123565,-9806.022374
881.052644,2294.638420,1776.494261,-10265.679673
881.052964,2590.720797,814.226536,-11108.384721
881.053284,1036.288319,-444.123565,-10035.851024
881.053604,-1776.494261,-1480.411884,-10725.336972
881.053924,-2812.782580,-3108.864956,-9959.241474
881.054244,-4293.194464,-3404.947333,-9193.145976
881.054564,-5181.441594,-1850.514855,-10265.679673
881.054884,-4219.173869,-740.205942,-9959.241474
881.055204,-1776.494261,444.123565,-9806.022374
881.055524,1480.411884,2072.576638,-9882.631924
881.055845,5477.523971,1850.514855,-10112.460574
881.056165,6439.791695,1480.411884,-10189.070123
881.056485,4441.235652,1554.432478,-11184.994271
881.056805,3256.906145,888.247130,-10878.556072
881.057125,1998.556043,1110.308913,-9116.536426
881.057445,-1628.453072,2368.659014,-10801.946522
881.057765,-3923.091493,1036.288319,-9959.241474
881.058085,-5181.441594,-814.226536,-9959.241474
881.058405,-4145.153275,-1480.411884,-10878.556072
881.058725,-3627.009116,-3108.864956,-9499.584175
881.059045,-1850.514855,-1924.535449,-9193.145976
881.059365,666.185348,740.205942,-10725.336972
881.059685,2738.761985,2220.617826,-9959.241474
881.060005,3701.029710,3849.070898,-10342.289223
881.060325,3330.926739,4515.256246,-11261.603821
881.060645,2664.741391,1924.535449,-9806.022374
881.060966,1850.514855,740.205942,-9729.412825
881.061286,1184.329507,-370.102971,-10495.508323
881.061606,-370.102971,-666.185348,-9346.365076
881.061926,-1258.350101,-518.144159,-9652.803275
881.062246,-1924.535449,-666.185348,-10265.679673
881.062566,-2146.597232,-444.123565,-8810.098227
881.062886,-2072.576638,-148.041188,-9422.974625
881.063206,-740.205942,444.123565,-9959.241474
881.063526,1110.308913,592.164754,-9116.536426
881.063846,2146.597232,1480.411884,-10112.460574
881.064166,3775.050304,2072.576638,-9806.022374
881.064486,4515.256246,2516.700203,-9806.022374
881.064806,3923.091493,3330.926739,-10801.946522
881.065126,2886.803174,2886.803174,-10648.727422
881.065446,1332.370696,2146.597232,-9729.412825
881.065766,-1628.453072,962.267725,-10418.898773
881.066087,-3404.947333,-592.164754,-10495.508323
881.066407,-3182.885551,-1776.494261,-9116.536426
881.066727,-1554.432478,-740.205942,-10189.070123
881.067047,296.082377,148.041188,-10265.679673
881.067367,962.267725,0.000000,-9652.803275
881.067687,888.247130,592.164754,-10495.508323
881.068007,3034.844362,518.144159,-10342.289223
881.068327,3849.070898,1184.329507,-10648.727422
881.068647,3701.029710,2516.700203,-11568.042020
881.068967,2812.782580,3552.988522,-10955.165621
881.069287,1702.473667,3775.050304,-10342.289223
881.069607,0.000000,2368.659014,-11108.384721
881.069927,-148.041188,-296.082377,-10035.851024
881.070247,-370.102971,-1850.514855,-9729.412825
881.070567,-1554.432478,-3034.844362,-10265.679673
881.070887,-1850.514855,-3627.009116,-9422.974625
881.071208,-1406.391290,-1850.514855,-9499.584175
881.071528,222.061783,296.082377,-10342.289223
881.071848,3775.050304,2146.597232,-9729.412825
881.072168,4737.318029,2664.741391,-10572.117872
881.072488,3627.009116,2442.679609,-10955.165621
881.072808,2442.679609,1998.556043,-9959.241474
881.073128,1554.432478,1406.391290,-10418.898773
881.073448,1036.288319,148.041188,-9959.241474
