#time,accel_x,accel_y,accel_z
887.829018,370.102971,518.144159,-9959.241474
887.829338,592.164754,518.144159,-10189.070123
887.829658,814.226536,222.061783,-10265.679673
887.829978,962.267725,0.000000,-9959.241474
887.830298,666.185348,0.000000,-9729.412825
887.830618,444.123565,0.000000,-10035.851024
887.830938,148.041188,0.000000,-10035.851024
887.831258,296.082377,592.164754,-9959.241474
887.831579,222.061783,444.123565,-10112.460574
887.831899,740.205942,222.061783,-10035.851024
887.832219,888.247130,148.041188,-9806.022374
887.832539,888.247130,0.000000,-10265.679673
887.832859,592.164754,222.061783,-10189.070123
887.833179,222.061783,0.000000,-9959.241474
887.833499,444.123565,74.020594,-10035.851024
887.833819,592.164754,74.020594,-10112.460574
887.834139,444.123565,222.061783,-10189.070123
887.834459,148.041188,148.041188,-9269.755526
887.834779,370.102971,-148.041188,-9959.241474
887.835100,518.144159,0.000000,-9959.241474
887.835420,592.164754,296.082377,-10342.289223
887.835740,370.102971,370.102971,-10189.070123
887.836060,592.164754,444.123565,-10035.851024
887.836380,814.226536,296.082377,-9959.241474
887.836700,814.226536,148.041188,-10418.898773
887.837020,148.041188,-74.020594,-10035.851024
887.837340,0.000000,-444.123565,-9652.803275
887.837660,-592.164754,-666.185348,-9882.631924
887.837980,-296.082377,-740.205942,-9959.241474
887.838300,-962.267725,-222.061783,-10189.070123
887.838621,-814.226536,-518.144159,-10265.679673
887.838941,-518.144159,-518.144159,-9959.241474
887.839261,0.000000,-666.185348,-10035.851024
887.839581,-888.247130,-1406.391290,-9882.631924
887.839901,-1036.288319,-1554.432478,-9806.022374
887.840221,-370.102971,-1554.432478,-10725.336972
887.840541,-296.082377,-1258.350101,-9652.803275
887.840861,-1406.391290,-1406.391290,-10035.851024
887.841181,-1998.556043,-1702.473667,-9882.631924
887.841501,-1480.411884,-1924.535449,-9039.926876
887.841821,-444.123565,-1850.514855,-10189.070123
887.842142,-740.205942,-1480.411884,-9806.022374
887.842462,-1702.473667,-2146.597232,-10035.851024
887.842782,-1924.535449,-2072.576638,-10035.851024
887.843102,-1110.308913,-2220.617826,-10112.460574
887.843422,-518.144159,-1332.370696,-10342.289223
887.843742,-1332.370696,-1628.453072,-10265.679673
887.844062,-2738.761985,-2590.720797,-10495.508323
887.844382,-2590.720797,-3701.029710,-9652.803275
887.844702,-2738.761985,-3182.885551,-10035.851024
887.845022,-2368.659014,-2960.823768,-9959.241474
887.845343,-2368.659014,-3108.864956,-10342.289223
887.845663,-2368.659014,-2886.803174,-9806.022374
887.845983,-1036.288319,-2516.700203,-10112.460574
887.846303,296.082377,-1850.514855,-10495.508323
887.846623,666.185348,-1110.308913,-10572.117872
887.846943,-296.082377,-592.164754,-10648.727422
887.847263,-1258.350101,-1036.288319,-10572.117872
887.847583,-2738.761985,-1850.514855,-10112.460574
887.847903,-4145.153275,-2738.761985,-10189.070123
887.848223,-5477.523971,-3701.029710,-9806.022374
887.848543,-5107.421000,-4737.318029,-9729.412825
887.848864,-3552.988522,-5625.565159,-9346.365076
887.849184,-1036.288319,-4959.379811,-9882.631924
887.849504,370.102971,-3330.926739,-9882.631924
887.849824,1258.350101,-1258.350101,-9959.241474
887.850144,2664.741391,0.000000,-10265.679673
887.850464,2368.659014,1628.453072,-10725.336972
887.850784,2072.576638,814.226536,-10418.898773
887.851104,518.144159,-592.164754,-10035.851024
887.851424,-1110.308913,-1776.494261,-10189.070123
887.851744,-2738.761985,-3701.029710,-9882.631924
887.852064,-4663.297435,-3997.112087,-10112.460574
887.852385,-5551.544565,-4219.173869,-9576.193725
887.852705,-4885.359217,-4663.297435,-9422.974625
887.853025,-1480.411884,-4589.276840,-9499.584175
887.853345,1258.350101,-3775.050304,-9882.631924
887.853665,2368.659014,-1924.535449,-10112.460574
887.853985,2812.782580,666.185348,-10265.679673
887.854305,3701.029710,2812.782580,-10648.727422
887.854625,3552.988522,3478.967927,-11338.213370
887.854945,1480.411884,2442.679609,-11108.384721
887.855265,-2664.741391,-222.061783,-10648.727422
887.855585,-5477.523971,-3478.967927,-9882.631924
887.855906,-6069.688724,-5699.585753,-10801.946522
887.856226,-4959.379811,-7254.018232,-9652.803275
887.856546,-4219.173869,-6735.874072,-9039.926876
887.856866,-2738.761985,-4145.153275,-9346.365076
887.857186,-444.123565,-1184.329507,-8810.098227
887.857506,2072.576638,1554.432478,-10572.117872
887.857826,2368.659014,3478.967927,-10801.946522
887.858146,2220.617826,3997.112087,-10725.336972
887.858466,2368.659014,1924.535449,-10648.727422
887.858786,2442.679609,-1258.350101,-10495.508323
887.859106,-740.205942,-3108.864956,-10035.851024
887.859427,-3775.050304,-3849.070898,-9729.412825
887.859747,-5403.503377,-2960.823768,-9806.022374
887.860067,-5625.565159,-1628.453072,-9576.193725
887.860387,-6883.915261,-2442.679609,-9806.022374
887.860707,-7402.059420,-3701.029710,-9039.926876
887.861027,-4885.359217,-4737.318029,-9193.145976
887.861347,-148.041188,-3256.906145,-10112.460574
887.861667,3182.885551,-1332.370696,-10648.727422
887.861987,2812.782580,2146.597232,-10801.946522
887.862307,1702.473667,4071.132681,-10725.336972
887.862628,1110.308913,4515.256246,-10265.679673
887.862948,1702.473667,2960.823768,-10112.460574
887.863268,296.082377,-518.144159,-10495.508323
887.863588,-2812.782580,-3256.906145,-10342.289223
887.863908,-5625.565159,-5403.503377,-9959.241474
887.864228,-7476.080014,-5995.668130,-9576.193725
887.864548,-7476.080014,-4367.215058,-9193.145976
887.864868,-5625.565159,-3923.091493,-9346.365076
887.865188,-1480.411884,-4515.256246,-9039.926876
887.865508,2220.617826,-3330.926739,-10035.851024
887.865828,3552.988522,-1998.556043,-10495.508323
887.866149,2886.803174,0.000000,-10189.070123
887.866469,3330.926739,1776.494261,-10878.556072
887.866789,3775.050304,3034.844362,-10725.336972
887.867109,2368.659014,2590.720797,-10801.946522
887.867429,-1332.370696,666.185348,-11108.384721
887.867749,-4885.359217,-1850.514855,-10572.117872
887.868069,-7105.977043,-5403.503377,-10189.070123
887.868389,-7031.956449,-7328.038826,-9499.584175
887.868709,-5329.482782,-7920.203579,-9039.926876
887.869029,-4811.338623,-7772.162391,-9422.974625
887.869349,-3775.050304,-5107.421000,-9422.974625
887.869670,-518.144159,-2516.700203,-9729.412825
887.869990,3775.050304,888.247130,-9882.631924
887.870310,7254.018232,2812.782580,-11184.994271
887.870630,5995.668130,2886.803174,-11031.775171
887.870950,1924.535449,1628.453072,-10878.556072
887.871270,-1258.350101,-1702.473667,-9882.631924
887.871590,-3256.906145,-4219.173869,-9422.974625
887.871910,-3997.112087,-6513.812290,-9499.584175
887.872230,-7105.977043,-6957.935855,-9422.974625
887.872550,-8512.368333,-7031.956449,-8656.879127
887.872870,-6587.832884,-5995.668130,-7814.174080
887.873191,-2812.782580,-4589.276840,-9806.022374
887.873511,-444.123565,-2812.782580,-9729.412825
887.873831,-444.123565,-1184.329507,-10342.289223
887.874151,-518.144159,-666.185348,-9652.803275
887.874471,1628.453072,444.123565,-10265.679673
887.874791,3775.050304,666.185348,-11031.775171
887.875111,2072.576638,1036.288319,-11108.384721
887.875431,0.000000,222.061783,-10878.556072
887.875751,-1332.370696,-1554.432478,-10495.508323
887.876071,-2368.659014,-3108.864956,-10572.117872
887.876391,-4515.256246,-3701.029710,-10112.460574
887.876712,-7254.018232,-4885.359217,-10189.070123
887.877032,-6069.688724,-3923.091493,-9652.803275
887.877352,-4811.338623,-3478.967927,-9729.412825
887.877672,-2368.659014,-2960.823768,-9729.412825
887.877992,518.144159,-2368.659014,-9959.241474
887.878312,2368.659014,-1332.370696,-10418.898773
887.878632,2294.638420,962.267725,-11184.994271
887.878952,814.226536,2294.638420,-10648.727422
887.879272,1628.453072,962.267725,-9959.241474
887.879592,2516.700203,74.020594,-10189.070123
887.879913,2960.823768,-1480.411884,-9882.631924
887.880233,444.123565,-2590.720797,-10265.679673
887.880553,-1776.494261,-3627.009116,-9806.022374
887.880873,-4737.318029,-3701.029710,-10342.289223
887.881193,-3997.112087,-3997.112087,-9652.803275
887.881513,-4145.153275,-3923.091493,-9193.145976
887.881833,-2738.761985,-2590.720797,-9116.536426
887.882153,-1776.494261,-2294.638420,-10189.070123
887.882473,1184.329507,-1850.514855,-9806.022374
887.882793,3552.988522,222.061783,-10878.556072
887.883113,814.226536,2368.659014,-10495.508323
887.883434,-1998.556043,2294.638420,-10342.289223
887.883754,-1628.453072,740.205942,-10265.679673
887.884074,-888.247130,-1628.453072,-9882.631924
887.884394,-1258.350101,-2960.823768,-9882.631924
887.884714,-2738.761985,-4219.173869,-9882.631924
887.885034,-3627.009116,-3923.091493,-9729.412825
887.885354,-3775.050304,-2812.782580,-10189.070123
887.885674,-1702.473667,-962.267725,-9652.803275
887.885994,-592.164754,-444.123565,-10112.460574
887.886315,0.000000,-2294.638420,-10189.070123
887.886635,296.082377,-222.061783,-10648.727422
887.886955,1258.350101,1702.473667,-10801.946522
887.887275,2072.576638,2664.741391,-10725.336972
887.887595,1480.411884,1998.556043,-10572.117872
887.887915,-518.144159,1554.432478,-10112.460574
887.888236,-2294.638420,-1924.535449,-10189.070123
887.888556,-3034.844362,-3330.926739,-9882.631924
887.888876,-3478.967927,-3849.070898,-10035.851024
887.889196,-3849.070898,-4071.132681,-9499.584175
887.889516,-3775.050304,-3256.906145,-9959.241474
887.889836,-2442.679609,-1332.370696,-9346.365076
887.890157,-518.144159,-666.185348,-9806.022374
887.890477,1036.288319,-148.041188,-10418.898773
887.890797,3775.050304,1924.535449,-10495.508323
887.891117,3849.070898,3108.864956,-10725.336972
887.891437,2886.803174,2368.659014,-9652.803275
887.891757,2294.638420,74.020594,-9806.022374
887.892078,2146.597232,-1258.350101,-10265.679673
887.892398,0.000000,-2368.659014,-9729.412825
887.892718,-4293.194464,-1702.473667,-10495.508323
887.893038,-6661.853478,-2812.782580,-9729.412825
887.893358,-5995.668130,-4071.132681,-9346.365076
887.893678,-1110.308913,-2664.741391,-9422.974625
887.893999,814.226536,-3182.885551,-9576.193725
887.894319,3849.070898,-3627.009116,-9806.022374
887.894639,2072.576638,-2146.597232,-10342.289223
887.894959,1554.432478,666.185348,-9806.022374
887.895279,296.082377,3182.885551,-10035.851024
887.895599,1332.370696,3182.885551,-10418.898773
887.895920,3182.885551,1554.432478,-10572.117872
887.896240,1998.556043,-1036.288319,-10801.946522
887.896560,1184.329507,-2664.741391,-10572.117872
887.896880,-1924.535449,-1554.432478,-10189.070123
887.897200,-5033.400406,-370.102971,-10112.460574
887.897521,-4145.153275,0.000000,-9806.022374
887.897841,-1406.391290,-518.144159,-9652.803275
887.898161,1998.556043,-2368.659014,-10189.070123
887.898481,3182.885551,-1628.453072,-10648.727422
887.898801,1998.556043,1258.350101,-10878.556072
887.899121,2368.659014,3108.864956,-11568.042020
887.899442,2294.638420,4293.194464,-10572.117872
887.899762,2146.597232,4219.173869,-11184.994271
887.900082,1258.350101,1702.473667,-11184.994271
887.900402,-2812.782580,-1480.411884,-10189.070123
887.900722,-2886.803174,-3034.844362,-9959.241474
887.901042,-2960.823768,-3923.091493,-9116.536426
887.901363,370.102971,-3034.844362,-8810.098227
887.901683,2886.803174,-1554.432478,-9882.631924
887.902003,2960.823768,-2368.659014,-9576.193725
887.902323,1776.494261,-1110.308913,-9499.584175
887.902643,222.061783,666.185348,-9576.193725
887.902963,1554.432478,1998.556043,-9422.974625
887.903284,3108.864956,3034.844362,-9499.584175
887.903604,4071.132681,1702.473667,-10418.898773
887.903924,4811.338623,-222.061783,-9806.022374
887.904244,1480.411884,-814.226536,-9806.022374
887.904564,-444.123565,-1332.370696,-9729.412825
887.904884,-148.041188,370.102971,-9499.584175
887.905205,-1554.432478,74.020594,-9806.022374
887.905525,-1850.514855,-1702.473667,-9576.193725
887.905845,814.226536,-3182.885551,-8963.317327
887.906165,592.164754,-2442.679609,-10572.117872
887.906485,1258.350101,-222.061783,-10342.289223
887.906806,1036.288319,2294.638420,-10725.336972
887.907126,1554.432478,4737.318029,-10955.165621
887.907446,2590.720797,5921.647536,-10725.336972
887.907766,1924.535449,2812.782580,-11414.822920
887.908086,1332.370696,1480.411884,-10725.336972
887.908406,1110.308913,0.000000,-10725.336972
887.908727,-296.082377,-888.247130,-10342.289223
887.909047,-592.164754,0.000000,-10648.727422
887.909367,-2368.659014,296.082377,-9806.022374
887.909687,-3330.926739,-1258.350101,-9959.241474
887.910007,-2516.700203,-518.144159,-10495.508323
887.910327,-2738.761985,-1332.370696,-9882.631924
887.910648,0.000000,-666.185348,-9959.241474
887.910968,3034.844362,814.226536,-10112.460574
887.911288,1258.350101,2664.741391,-10725.336972
887.911608,-444.123565,3034.844362,-10955.165621
887.911928,296.082377,2368.659014,-10648.727422
887.912248,148.041188,1628.453072,-10189.070123
887.912569,370.102971,296.082377,-10035.851024
887.912889,-740.205942,-592.164754,-9806.022374
887.913209,-1702.473667,-1924.535449,-9882.631924
887.913529,-2442.679609,-1998.556043,-9269.755526
887.913849,-1998.556043,-2368.659014,-9882.631924
887.914169,-222.061783,-1998.556043,-9959.241474
887.914490,74.020594,-518.144159,-9806.022374
887.914810,666.185348,2368.659014,-10265.679673
887.915130,1332.370696,2886.803174,-9806.022374
887.915450,2368.659014,4367.215058,-9806.022374
887.915770,2442.679609,4293.194464,-11568.042020
887.916090,2368.659014,2590.720797,-9882.631924
887.916411,2812.782580,-1480.411884,-10418.898773
887.916731,2072.576638,-1702.473667,-9729.412825
887.917051,444.123565,-2442.679609,-9269.755526
887.917371,-1480.411884,-370.102971,-9499.584175
887.917691,-962.267725,592.164754,-9499.584175
887.918012,0.000000,0.000000,-10265.679673
887.918332,2368.659014,1036.288319,-10342.289223
887.918652,3182.885551,666.185348,-10265.679673
887.918972,1776.494261,74.020594,-10035.851024
887.919292,2368.659014,-740.205942,-10265.679673
887.919612,3182.885551,1184.329507,-10035.851024
887.919933,3256.906145,4071.132681,-11184.994271
887.920253,2442.679609,2960.823768,-11184.994271
887.920573,1184.329507,666.185348,-10801.946522
887.920893,-518.144159,-1332.370696,-10418.898773
887.921213,-1258.350101,-2294.638420,-9499.584175
887.921533,444.123565,-2812.782580,-9652.803275
887.921854,1480.411884,-2442.679609,-10112.460574
887.922174,1628.453072,-740.205942,-10112.460574
887.922494,962.267725,1628.453072,-10495.508323
887.922814,1406.391290,2960.823768,-10495.508323
887.923134,2886.803174,2590.720797,-10035.851024
887.923454,3627.009116,2294.638420,-10725.336972
887.923775,3627.009116,592.164754,-10112.460574
887.924095,1850.514855,0.000000,-9806.022374
887.924415,-1036.288319,-222.061783,-9806.022374
887.924735,-1480.411884,-1628.453072,-9116.536426
887.925055,-1924.535449,-1702.473667,-9346.365076
887.925375,-2960.823768,-518.144159,-9959.241474
887.925696,-2886.803174,370.102971,-9729.412825
887.926016,-1036.288319,740.205942,-9959.241474
887.926336,296.082377,148.041188,-10342.289223
887.926656,370.102971,-814.226536,-9193.145976
887.926976,1998.556043,-1998.556043,-9652.803275
887.927296,1554.432478,-1480.411884,-10189.070123
887.927617,814.226536,518.144159,-10265.679673
887.927937,-1258.350101,2738.761985,-10801.946522
887.928257,-1850.514855,2812.782580,-10572.117872
887.928577,-2220.617826,222.061783,-9882.631924
887.928897,-2516.700203,-740.205942,-10418.898773
887.929218,-1998.556043,-1998.556043,-10112.460574
887.929538,-2738.761985,-1924.535449,-10342.289223
887.929858,-3182.885551,-2072.576638,-10418.898773
887.930178,74.020594,-1924.535449,-9882.631924
887.930498,1480.411884,-1110.308913,-9882.631924
887.930818,1406.391290,2812.782580,-11108.384721
887.931139,74.020594,2368.659014,-10955.165621
887.931459,74.020594,1628.453072,-10878.556072
887.931779,-148.041188,2368.659014,-10801.946522
887.932099,-518.144159,296.082377,-9959.241474
887.932419,2368.659014,-1480.411884,-10112.460574
887.932739,2442.679609,-2072.576638,-10035.851024
887.933060,-666.185348,-1554.432478,-9959.241474
887.933380,-1850.514855,-518.144159,-9576.193725
887.933700,-1406.391290,-370.102971,-9422.974625
887.934020,0.000000,1036.288319,-9806.022374
887.934340,2072.576638,2072.576638,-9959.241474
887.934660,2738.761985,370.102971,-9729.412825
887.934981,3997.112087,222.061783,-9422.974625
887.935301,3478.967927,0.000000,-9806.022374
887.935621,3849.070898,1110.308913,-9499.584175
887.935941,5255.462188,-1702.473667,-9346.365076
887.936261,2960.823768,-2294.638420,-9729.412825
887.936581,740.205942,2072.576638,-8886.707777
887.936902,-1480.411884,2738.761985,-10265.679673
887.937222,814.226536,4441.235652,-10725.336972
887.937542,592.164754,3034.844362,-10342.289223
887.937862,1406.391290,148.041188,-10572.117872
887.938182,1110.308913,-3034.844362,-9499.584175
887.938503,814.226536,-4885.359217,-9959.241474
887.938823,1776.494261,-4441.235652,-9039.926876
887.939143,2368.659014,-1258.350101,-10265.679673
887.939463,3330.926739,3108.864956,-10265.679673
887.939783,3256.906145,6069.688724,-12257.527968
887.940103,1036.288319,5403.503377,-11797.870669
887.940424,-740.205942,3627.009116,-10572.117872
887.940744,-370.102971,296.082377,-10572.117872
887.941064,0.000000,-2146.597232,-9729.412825
887.941384,1332.370696,-2516.700203,-10648.727422
887.941704,296.082377,-2146.597232,-10342.289223
887.942024,-1776.494261,-592.164754,-10648.727422
887.942345,-518.144159,2146.597232,-10342.289223
887.942665,-1184.329507,3849.070898,-10265.679673
887.942985,148.041188,4515.256246,-10725.336972
887.943305,1110.308913,3552.988522,-9806.022374
887.943625,74.020594,370.102971,-10648.727422
887.943945,-296.082377,-518.144159,-9729.412825
887.944266,1850.514855,-1332.370696,-9806.022374
887.944586,1258.350101,-1480.411884,-9422.974625
887.944906,1110.308913,-2072.576638,-9576.193725
887.945226,0.000000,0.000000,-9269.755526
887.945546,-2664.741391,1776.494261,-9652.803275
887.945866,-2738.761985,1998.556043,-9576.193725
887.946187,370.102971,962.267725,-9652.803275
887.946507,2664.741391,-666.185348,-9422.974625
887.946827,3182.885551,-1406.391290,-9882.631924
887.947147,1332.370696,-592.164754,-9729.412825
887.947467,-370.102971,0.000000,-10112.460574
887.947787,-148.041188,814.226536,-9882.631924
887.948108,1332.370696,740.205942,-10725.336972
887.948428,666.185348,296.082377,-9882.631924
887.948748,-148.041188,0.000000,-10035.851024
887.949068,-444.123565,962.267725,-11184.994271
887.949388,370.102971,740.205942,-10801.946522
887.949709,-148.041188,1702.473667,-10572.117872
887.950029,-370.102971,2886.803174,-11108.384721
887.950349,-222.061783,2886.803174,-10955.165621
887.950669,-666.185348,3034.844362,-11108.384721
887.950989,-1776.494261,1998.556043,-10725.336972
887.951309,-1702.473667,296.082377,-10112.460574
887.951630,-666.185348,-962.267725,-9806.022374
887.951950,1702.473667,-2072.576638,-10035.851024
887.952270,2072.576638,-962.267725,-9806.022374
887.952590,1332.370696,74.020594,-9652.803275
887.952910,814.226536,814.226536,-9729.412825
887.953230,592.164754,2072.576638,-9499.584175
887.953551,1258.350101,2294.638420,-9652.803275
887.953871,1702.473667,666.185348,-9806.022374
887.954191,962.267725,-1554.432478,-8963.317327
887.954511,-1332.370696,-2368.659014,-10035.851024
887.954831,-1628.453072,-1554.432478,-9269.755526
887.955151,-592.164754,-740.205942,-9422.974625
887.955472,740.205942,740.205942,-9499.584175
887.955792,1110.308913,888.247130,-9039.926876
887.956112,1702.473667,1924.535449,-9806.022374
887.956432,1184.329507,2146.597232,-9806.022374
887.956752,1258.350101,296.082377,-9806.022374
887.957072,1628.453072,0.000000,-9882.631924
887.957393,1258.350101,-888.247130,-9959.241474
887.957713,1776.494261,-2368.659014,-9652.803275
887.958033,2294.638420,-1332.370696,-10495.508323
887.958353,0.000000,74.020594,-9806.022374
887.958673,-222.061783,2146.597232,-10418.898773
887.958993,444.123565,3182.885551,-11108.384721
887.959314,2368.659014,2368.659014,-10725.336972
887.959634,2368.659014,296.082377,-10648.727422
887.959954,666.185348,-444.123565,-10725.336972
887.960274,-814.226536,0.000000,-10572.117872
887.960594,-1924.535449,222.061783,-10418.898773
887.960915,-592.164754,888.247130,-10418.898773
887.961235,1110.308913,592.164754,-10572.117872
887.961555,1258.350101,0.000000,-10955.165621
887.961875,148.041188,0.000000,-10572.117872
887.962195,-1332.370696,444.123565,-9806.022374
887.962515,1036.288319,1110.308913,-10035.851024
887.962836,3182.885551,592.164754,-9959.241474
887.963156,3182.885551,-370.102971,-10342.289223
887.963476,740.205942,-1406.391290,-9882.631924
887.963796,-2368.659014,0.000000,-9499.584175
887.964116,-3034.844362,0.000000,-9346.365076
887.964436,222.061783,518.144159,-9422.974625
887.964757,1554.432478,888.247130,-9882.631924
887.965077,1702.473667,-444.123565,-9499.584175
887.965397,-1702.473667,-148.041188,-9882.631924
887.965717,-1184.329507,0.000000,-9652.803275
887.966037,0.000000,444.123565,-9959.241474
887.966357,518.144159,740.205942,-9422.974625
887.966678,-592.164754,444.123565,-9806.022374
887.966998,1036.288319,-222.061783,-9346.365076
887.967318,444.123565,-222.061783,-9959.241474
887.967638,74.020594,-148.041188,-9806.022374
887.967958,592.164754,1258.350101,-10342.289223
887.968278,1258.350101,1332.370696,-10112.460574
887.968599,2368.659014,296.082377,-10265.679673
887.968919,592.164754,222.061783,-10035.851024
887.969239,-1628.453072,222.061783,-9959.241474
887.969559,-2368.659014,1702.473667,-10035.851024
887.969879,-962.267725,2812.782580,-10112.460574
887.970200,1036.288319,1998.556043,-10801.946522
887.970520,2738.761985,1258.350101,-10495.508323
887.970840,2738.761985,-444.123565,-10418.898773
887.971160,1480.411884,148.041188,-10418.898773
887.971480,592.164754,1702.473667,-10189.070123
887.971800,1332.370696,2146.597232,-10648.727422
887.972121,3627.009116,2442.679609,-10418.898773
887.972441,2146.597232,2442.679609,-11261.603821
887.972761,666.185348,1628.453072,-11414.822920
887.973081,518.144159,1332.370696,-9806.022374
887.973401,666.185348,1110.308913,-10495.508323
887.973721,1998.556043,2442.679609,-9882.631924
887.974042,1554.432478,3552.988522,-8350.440928
887.974362,0.000000,2664.741391,-10112.460574
887.974682,-296.082377,1998.556043,-10112.460574
887.975002,74.020594,0.000000,-9116.536426
887.975322,814.226536,-666.185348,-9269.755526
887.975642,3552.988522,-2146.597232,-8656.879127
887.975963,2664.741391,-4293.194464,-9116.536426
887.976283,1480.411884,-3552.988522,-9652.803275
887.976603,888.247130,-2738.761985,-9346.365076
887.976923,-962.267725,-814.226536,-9346.365076
887.977243,1036.288319,1332.370696,-9882.631924
887.977563,1332.370696,1776.494261,-10112.460574
887.977884,370.102971,2516.700203,-10648.727422
887.978204,-148.041188,962.267725,-10035.851024
887.978524,-814.226536,-962.267725,-10342.289223
887.978844,296.082377,-1554.432478,-10112.460574
887.979164,1110.308913,-1850.514855,-10189.070123
887.979484,1332.370696,-1184.329507,-10112.460574
887.979805,0.000000,370.102971,-10189.070123
887.980125,-1036.288319,1480.411884,-10725.336972
887.980445,-1406.391290,1258.350101,-10189.070123
887.980765,666.185348,1480.411884,-10342.289223
887.981085,2146.597232,592.164754,-10342.289223
887.981406,518.144159,888.247130,-10265.679673
887.981726,-1110.308913,888.247130,-10495.508323
887.982046,-3330.926739,0.000000,-10572.117872
887.982366,-1776.494261,-1110.308913,-10112.460574
887.982686,740.205942,-1628.453072,-10418.898773
887.983006,1554.432478,-1110.308913,-9959.241474
887.983327,-518.144159,666.185348,-10265.679673
887.983647,-2590.720797,1480.411884,-10878.556072
887.983967,-2072.576638,1406.391290,-9806.022374
887.984287,-1998.556043,-222.061783,-10035.851024
887.984607,0.000000,-2072.576638,-9806.022374
887.984927,518.144159,-3108.864956,-9576.193725
887.985248,518.144159,-2072.576638,-10342.289223
887.985568,370.102971,-518.144159,-9882.631924
887.985888,148.041188,1184.329507,-9882.631924
887.986208,666.185348,3404.947333,-10572.117872
887.986528,370.102971,962.267725,-10342.289223
887.986848,740.205942,-1702.473667,-11108.384721
887.987168,0.000000,-1850.514855,-9806.022374
887.987489,-74.020594,-444.123565,-9882.631924
887.987809,222.061783,888.247130,-9806.022374
887.988129,1924.535449,2368.659014,-10572.117872
887.988449,2960.823768,1850.514855,-10342.289223
887.988769,1850.514855,444.123565,-10418.898773
887.989089,1184.329507,-518.144159,-9652.803275
887.989409,814.226536,-222.061783,-9652.803275
887.989730,2368.659014,1036.288319,-11261.603821
887.990050,3256.906145,1702.473667,-10648.727422
887.990370,3256.906145,2220.617826,-10955.165621
887.990690,740.205942,666.185348,-9959.241474
887.991010,-1554.432478,-518.144159,-9806.022374
887.991330,148.041188,1110.308913,-10189.070123
887.991650,1702.473667,1332.370696,-10189.070123
887.991971,3034.844362,1776.494261,-10418.898773
887.992291,1258.350101,1258.350101,-9959.241474
887.992611,666.185348,370.102971,-10265.679673
887.992931,666.185348,740.205942,-10342.289223
887.993251,1406.391290,1924.535449,-9882.631924
887.993571,2886.803174,2220.617826,-10342.289223
887.993891,3701.029710,2516.700203,-10112.460574
887.994212,2294.638420,-592.164754,-9499.584175
887.994532,666.185348,-2368.659014,-9729.412825
887.994852,-518.144159,-1036.288319,-9729.412825
887.995172,-518.144159,-814.226536,-9499.584175
887.995492,3108.864956,370.102971,-9882.631924
887.995812,1110.308913,1776.494261,-10189.070123
887.996132,-666.185348,1554.432478,-9806.022374
887.996453,-2072.576638,2146.597232,-9882.631924
887.996773,-962.267725,1406.391290,-9039.926876
887.997093,1776.494261,962.267725,-9652.803275
887.997413,1998.556043,-222.061783,-9959.241474
887.997733,740.205942,-1184.329507,-10035.851024
887.998053,-666.185348,-1480.411884,-9882.631924
887.998373,-1480.411884,-666.185348,-9806.022374
887.998694,-2072.576638,1480.411884,-9729.412825
887.999014,-518.144159,3256.906145,-10189.070123
887.999334,296.082377,2886.803174,-10418.898773
887.999654,296.082377,1332.370696,-10342.289223
887.999974,-370.102971,-814.226536,-10189.070123
888.000294,-1110.308913,-1332.370696,-9806.022374
888.000614,-1850.514855,-666.185348,-9882.631924
888.000935,-888.247130,888.247130,-10418.898773
888.001255,0.000000,1998.556043,-10265.679673
888.001575,-1554.432478,2516.700203,-10418.898773
888.001895,-3108.864956,1998.556043,-10342.289223
888.002215,-2146.597232,0.000000,-10342.289223
888.002535,-1184.329507,-444.123565,-10801.946522
888.002855,-592.164754,-2886.803174,-10112.460574
888.003176,740.205942,-1332.370696,-9652.803275
888.003496,-888.247130,-148.041188,-9806.022374
888.003816,1184.329507,0.000000,-10035.851024
888.004136,2220.617826,962.267725,-10189.070123
888.004456,2590.720797,2368.659014,-10725.336972
888.004776,1776.494261,2664.741391,-10801.946522
888.005096,888.247130,740.205942,-10572.117872
888.005417,518.144159,-518.144159,-9806.022374
888.005737,-222.061783,-1850.514855,-9806.022374
888.006057,444.123565,-1480.411884,-9882.631924
888.006377,666.185348,-222.061783,-10112.460574
888.006697,1554.432478,222.061783,-10112.460574
888.007017,2368.659014,888.247130,-9959.241474
888.007337,2294.638420,1406.391290,-10342.289223
888.007658,1998.556043,518.144159,-9959.241474
888.007978,1998.556043,1332.370696,-10495.508323
888.008298,3775.050304,0.000000,-9882.631924
888.008618,2960.823768,-1184.329507,-10112.460574
888.008938,1036.288319,-1776.494261,-9806.022374
888.009258,1184.329507,-1258.350101,-10112.460574
888.009578,1184.329507,0.000000,-9882.631924
888.009899,1998.556043,0.000000,-10572.117872
888.010219,1850.514855,-222.061783,-10648.727422
888.010539,222.061783,-370.102971,-10112.460574
888.010859,-740.205942,740.205942,-10418.898773
888.011179,-888.247130,3182.885551,-11644.651570
888.011499,-370.102971,4515.256246,-10572.117872
888.011819,1258.350101,2442.679609,-10495.508323
888.012140,2590.720797,370.102971,-10418.898773
888.012460,2590.720797,-3627.009116,-9729.412825
888.012780,1998.556043,-5033.400406,-9422.974625
888.013100,-592.164754,-4145.153275,-9193.145976
888.013420,-444.123565,0.000000,-9729.412825
888.013740,666.185348,2516.700203,-10035.851024
888.014060,1110.308913,3775.050304,-10189.070123
888.014381,-1184.329507,2516.700203,-10342.289223
888.014701,-2368.659014,-592.164754,-9882.631924
888.015021,-2146.597232,-3478.967927,-9576.193725
888.015341,-666.185348,-2812.782580,-10035.851024
888.015661,444.123565,-2072.576638,-9269.755526
888.015981,666.185348,-740.205942,-9729.412825
888.016301,-370.102971,888.247130,-10418.898773
888.016622,-2886.803174,962.267725,-9806.022374
888.016942,-2886.803174,1332.370696,-9959.241474
888.017262,-1258.350101,2960.823768,-10495.508323
888.017582,962.267725,1406.391290,-10189.070123
888.017902,2590.720797,0.000000,-10572.117872
888.018222,2220.617826,-1554.432478,-9959.241474
888.018542,-592.164754,-1332.370696,-9499.584175
888.018863,-2368.659014,-666.185348,-10418.898773
888.019183,-370.102971,592.164754,-10342.289223
888.019503,-148.041188,370.102971,-9882.631924
888.019823,-888.247130,2072.576638,-10495.508323
888.020143,-1258.350101,2886.803174,-10342.289223
888.020463,-1480.411884,1036.288319,-10495.508323
888.020783,0.000000,814.226536,-11184.994271
888.021104,814.226536,-1184.329507,-10112.460574
888.021424,962.267725,-1184.329507,-10189.070123
888.021744,962.267725,-592.164754,-10035.851024
888.022064,1924.535449,1554.432478,-10572.117872
888.022384,1184.329507,2886.803174,-10801.946522
888.022704,1702.473667,2368.659014,-10342.289223
888.023024,2220.617826,1110.308913,-9882.631924
888.023345,666.185348,74.020594,-10265.679673
888.023665,370.102971,-518.144159,-10035.851024
888.023985,444.123565,0.000000,-9806.022374
888.024305,1850.514855,1332.370696,-9882.631924
888.024625,1924.535449,962.267725,-10112.460574
888.024945,1776.494261,370.102971,-10035.851024
888.025265,814.226536,222.061783,-10418.898773
888.025586,222.061783,296.082377,-9806.022374
888.025906,1554.432478,3108.864956,-10265.679673
888.026226,2072.576638,2886.803174,-10495.508323
888.026546,2368.659014,1480.411884,-10189.070123
888.026866,2368.659014,370.102971,-10112.460574
888.027186,666.185348,-888.247130,-10112.460574
888.027506,0.000000,-1480.411884,-9729.412825
888.027827,888.247130,-1332.370696,-9576.193725
888.028147,1258.350101,222.061783,-9959.241474
888.028467,1258.350101,1998.556043,-10495.508323
888.028787,1110.308913,2664.741391,-10725.336972
888.029107,148.041188,1924.535449,-10265.679673
888.029427,-666.185348,-1258.350101,-9576.193725
888.029747,444.123565,-2886.803174,-9499.584175
888.030068,1776.494261,-3330.926739,-9269.755526
888.030388,2368.659014,-2294.638420,-9806.022374
888.030708,1406.391290,444.123565,-10418.898773
888.031028,222.061783,666.185348,-10035.851024
888.031348,-592.164754,2294.638420,-10265.679673
888.031668,-1258.350101,1924.535449,-9882.631924
888.031988,-444.123565,740.205942,-10112.460574
888.032309,222.061783,-222.061783,-9806.022374
888.032629,592.164754,-1480.411884,-10648.727422
888.032949,740.205942,-2368.659014,-10112.460574
888.033269,-888.247130,-1554.432478,-9652.803275
888.033589,-1332.370696,0.000000,-10112.460574
888.033909,-2072.576638,2072.576638,-9039.926876
888.034229,-2368.659014,1406.391290,-10418.898773
888.034550,-370.102971,962.267725,-10648.727422
888.034870,296.082377,-148.041188,-10035.851024
888.035190,1406.391290,-814.226536,-10572.117872
888.035510,3108.864956,-1702.473667,-9806.022374
888.035830,1776.494261,-2294.638420,-10342.289223
888.036150,-592.164754,-1998.556043,-10801.946522
888.036470,-1850.514855,-1480.411884,-9806.022374
888.036791,-2220.617826,740.205942,-9806.022374
888.037111,-1924.535449,888.247130,-10112.460574
888.037431,1184.329507,1332.370696,-10342.289223
888.037751,1036.288319,1184.329507,-10495.508323
888.038071,-666.185348,814.226536,-10418.898773
888.038391,-518.144159,74.020594,-9729.412825
888.038711,-888.247130,-1258.350101,-9806.022374
888.039032,740.205942,-2368.659014,-9652.803275
888.039352,1554.432478,-2368.659014,-9499.584175
888.039672,-518.144159,-666.185348,-9729.412825
888.039992,-1850.514855,222.061783,-9806.022374
888.040312,-1702.473667,1184.329507,-9806.022374
888.040632,1110.308913,1850.514855,-9959.241474
888.040952,3330.926739,962.267725,-10342.289223
888.041273,3330.926739,0.000000,-10189.070123
888.041593,1184.329507,-1110.308913,-10418.898773
888.041913,-740.205942,-1924.535449,-9806.022374
888.042233,-962.267725,-592.164754,-9422.974625
888.042553,592.164754,962.267725,-10112.460574
888.042873,2220.617826,1406.391290,-10112.460574
888.043193,2886.803174,1554.432478,-10725.336972
888.043513,666.185348,1332.370696,-10418.898773
888.043834,518.144159,2516.700203,-10035.851024
888.044154,1702.473667,2812.782580,-10495.508323
888.044474,2442.679609,814.226536,-10112.460574
888.044794,3108.864956,-1332.370696,-9729.412825
888.045114,2590.720797,-1924.535449,-10112.460574
888.045434,74.020594,-370.102971,-9576.193725
888.045754,666.185348,148.041188,-9806.022374
888.046075,2812.782580,2146.597232,-10418.898773
888.046395,4219.173869,2072.576638,-10495.508323
888.046715,3256.906145,1776.494261,-11644.651570
888.047035,962.267725,1850.514855,-10878.556072
888.047355,-962.267725,1258.350101,-10572.117872
888.047675,148.041188,1628.453072,-9652.803275
888.047995,1628.453072,1036.288319,-10495.508323
888.048316,2072.576638,-148.041188,-9499.584175
888.048636,814.226536,-1406.391290,-9959.241474
888.048956,-740.205942,-666.185348,-10418.898773
888.049276,-518.144159,1184.329507,-9422.974625
888.049596,666.185348,3552.988522,-10648.727422
888.049916,1998.556043,3701.029710,-10878.556072
888.050236,3404.947333,962.267725,-10418.898773
888.050557,740.205942,-1702.473667,-10495.508323
888.050877,-1184.329507,-1998.556043,-9729.412825
888.051197,-2442.679609,-1258.350101,-9576.193725
888.051517,-1036.288319,740.205942,-10495.508323
888.051837,740.205942,1332.370696,-9729.412825
888.052157,1184.329507,1554.432478,-10189.070123
888.052477,-814.226536,814.226536,-9882.631924
888.052798,-1850.514855,-222.061783,-10035.851024
888.053118,-1776.494261,-888.247130,-9576.193725
888.053438,296.082377,-1110.308913,-9422.974625
888.053758,296.082377,-222.061783,-9652.803275
888.054078,-592.164754,-666.185348,-9882.631924
888.054398,-2146.597232,-962.267725,-9729.412825
888.054718,-2220.617826,370.102971,-9959.241474
888.055039,-222.061783,1332.370696,-9729.412825
888.055359,1628.453072,1258.350101,-10189.070123
888.055679,740.205942,1110.308913,-9652.803275
888.055999,0.000000,-148.041188,-9959.241474
888.056319,-444.123565,-1850.514855,-10189.070123
888.056639,0.000000,-2072.576638,-9576.193725
888.056959,0.000000,-592.164754,-10189.070123
888.057280,1184.329507,814.226536,-10725.336972
888.057600,444.123565,1998.556043,-10572.117872
888.057920,-2368.659014,962.267725,-10265.679673
888.058240,740.205942,592.164754,-10189.070123
888.058560,1332.370696,1258.350101,-10801.946522
888.058880,1998.556043,0.000000,-10801.946522
888.059200,1776.494261,-222.061783,-10112.460574
888.059521,2146.597232,-888.247130,-10112.460574
888.059841,814.226536,-1036.288319,-10265.679673
888.060161,-740.205942,-296.082377,-10265.679673
888.060481,-518.144159,1406.391290,-10112.460574
888.060801,518.144159,2072.576638,-10418.898773
888.061121,1628.453072,1406.391290,-10265.679673
888.061441,2590.720797,592.164754,-9882.631924
888.061762,370.102971,-444.123565,-10495.508323
888.062082,592.164754,-1480.411884,-9269.755526
888.062402,1554.432478,-1998.556043,-9576.193725
888.062722,2442.679609,-1480.411884,-9499.584175
888.063042,2368.659014,-370.102971,-9193.145976
888.063362,1332.370696,1258.350101,-10189.070123
888.063682,814.226536,1258.350101,-9959.241474
888.064003,2368.659014,1110.308913,-9806.022374
888.064323,2664.741391,814.226536,-10189.070123
888.064643,1776.494261,-296.082377,-10035.851024
888.064963,1258.350101,-1110.308913,-10112.460574
888.065283,962.267725,-962.267725,-10035.851024
888.065603,592.164754,296.082377,-9422.974625
888.065923,0.000000,2294.638420,-10189.070123
888.066244,962.267725,1776.494261,-10495.508323
888.066564,2368.659014,-148.041188,-10112.460574
888.066884,1480.411884,-1110.308913,-9882.631924
888.067204,0.000000,-888.247130,-10189.070123
888.067524,-1332.370696,518.144159,-9882.631924
888.067844,-962.267725,2220.617826,-10801.946522
888.068164,1554.432478,2220.617826,-10035.851024
888.068485,3108.864956,1702.473667,-10648.727422
888.068805,740.205942,962.267725,-10801.946522
888.069125,-296.082377,740.205942,-10342.289223
888.069445,-370.102971,222.061783,-10189.070123
888.069765,-962.267725,296.082377,-10265.679673
888.070085,888.247130,-222.061783,-10189.070123
888.070405,-666.185348,-296.082377,-10035.851024
888.070726,-962.267725,1924.535449,-10495.508323
888.071046,-1406.391290,1924.535449,-9652.803275
888.071366,444.123565,1184.329507,-10265.679673
888.071686,1480.411884,-222.061783,-9806.022374
888.072006,518.144159,-1850.514855,-9652.803275
888.072326,296.082377,-1110.308913,-9806.022374
888.072646,-222.061783,222.061783,-9959.241474
888.072967,-296.082377,1702.473667,-9652.803275
888.073287,-1036.288319,444.123565,-9806.022374
888.073607,74.020594,-1480.411884,-9116.536426
888.073927,814.226536,-2072.576638,-9576.193725
888.074247,-296.082377,-814.226536,-9959.241474
888.074567,-1776.494261,888.247130,-9652.803275
888.074887,-2664.741391,2146.597232,-9652.803275
888.075208,-1998.556043,2072.576638,-9729.412825
888.075528,370.102971,1036.288319,-9576.193725
888.075848,814.226536,-814.226536,-9882.631924
888.076168,740.205942,-1554.432478,-10572.117872
888.076488,-518.144159,-1480.411884,-9729.412825
888.076808,74.020594,74.020594,-9116.536426
888.077128,1036.288319,1184.329507,-10648.727422
888.077449,1776.494261,592.164754,-10035.851024
888.077769,444.123565,1776.494261,-11031.775171
888.078089,148.041188,2516.700203,-11261.603821
888.078409,666.185348,3478.967927,-10648.727422
888.078729,2072.576638,1776.494261,-10801.946522
888.079049,3552.988522,-666.185348,-10189.070123
888.079369,3478.967927,-2368.659014,-9806.022374
888.079690,2664.741391,-2072.576638,-9959.241474
888.080010,1702.473667,-666.185348,-10035.851024
888.080330,666.185348,2664.741391,-10189.070123
888.080650,814.226536,4441.235652,-10342.289223
888.080970,1702.473667,3552.988522,-8580.269578
888.081290,3182.885551,814.226536,-9882.631924
888.081610,1998.556043,-1258.350101,-9729.412825
888.081931,1184.329507,-2146.597232,-9422.974625
888.082251,-444.123565,-1258.350101,-9576.193725
888.082571,296.082377,-814.226536,-9806.022374
888.082891,888.247130,-740.205942,-9729.412825
888.083211,148.041188,-518.144159,-9806.022374
888.083531,-962.267725,888.247130,-10725.336972
888.083851,-1480.411884,2442.679609,-10495.508323
888.084172,-1628.453072,2664.741391,-10572.117872
888.084492,888.247130,1406.391290,-10725.336972
888.084812,1480.411884,-148.041188,-9882.631924
888.085132,592.164754,-1110.308913,-10189.070123
888.085452,-888.247130,-740.205942,-9882.631924
888.085772,370.102971,0.000000,-10572.117872
888.086092,814.226536,518.144159,-10495.508323
888.086413,2516.700203,1110.308913,-10035.851024
888.086733,1628.453072,1850.514855,-10112.460574
888.087053,370.102971,1184.329507,-10572.117872
888.087373,-1036.288319,962.267725,-9652.803275
888.087693,-2294.638420,-666.185348,-10189.070123
888.088013,0.000000,-888.247130,-9729.412825
888.088333,370.102971,-1924.535449,-9346.365076
888.088653,-962.267725,-1406.391290,-9806.022374
888.088973,-2664.741391,0.000000,-10035.851024
888.089293,-2886.803174,1554.432478,-9806.022374
888.089613,0.000000,1850.514855,-10035.851024
888.089933,1554.432478,370.102971,-10112.460574
888.090253,2886.803174,0.000000,-9576.193725
888.090573,962.267725,222.061783,-10418.898773
888.090893,666.185348,-370.102971,-9806.022374
888.091213,74.020594,222.061783,-9652.803275
888.091533,-370.102971,444.123565,-10418.898773
888.091853,1258.350101,-296.082377,-9652.803275
888.092173,1776.494261,-962.267725,-10265.679673
888.092493,-666.185348,-148.041188,-10495.508323
888.092813,-1924.535449,444.123565,-9806.022374
888.093132,-1258.350101,1924.535449,-10648.727422
888.093452,148.041188,1406.391290,-10495.508323
888.093772,1628.453072,0.000000,-10342.289223
888.094092,74.020594,-1702.473667,-9959.241474
888.094412,-222.061783,-1776.494261,-10112.460574
888.094732,1184.329507,74.020594,-10265.679673
888.095052,1332.370696,1184.329507,-10265.679673
888.095372,2516.700203,1332.370696,-11108.384721
888.095692,2590.720797,1184.329507,-10418.898773
888.096012,1924.535449,370.102971,-10801.946522
888.096332,1036.288319,814.226536,-10418.898773
888.096652,-962.267725,2220.617826,-9806.022374
888.096972,-814.226536,2368.659014,-10725.336972
888.097292,666.185348,2072.576638,-9882.631924
888.097612,1554.432478,148.041188,-10265.679673
888.097932,1776.494261,-814.226536,-9882.631924
888.098252,1702.473667,-962.267725,-9499.584175
888.098572,888.247130,0.000000,-9652.803275
888.098892,2146.597232,1924.535449,-9806.022374
888.099212,1702.473667,1998.556043,-9652.803275
888.099532,2220.617826,2146.597232,-10035.851024
888.099852,1776.494261,0.000000,-9729.412825
888.100172,1480.411884,-666.185348,-9269.755526
888.100492,-370.102971,962.267725,-10112.460574
888.100812,370.102971,1258.350101,-9806.022374
888.101132,1258.350101,222.061783,-9346.365076
888.101452,1702.473667,-444.123565,-10342.289223
888.101772,592.164754,0.000000,-9346.365076
888.102092,-962.267725,-148.041188,-10112.460574
888.102412,-518.144159,1332.370696,-10112.460574
888.102732,740.205942,962.267725,-9576.193725
888.103052,2294.638420,2368.659014,-10112.460574
888.103372,1924.535449,962.267725,-10495.508323
888.103691,1628.453072,-518.144159,-10035.851024
888.104011,222.061783,-1110.308913,-9576.193725
888.104331,0.000000,-296.082377,-10342.289223
888.104651,2146.597232,1702.473667,-10112.460574
888.104971,814.226536,2590.720797,-10495.508323
888.105291,444.123565,2072.576638,-11644.651570
888.105611,-296.082377,592.164754,-10265.679673
888.105931,0.000000,-222.061783,-10495.508323
888.106251,888.247130,-740.205942,-10495.508323
888.106571,888.247130,1258.350101,-10418.898773
888.106891,962.267725,1776.494261,-11108.384721
888.107211,666.185348,1480.411884,-10189.070123
888.107531,-740.205942,1406.391290,-9882.631924
888.107851,-1850.514855,814.226536,-10112.460574
888.108171,-1036.288319,148.041188,-8580.269578
888.108491,666.185348,-666.185348,-9806.022374
888.108811,1850.514855,-1184.329507,-10035.851024
888.109131,222.061783,-888.247130,-9116.536426
888.109451,-1406.391290,-740.205942,-9806.022374
888.109771,-296.082377,-444.123565,-9422.974625
888.110091,1110.308913,0.000000,-9806.022374
888.110411,0.000000,888.247130,-9959.241474
888.110731,-2294.638420,0.000000,-9422.974625
888.111051,-3330.926739,-444.123565,-9576.193725
888.111371,-1554.432478,-370.102971,-9652.803275
888.111691,888.247130,814.226536,-10725.336972
888.112011,518.144159,1332.370696,-10112.460574
888.112331,-222.061783,1406.391290,-10418.898773
888.112651,-1184.329507,222.061783,-9806.022374
888.112971,-296.082377,-2294.638420,-9346.365076
888.113291,74.020594,-2294.638420,-9806.022374
888.113611,592.164754,-1924.535449,-10189.070123
888.113931,740.205942,0.000000,-11031.775171
888.114250,814.226536,814.226536,-10495.508323
888.114570,1258.350101,1184.329507,-10265.679673
888.114890,-518.144159,1110.308913,-10342.289223
888.115210,-962.267725,666.185348,-10418.898773
888.115530,-592.164754,0.000000,-10189.070123
888.115850,1480.411884,444.123565,-10648.727422
888.116170,1998.556043,0.000000,-10648.727422
888.116490,74.020594,-1554.432478,-9499.584175
888.116810,-814.226536,-1554.432478,-9806.022374
888.117130,444.123565,370.102971,-10418.898773
888.117450,1110.308913,1036.288319,-9882.631924
888.117770,1480.411884,2368.659014,-10648.727422
888.118090,2886.803174,2812.782580,-10572.117872
888.118410,3182.885551,2368.659014,-10112.460574
888.118730,2072.576638,740.205942,-10189.070123
888.119050,1776.494261,-1332.370696,-9729.412825
888.119370,814.226536,-2220.617826,-9269.755526
888.119690,1850.514855,-1258.350101,-10342.289223
888.120010,3330.926739,-74.020594,-9422.974625
888.120330,3552.988522,518.144159,-9729.412825
888.120650,2664.741391,1110.308913,-10189.070123
888.120970,1776.494261,2072.576638,-10265.679673
888.121290,0.000000,2886.803174,-10801.946522
888.121610,-148.041188,1554.432478,-9959.241474
888.121930,444.123565,444.123565,-9882.631924
888.122250,370.102971,-1480.411884,-10112.460574
888.122570,0.000000,-1850.514855,-10418.898773
888.122890,0.000000,-814.226536,-9806.022374
888.123210,-296.082377,814.226536,-10189.070123
888.123530,74.020594,2146.597232,-10495.508323
888.123850,1480.411884,2220.617826,-10342.289223
888.124170,1110.308913,2072.576638,-10725.336972
888.124490,740.205942,740.205942,-10265.679673
888.124809,-1036.288319,-296.082377,-9882.631924
888.125129,-2738.761985,-740.205942,-10112.460574
888.125449,-2072.576638,-1184.329507,-9729.412825
888.125769,148.041188,0.000000,-9806.022374
888.126089,814.226536,1258.350101,-10648.727422
888.126409,0.000000,1184.329507,-10418.898773
888.126729,-1480.411884,888.247130,-9652.803275
888.127049,518.144159,518.144159,-11338.213370
888.127369,1628.453072,666.185348,-9576.193725
888.127689,-1332.370696,74.020594,-10265.679673
888.128009,-1702.473667,-1850.514855,-9269.755526
888.128329,-518.144159,-1628.453072,-9576.193725
888.128649,-1036.288319,-444.123565,-10189.070123
888.128969,-296.082377,666.185348,-9576.193725
888.129289,444.123565,2886.803174,-10189.070123
888.129609,-592.164754,3404.947333,-10189.070123
888.129929,-814.226536,888.247130,-9729.412825
888.130249,-444.123565,-444.123565,-9806.022374
888.130569,-740.205942,-1184.329507,-10265.679673
888.130889,-592.164754,-1332.370696,-9652.803275
888.131209,-444.123565,-148.041188,-9959.241474
888.131529,1480.411884,666.185348,-10265.679673
888.131849,666.185348,740.205942,-9806.022374
888.132169,370.102971,2294.638420,-10495.508323
888.132489,148.041188,2220.617826,-10495.508323
888.132809,222.061783,2072.576638,-10418.898773
888.133129,1110.308913,1406.391290,-10725.336972
888.133449,1332.370696,-592.164754,-9882.631924
888.133769,1850.514855,-1628.453072,-9806.022374
888.134089,1924.535449,-1554.432478,-10342.289223
888.134409,1332.370696,518.144159,-10572.117872
888.134729,1998.556043,2590.720797,-10878.556072
888.135049,1924.535449,3108.864956,-11338.213370
888.135368,2590.720797,2664.741391,-10418.898773
888.135688,962.267725,1776.494261,-10189.070123
888.136008,148.041188,1850.514855,-10648.727422
888.136328,592.164754,1554.432478,-10725.336972
888.136648,3108.864956,666.185348,-10495.508323
888.136968,4367.215058,-962.267725,-9806.022374
888.137288,4959.379811,-2368.659014,-9269.755526
888.137608,962.267725,-1998.556043,-9729.412825
888.137928,-666.185348,-370.102971,-9422.974625
888.138248,-444.123565,518.144159,-8963.317327
888.138568,370.102971,814.226536,-9576.193725
888.138888,1702.473667,296.082377,-9499.584175
888.139208,2072.576638,-1258.350101,-9193.145976
888.139528,888.247130,-1258.350101,-9422.974625
888.139848,518.144159,-1998.556043,-10035.851024
888.140168,1480.411884,-666.185348,-9269.755526
888.140488,1850.514855,518.144159,-9959.241474
888.140808,1110.308913,666.185348,-9806.022374
888.141128,-370.102971,148.041188,-10648.727422
888.141448,888.247130,-74.020594,-10342.289223
888.141768,1480.411884,-370.102971,-10265.679673
888.142088,-740.205942,-370.102971,-10189.070123
888.142408,-592.164754,-148.041188,-10878.556072
888.142728,-1332.370696,-1628.453072,-10189.070123
888.143048,-1110.308913,-1258.350101,-10342.289223
888.143368,-962.267725,-296.082377,-10801.946522
888.143688,-888.247130,0.000000,-11261.603821
888.144008,-592.164754,1628.453072,-10801.946522
888.144328,-222.061783,1184.329507,-10878.556072
888.144648,0.000000,1036.288319,-10648.727422
888.144968,-2220.617826,0.000000,-11031.775171
888.145288,-1628.453072,0.000000,-11031.775171
888.145607,-148.041188,-370.102971,-10495.508323
888.145927,666.185348,148.041188,-10418.898773
888.146247,-740.205942,-1554.432478,-9729.412825
888.146567,-1110.308913,-1480.411884,-9729.412825
888.146887,-1554.432478,-814.226536,-9959.241474
888.147207,-2294.638420,592.164754,-10265.679673
888.147527,-1776.494261,222.061783,-9806.022374
888.147847,-592.164754,-962.267725,-9806.022374
888.148167,1332.370696,-444.123565,-9576.193725
888.148487,0.000000,888.247130,-10265.679673
888.148807,-740.205942,2812.782580,-10035.851024
888.149127,-888.247130,3775.050304,-10035.851024
888.149447,0.000000,1924.535449,-9576.193725
888.149767,370.102971,-1332.370696,-9499.584175
888.150087,518.144159,-4071.132681,-8733.488677
888.150407,370.102971,-3552.988522,-9806.022374
888.150727,1110.308913,-2072.576638,-9422.974625
888.151047,2738.761985,-222.061783,-10189.070123
888.151367,3627.009116,2146.597232,-10495.508323
888.151687,1998.556043,2738.761985,-10189.070123
888.152007,2072.576638,1406.391290,-10342.289223
888.152327,1406.391290,1998.556043,-10189.070123
888.152647,1924.535449,1110.308913,-10189.070123
888.152967,1776.494261,740.205942,-10572.117872
888.153287,1184.329507,-1036.288319,-10495.508323
888.153607,3330.926739,-1258.350101,-10265.679673
888.153927,1480.411884,-1258.350101,-10112.460574
888.154247,148.041188,74.020594,-10342.289223
888.154567,-296.082377,1776.494261,-9576.193725
888.154887,296.082377,3404.947333,-10801.946522
888.155207,962.267725,2960.823768,-10189.070123
888.155527,2368.659014,1110.308913,-10342.289223
888.155847,2072.576638,148.041188,-10189.070123
888.156166,814.226536,-518.144159,-10035.851024
888.156486,1406.391290,-666.185348,-9729.412825
888.156806,2294.638420,0.000000,-9729.412825
888.157126,2442.679609,1036.288319,-9729.412825
888.157446,962.267725,1184.329507,-9806.022374
888.157766,-1036.288319,1406.391290,-9882.631924
888.158086,-1110.308913,296.082377,-9422.974625
888.158406,-1258.350101,0.000000,-9576.193725
888.158726,370.102971,-888.247130,-9882.631924
888.159046,1036.288319,-1406.391290,-9729.412825
888.159366,1258.350101,-222.061783,-10189.070123
888.159686,518.144159,1110.308913,-9882.631924
888.160006,1258.350101,2368.659014,-9959.241474
888.160326,2368.659014,2664.741391,-11031.775171
888.160646,3330.926739,592.164754,-10418.898773
888.160966,1406.391290,-592.164754,-9576.193725
888.161286,-1998.556043,-962.267725,-10112.460574
888.161606,-1702.473667,-1480.411884,-10189.070123
888.161926,-1036.288319,-444.123565,-9959.241474
888.162246,592.164754,1184.329507,-10725.336972
888.162566,-518.144159,962.267725,-10418.898773
888.162886,-1258.350101,888.247130,-10189.070123
888.163206,-1258.350101,444.123565,-10955.165621
888.163526,148.041188,1702.473667,-10035.851024
888.163846,-1628.453072,1110.308913,-10342.289223
888.164166,222.061783,74.020594,-10265.679673
888.164486,2220.617826,-222.061783,-9499.584175
888.164806,0.000000,0.000000,-10725.336972
888.165126,-1776.494261,0.000000,-9959.241474
888.165446,-2368.659014,666.185348,-9729.412825
888.165766,0.000000,1406.391290,-10112.460574
888.166086,1850.514855,1036.288319,-9806.022374
888.166406,1776.494261,222.061783,-9959.241474
888.166725,0.000000,-222.061783,-9882.631924
888.167045,-962.267725,0.000000,-9652.803275
888.167365,74.020594,0.000000,-9882.631924
888.167685,2072.576638,1036.288319,-9729.412825
888.168005,3627.009116,148.041188,-10342.289223
888.168325,3182.885551,222.061783,-10112.460574
888.168645,296.082377,814.226536,-10418.898773
888.168965,-740.205942,1184.329507,-9959.241474
888.169285,-1258.350101,1184.329507,-9882.631924
888.169605,1480.411884,-444.123565,-9422.974625
888.169925,2960.823768,-888.247130,-9806.022374
888.170245,2220.617826,-962.267725,-10495.508323
888.170565,-518.144159,-888.247130,-10265.679673
888.170885,-888.247130,-370.102971,-9269.755526
888.171205,0.000000,1110.308913,-10725.336972
888.171525,962.267725,1702.473667,-10648.727422
888.171845,1110.308913,1998.556043,-10418.898773
888.172165,666.185348,1924.535449,-10878.556072
888.172485,1406.391290,1110.308913,-10572.117872
888.172805,2220.617826,814.226536,-10648.727422
888.173125,2294.638420,0.000000,-10725.336972
888.173445,2072.576638,-148.041188,-10035.851024
888.173765,814.226536,222.061783,-10035.851024
888.174085,-148.041188,1702.473667,-10112.460574
888.174405,0.000000,1702.473667,-9959.241474
888.174725,518.144159,1406.391290,-10035.851024
888.175045,1332.370696,592.164754,-9499.584175
888.175365,1480.411884,-592.164754,-9652.803275
888.175685,74.020594,-740.205942,-9346.365076
888.176005,-1036.288319,-814.226536,-9652.803275
888.176325,-666.185348,1258.350101,-9422.974625
888.176645,0.000000,1702.473667,-10112.460574
888.176965,296.082377,0.000000,-9422.974625
888.177284,1702.473667,-1850.514855,-9346.365076
888.177604,1628.453072,-1702.473667,-9422.974625
888.177924,-1110.308913,-1406.391290,-9269.755526
888.178244,-592.164754,-296.082377,-9652.803275
888.178564,148.041188,740.205942,-10572.117872
888.178884,1554.432478,-444.123565,-9806.022374
888.179204,-370.102971,-1110.308913,-10189.070123
888.179524,-1184.329507,-666.185348,-10495.508323
888.179844,-1406.391290,-518.144159,-10035.851024
888.180164,-444.123565,888.247130,-10725.336972
888.180484,1554.432478,0.000000,-10572.117872
888.180804,1332.370696,-1332.370696,-9959.241474
888.181124,1110.308913,-1406.391290,-11108.384721
888.181444,-592.164754,-814.226536,-10878.556072
888.181764,-1480.411884,962.267725,-10801.946522
888.182084,-2294.638420,2812.782580,-10801.946522
888.182404,-1332.370696,3478.967927,-12104.308868
888.182724,666.185348,2072.576638,-10495.508323
888.183044,148.041188,814.226536,-11184.994271
888.183364,1554.432478,-1628.453072,-10265.679673
888.183684,2368.659014,-2368.659014,-9422.974625
888.184004,1628.453072,-1850.514855,-10648.727422
888.184324,666.185348,-222.061783,-9422.974625
888.184644,-296.082377,1776.494261,-9959.241474
888.184964,-1110.308913,3256.906145,-10265.679673
888.185284,0.000000,2738.761985,-9806.022374
888.185604,1184.329507,1406.391290,-9806.022374
888.185924,2368.659014,-1998.556043,-9806.022374
888.186244,3701.029710,-2886.803174,-8733.488677
888.186564,2886.803174,-1776.494261,-11031.775171
888.186883,-148.041188,-1850.514855,-9116.536426
888.187203,-1258.350101,-370.102971,-9193.145976
888.187523,296.082377,592.164754,-9499.584175
888.187843,2072.576638,148.041188,-8886.707777
888.188163,2664.741391,-518.144159,-10112.460574
888.188483,2220.617826,-666.185348,-10035.851024
888.188803,888.247130,-666.185348,-9729.412825
888.189123,148.041188,592.164754,-9959.241474
888.189442,-296.082377,1554.432478,-10572.117872
888.189762,0.000000,1776.494261,-9806.022374
888.190082,0.000000,1924.535449,-10418.898773
888.190402,1628.453072,1776.494261,-11031.775171
888.190722,2886.803174,1036.288319,-10725.336972
888.191042,1924.535449,370.102971,-10725.336972
888.191362,2442.679609,0.000000,-10418.898773
888.191682,740.205942,0.000000,-10189.070123
888.192001,-592.164754,592.164754,-10878.556072
888.192321,-1702.473667,962.267725,-10495.508323
888.192641,-444.123565,1998.556043,-9959.241474
888.192961,592.164754,2442.679609,-10878.556072
888.193281,1480.411884,2368.659014,-10265.679673
888.193601,1554.432478,1776.494261,-10418.898773
888.193921,592.164754,1702.473667,-10342.289223
888.194241,0.000000,222.061783,-9882.631924
888.194560,222.061783,444.123565,-9806.022374
888.194880,0.000000,-444.123565,-10035.851024
888.195200,518.144159,-962.267725,-8656.879127
888.195520,888.247130,-1258.350101,-9422.974625
888.195840,1036.288319,592.164754,-9806.022374
888.196160,148.041188,888.247130,-9499.584175
888.196480,222.061783,2220.617826,-9652.803275
888.196799,444.123565,1258.350101,-9806.022374
888.197119,888.247130,0.000000,-9269.755526
888.197439,370.102971,-296.082377,-9882.631924
888.197759,0.000000,0.000000,-9806.022374
888.198079,74.020594,-370.102971,-10648.727422
888.198399,74.020594,-666.185348,-10112.460574
888.198719,296.082377,-518.144159,-9652.803275
888.199039,-444.123565,666.185348,-9882.631924
888.199358,-1184.329507,1850.514855,-10801.946522
888.199678,-1258.350101,2072.576638,-11031.775171
888.199998,-370.102971,1998.556043,-10648.727422
888.200318,-666.185348,1110.308913,-10495.508323
888.200638,-296.082377,-592.164754,-10035.851024
888.200958,-1554.432478,0.000000,-10112.460574
888.201278,-1258.350101,-1332.370696,-10342.289223
888.201598,0.000000,-296.082377,-9806.022374
888.201917,1258.350101,592.164754,-10418.898773
888.202237,1258.350101,1554.432478,-10342.289223
888.202557,1998.556043,1628.453072,-10418.898773
888.202877,-370.102971,592.164754,-10495.508323
888.203197,-1776.494261,370.102971,-10112.460574
888.203517,-2220.617826,-148.041188,-9729.412825
888.203837,-1110.308913,-296.082377,-9806.022374
888.204157,148.041188,-888.247130,-9959.241474
888.204476,-444.123565,-1406.391290,-9576.193725
888.204796,-962.267725,-888.247130,-9882.631924
888.205116,666.185348,0.000000,-9499.584175
888.205436,1924.535449,962.267725,-9422.974625
888.205756,2294.638420,2072.576638,-10648.727422
888.206076,2442.679609,962.267725,-9806.022374
888.206396,148.041188,-222.061783,-9499.584175
888.206715,-666.185348,-1406.391290,-9806.022374
888.207035,-814.226536,-2368.659014,-8886.707777
888.207355,0.000000,-2590.720797,-10035.851024
888.207675,2590.720797,-2294.638420,-10035.851024
888.207995,4663.297435,-666.185348,-11184.994271
888.208315,4145.153275,888.247130,-10801.946522
888.208635,3923.091493,1554.432478,-10648.727422
888.208955,2960.823768,1702.473667,-9806.022374
888.209274,1628.453072,740.205942,-10725.336972
888.209594,2294.638420,-518.144159,-10648.727422
888.209914,1998.556043,-1554.432478,-9882.631924
888.210234,0.000000,-666.185348,-11031.775171
888.210554,1110.308913,666.185348,-10342.289223
888.210874,2072.576638,3330.926739,-10725.336972
888.211194,2738.761985,2368.659014,-11951.089769
888.211514,1924.535449,962.267725,-10265.679673
888.211833,-1036.288319,0.000000,-10725.336972
888.212153,-2516.700203,-222.061783,-11031.775171
888.212473,-814.226536,370.102971,-9806.022374
888.212793,-370.102971,1480.411884,-10801.946522
888.213113,1332.370696,814.226536,-10265.679673
888.213433,2368.659014,370.102971,-9729.412825
888.213753,2368.659014,814.226536,-11644.651570
888.214073,1702.473667,296.082377,-9806.022374
888.214392,296.082377,1480.411884,-9806.022374
888.214712,0.000000,1480.411884,-10189.070123
888.215032,222.061783,-222.061783,-9346.365076
888.215352,-1036.288319,-1480.411884,-9346.365076
888.215672,-814.226536,-3923.091493,-9576.193725
888.215992,-1036.288319,-3330.926739,-9193.145976
888.216312,-740.205942,-222.061783,-9729.412825
888.216632,0.000000,888.247130,-9882.631924
888.216951,0.000000,1998.556043,-9806.022374
888.217271,-1258.350101,888.247130,-9806.022374
888.217591,-1776.494261,-296.082377,-9576.193725
888.217911,-962.267725,-666.185348,-9039.926876
888.218231,1702.473667,-370.102971,-9882.631924
888.218551,296.082377,444.123565,-10495.508323
888.218871,2146.597232,1406.391290,-9193.145976
888.219190,0.000000,1702.473667,-10955.165621
888.219510,-74.020594,1406.391290,-9882.631924
888.219830,0.000000,1850.514855,-10342.289223
888.220150,-222.061783,2664.741391,-11414.822920
888.220470,-444.123565,1258.350101,-9959.241474
888.220790,0.000000,592.164754,-10648.727422
888.221110,-962.267725,1406.391290,-10418.898773
888.221430,-1184.329507,2886.803174,-9806.022374
888.221749,-962.267725,3775.050304,-11644.651570
888.222069,74.020594,2368.659014,-10035.851024
888.222389,1850.514855,592.164754,-10418.898773
888.222709,2442.679609,-444.123565,-10035.851024
888.223029,1628.453072,-370.102971,-10418.898773
888.223349,1850.514855,296.082377,-10112.460574
888.223669,1924.535449,444.123565,-9422.974625
888.223989,1554.432478,370.102971,-10035.851024
888.224308,1776.494261,1258.350101,-9576.193725
888.224628,1776.494261,1480.411884,-9959.241474
888.224948,1480.411884,888.247130,-8963.317327
888.225268,962.267725,0.000000,-8963.317327
888.225588,666.185348,-1332.370696,-9959.241474
888.225908,1998.556043,-2442.679609,-9422.974625
888.226228,2294.638420,-2146.597232,-9116.536426
888.226548,962.267725,74.020594,-10418.898773
888.226867,-1258.350101,1036.288319,-9269.755526
888.227187,-1332.370696,1480.411884,-9806.022374
888.227507,962.267725,1406.391290,-10112.460574
888.227827,2368.659014,-518.144159,-10418.898773
888.228147,1850.514855,-1406.391290,-9882.631924
888.228467,1258.350101,0.000000,-10342.289223
888.228787,222.061783,-222.061783,-9882.631924
888.229106,222.061783,0.000000,-10418.898773
888.229426,1406.391290,222.061783,-11184.994271
888.229746,888.247130,370.102971,-9882.631924
888.230066,370.102971,1628.453072,-10955.165621
888.230386,-1258.350101,2886.803174,-11414.822920
888.230706,-666.185348,740.205942,-10189.070123
888.231026,0.000000,0.000000,-10648.727422
888.231346,1850.514855,-2960.823768,-9806.022374
888.231665,2590.720797,-3552.988522,-10265.679673
888.231985,666.185348,-1628.453072,-10265.679673
888.232305,222.061783,-296.082377,-10418.898773
888.232625,148.041188,1258.350101,-10265.679673
888.232945,1184.329507,1332.370696,-10648.727422
888.233265,1258.350101,518.144159,-9959.241474
888.233585,148.041188,1184.329507,-10572.117872
888.233905,-148.041188,0.000000,-10572.117872
888.234224,148.041188,0.000000,-10648.727422
888.234544,1332.370696,222.061783,-9576.193725
888.234864,1036.288319,-1406.391290,-10035.851024
888.235184,148.041188,-962.267725,-9806.022374
888.235504,-1628.453072,-1628.453072,-9882.631924
888.235824,-2368.659014,-888.247130,-9576.193725
888.236144,-2294.638420,74.020594,-9499.584175
888.236464,-2220.617826,1332.370696,-9882.631924
888.236783,-148.041188,296.082377,-9422.974625
888.237103,1998.556043,666.185348,-9652.803275
888.237423,888.247130,-148.041188,-10495.508323
888.237743,-296.082377,-1332.370696,-9422.974625
888.238063,-370.102971,-592.164754,-9729.412825
888.238383,-1628.453072,-222.061783,-9882.631924
888.238703,444.123565,444.123565,-9806.022374
888.239023,0.000000,1258.350101,-10495.508323
888.239342,-1776.494261,1776.494261,-10955.165621
888.239662,-1628.453072,1998.556043,-9959.241474
888.239982,592.164754,2294.638420,-10265.679673
888.240302,888.247130,1480.411884,-10955.165621
888.240622,1184.329507,0.000000,-8810.098227
888.240942,888.247130,-666.185348,-10418.898773
888.241262,666.185348,296.082377,-10189.070123
888.241581,-74.020594,1036.288319,-10265.679673
888.241901,-148.041188,2294.638420,-10648.727422
888.242221,2220.617826,2516.700203,-10189.070123
888.242541,2368.659014,2516.700203,-10265.679673
888.242861,3256.906145,2738.761985,-10955.165621
888.243181,2368.659014,1406.391290,-10189.070123
888.243501,1924.535449,888.247130,-10878.556072
888.243821,2072.576638,444.123565,-10418.898773
888.244140,592.164754,-666.185348,-9499.584175
888.244460,0.000000,148.041188,-9882.631924
888.244780,-296.082377,1924.535449,-10189.070123
888.245100,1776.494261,3923.091493,-10418.898773
888.245420,3404.947333,3256.906145,-10342.289223
888.245740,4293.194464,1702.473667,-10955.165621
888.246060,3478.967927,-1036.288319,-9269.755526
888.246380,296.082377,-2664.741391,-9499.584175
888.246699,-666.185348,-518.144159,-9882.631924
888.247019,-1554.432478,1332.370696,-9729.412825
888.247339,-1554.432478,2812.782580,-10418.898773
888.247659,2442.679609,2072.576638,-9576.193725
888.247979,3627.009116,592.164754,-10495.508323
888.248299,3256.906145,-444.123565,-10112.460574
888.248619,2664.741391,444.123565,-9882.631924
888.248939,1332.370696,1480.411884,-9729.412825
888.249258,666.185348,1850.514855,-10342.289223
888.249578,1110.308913,-444.123565,-9882.631924
888.249898,-370.102971,-740.205942,-10035.851024
888.250218,-1998.556043,296.082377,-9269.755526
888.250538,-3182.885551,2590.720797,-10342.289223
888.250858,-296.082377,3849.070898,-10265.679673
888.251178,2072.576638,1850.514855,-10801.946522
888.251497,2442.679609,-2442.679609,-10265.679673
888.251817,-592.164754,-4959.379811,-9269.755526
888.252137,-4145.153275,-4367.215058,-9959.241474
888.252457,-3849.070898,-592.164754,-10035.851024
888.252777,-1554.432478,2664.741391,-10648.727422
888.253097,962.267725,2886.803174,-10648.727422
888.253417,1110.308913,1628.453072,-11108.384721
888.253737,518.144159,-1332.370696,-10342.289223
888.254056,962.267725,-3182.885551,-10648.727422
888.254376,-370.102971,-1258.350101,-10342.289223
888.254696,-1480.411884,-222.061783,-10342.289223
888.255016,666.185348,518.144159,-10189.070123
888.255336,-1258.350101,518.144159,-9882.631924
888.255656,-2516.700203,740.205942,-10342.289223
888.255976,-1850.514855,444.123565,-10035.851024
888.256296,370.102971,-370.102971,-9882.631924
888.256615,1924.535449,74.020594,-10648.727422
888.256935,2368.659014,-1998.556043,-9422.974625
888.257255,2072.576638,-2220.617826,-9806.022374
888.257575,1258.350101,-1850.514855,-10189.070123
888.257895,1998.556043,-740.205942,-9269.755526
888.258215,-444.123565,1850.514855,-9882.631924
888.258535,814.226536,2294.638420,-9806.022374
888.258855,3404.947333,2368.659014,-9576.193725
888.259174,2368.659014,814.226536,-10035.851024
888.259494,1258.350101,-1036.288319,-10189.070123
888.259814,518.144159,-2146.597232,-9576.193725
888.260134,1924.535449,-2442.679609,-10265.679673
888.260454,2442.679609,-1628.453072,-9269.755526
888.260774,148.041188,0.000000,-9882.631924
888.261094,-2442.679609,814.226536,-10418.898773
888.261413,-2368.659014,962.267725,-9652.803275
888.261733,444.123565,1406.391290,-10725.336972
888.262053,1406.391290,-370.102971,-10878.556072
888.262373,3775.050304,0.000000,-9729.412825
888.262693,2072.576638,888.247130,-10648.727422
888.263013,888.247130,1110.308913,-10801.946522
888.263333,0.000000,1924.535449,-9959.241474
888.263653,-592.164754,1036.288319,-11184.994271
888.263972,1628.453072,0.000000,-9806.022374
888.264292,1850.514855,-444.123565,-10495.508323
888.264612,1332.370696,222.061783,-10265.679673
888.264932,814.226536,0.000000,-10265.679673
888.265252,0.000000,814.226536,-10112.460574
888.265572,518.144159,1184.329507,-10265.679673
888.265892,370.102971,1110.308913,-9806.022374
888.266212,0.000000,888.247130,-9806.022374
888.266531,-814.226536,1776.494261,-9959.241474
888.266851,-1036.288319,1554.432478,-9806.022374
888.267171,-666.185348,1850.514855,-10648.727422
888.267491,2368.659014,1036.288319,-9806.022374
888.267811,2516.700203,-740.205942,-10035.851024
888.268131,2442.679609,-1332.370696,-9882.631924
888.268451,-1184.329507,-1258.350101,-10265.679673
888.268771,-2072.576638,296.082377,-9269.755526
888.269090,-2294.638420,1850.514855,-11108.384721
888.269410,296.082377,2664.741391,-10189.070123
888.269730,2664.741391,888.247130,-9882.631924
888.270050,2368.659014,-222.061783,-11031.775171
888.270370,1184.329507,0.000000,-9576.193725
888.270690,0.000000,0.000000,-11031.775171
888.271010,518.144159,962.267725,-10572.117872
888.271330,592.164754,0.000000,-9576.193725
888.271649,296.082377,444.123565,-9806.022374
888.271969,-1332.370696,296.082377,-10418.898773
888.272289,-2664.741391,0.000000,-9346.365076
888.272609,-2960.823768,740.205942,-10265.679673
888.272929,-296.082377,888.247130,-10418.898773
888.273249,2146.597232,1332.370696,-10265.679673
888.273569,1406.391290,222.061783,-10648.727422
888.273888,592.164754,148.041188,-10342.289223
888.274208,-740.205942,-518.144159,-9806.022374
888.274528,74.020594,814.226536,-10342.289223
888.274848,-222.061783,1332.370696,-9806.022374
888.275168,962.267725,0.000000,-10112.460574
888.275488,-592.164754,1110.308913,-10418.898773
888.275808,-814.226536,0.000000,-10035.851024
888.276128,222.061783,1036.288319,-10189.070123
888.276447,148.041188,2146.597232,-10112.460574
888.276767,888.247130,1036.288319,-10112.460574
888.277087,666.185348,-592.164754,-9806.022374
888.277407,814.226536,-1776.494261,-10112.460574
888.277727,814.226536,-2442.679609,-9806.022374
888.278047,1924.535449,518.144159,-10265.679673
888.278367,3256.906145,1924.535449,-9882.631924
888.278687,3775.050304,1776.494261,-9882.631924
888.279006,3849.070898,2146.597232,-9729.412825
888.279326,962.267725,-222.061783,-10495.508323
888.279646,-444.123565,-1258.350101,-9346.365076
888.279966,-1628.453072,-666.185348,-10342.289223
888.280286,888.247130,-740.205942,-9652.803275
888.280606,3330.926739,-962.267725,-9193.145976
888.280926,2664.741391,592.164754,-10495.508323
888.281246,888.247130,444.123565,-10035.851024
888.281565,814.226536,222.061783,-10112.460574
888.281885,2294.638420,1924.535449,-10342.289223
888.282205,2664.741391,1036.288319,-10265.679673
888.282525,1628.453072,1258.350101,-10342.289223
888.282845,962.267725,222.061783,-10725.336972
888.283165,1184.329507,0.000000,-9806.022374
888.283485,740.205942,370.102971,-10265.679673
888.283804,666.185348,666.185348,-10878.556072
888.284124,592.164754,1036.288319,-10189.070123
888.284444,-518.144159,1110.308913,-10495.508323
888.284764,296.082377,-148.041188,-10725.336972
888.285084,-1480.411884,-1184.329507,-9576.193725
888.285404,-3182.885551,-296.082377,-10189.070123
888.285724,-1850.514855,-888.247130,-10189.070123
888.286044,74.020594,74.020594,-9039.926876
888.286363,148.041188,1628.453072,-10955.165621
888.286683,-370.102971,666.185348,-9729.412825
888.287003,-1036.288319,74.020594,-9499.584175
888.287323,-1998.556043,444.123565,-10342.289223
888.287643,-1776.494261,-1184.329507,-8886.707777
888.287963,-1776.494261,-1998.556043,-9652.803275
888.288283,-3034.844362,-2368.659014,-9422.974625
888.288603,-888.247130,-1554.432478,-9422.974625
888.288922,-444.123565,-296.082377,-9882.631924
888.289134,518.144159,444.123565,-10035.851024
888.289454,2220.617826,888.247130,-9959.241474
888.289774,1184.329507,888.247130,-11031.775171
888.290094,370.102971,148.041188,-10495.508323
888.290414,222.061783,-148.041188,-9806.022374
888.290734,-296.082377,518.144159,-10801.946522
888.291054,0.000000,-740.205942,-10189.070123
888.291374,962.267725,888.247130,-10495.508323
888.291694,0.000000,814.226536,-10801.946522
888.292014,370.102971,-444.123565,-10342.289223
888.292334,0.000000,1110.308913,-9959.241474
888.292654,-222.061783,740.205942,-11644.651570
888.292974,1998.556043,1776.494261,-10342.289223
888.293294,740.205942,2220.617826,-10418.898773
888.293614,-518.144159,1554.432478,-10878.556072
888.293934,74.020594,296.082377,-9652.803275
888.294254,1480.411884,518.144159,-9959.241474
888.294574,4441.235652,1258.350101,-11108.384721
888.294894,3775.050304,888.247130,-9652.803275
888.295214,3182.885551,1702.473667,-10878.556072
888.295534,1554.432478,1406.391290,-10035.851024
888.295854,0.000000,1184.329507,-8963.317327
888.296174,-1258.350101,518.144159,-9882.631924
888.296494,148.041188,-296.082377,-9652.803275
888.296814,2220.617826,-1184.329507,-9039.926876
888.297134,1406.391290,296.082377,-10112.460574
888.297454,888.247130,1110.308913,-8810.098227
888.297774,2072.576638,888.247130,-9806.022374
888.298094,3256.906145,1036.288319,-10189.070123
888.298414,3552.988522,0.000000,-9576.193725
888.298734,1998.556043,74.020594,-9422.974625
888.299054,1628.453072,1332.370696,-9729.412825
888.299374,888.247130,1332.370696,-9729.412825
888.299694,1406.391290,1924.535449,-10418.898773
888.300014,3256.906145,1258.350101,-10572.117872
888.300334,2960.823768,444.123565,-10418.898773
888.300654,1776.494261,814.226536,-10725.336972
888.300974,814.226536,1184.329507,-10648.727422
888.301294,-666.185348,-444.123565,-9882.631924
888.301614,-1110.308913,740.205942,-10878.556072
888.301934,-1184.329507,0.000000,-9959.241474
888.302254,-592.164754,222.061783,-9729.412825
888.302574,-1110.308913,1258.350101,-11261.603821
888.302894,-370.102971,2220.617826,-10572.117872
888.303214,518.144159,3108.864956,-10572.117872
888.303534,888.247130,1480.411884,-11108.384721
888.303854,962.267725,74.020594,-9882.631924
888.304174,0.000000,74.020594,-10189.070123
888.304494,-814.226536,0.000000,-10265.679673
888.304814,74.020594,1258.350101,-9269.755526
888.305134,888.247130,1110.308913,-9959.241474
888.305454,1628.453072,-518.144159,-10112.460574
888.305774,1332.370696,-1406.391290,-8656.879127
888.306094,962.267725,-1702.473667,-9806.022374
888.306414,-444.123565,-1628.453072,-9116.536426
888.306734,-1628.453072,-592.164754,-9346.365076
888.307054,-1554.432478,296.082377,-10035.851024
888.307374,-1110.308913,-962.267725,-9346.365076
888.307694,-1924.535449,-1110.308913,-9269.755526
888.308014,-3923.091493,-1628.453072,-9806.022374
888.308334,-2812.782580,-888.247130,-9499.584175
888.308654,-740.205942,-148.041188,-9959.241474
888.308974,-2368.659014,296.082377,-10035.851024
888.309294,1702.473667,-1850.514855,-9806.022374
888.309614,666.185348,-2368.659014,-10189.070123
888.309934,-962.267725,-2516.700203,-10495.508323
888.310254,-962.267725,0.000000,-10112.460574
888.310574,-1406.391290,1924.535449,-10725.336972
888.310894,-444.123565,2220.617826,-11568.042020
888.311214,1110.308913,-518.144159,-10265.679673
888.311534,2368.659014,-1332.370696,-11031.775171
888.311854,740.205942,-740.205942,-10801.946522
888.312174,222.061783,222.061783,-11184.994271
888.312494,1776.494261,370.102971,-11338.213370
888.312814,74.020594,814.226536,-10801.946522
888.313134,-1850.514855,592.164754,-10189.070123
888.313454,-1480.411884,740.205942,-10878.556072
888.313774,0.000000,444.123565,-10189.070123
888.314094,2146.597232,444.123565,-10725.336972
888.314414,5033.400406,1110.308913,-10955.165621
888.314734,6587.832884,0.000000,-9499.584175
888.315054,5625.565159,-814.226536,-10189.070123
888.315374,1406.391290,-592.164754,-9652.803275
888.315694,74.020594,1184.329507,-9193.145976
888.316014,1258.350101,1628.453072,-9959.241474
888.316334,3404.947333,1258.350101,-9806.022374
888.316654,2368.659014,0.000000,-8963.317327
888.316974,1628.453072,-1776.494261,-9499.584175
888.317294,1702.473667,-1702.473667,-9499.584175
888.317614,814.226536,-666.185348,-9422.974625
888.317934,2442.679609,1406.391290,-9652.803275
888.318254,3627.009116,1628.453072,-9576.193725
888.318574,2738.761985,370.102971,-9806.022374
888.318894,2072.576638,-1036.288319,-9882.631924
888.319214,888.247130,222.061783,-9806.022374
888.319534,370.102971,1110.308913,-10112.460574
888.319854,1702.473667,1554.432478,-10725.336972
888.320174,962.267725,1406.391290,-10801.946522
888.320494,-1110.308913,370.102971,-11261.603821
888.320814,-1850.514855,1480.411884,-10801.946522
888.321134,-2664.741391,1776.494261,-10725.336972
888.321454,-1406.391290,1998.556043,-10801.946522
888.321774,-1110.308913,2738.761985,-10418.898773
888.322094,814.226536,888.247130,-10342.289223
888.322414,-592.164754,-592.164754,-10495.508323
888.322734,-2294.638420,370.102971,-10955.165621
888.323054,-1628.453072,1776.494261,-9806.022374
888.323374,1850.514855,2220.617826,-10572.117872
888.323694,2072.576638,2516.700203,-10418.898773
888.324014,-222.061783,888.247130,-9959.241474
888.324334,-1628.453072,0.000000,-9882.631924
888.324654,-3330.926739,-148.041188,-9269.755526
888.324974,-1110.308913,-370.102971,-9422.974625
888.325294,1258.350101,-370.102971,-10342.289223
888.325614,2294.638420,-222.061783,-9346.365076
888.325934,814.226536,-296.082377,-9269.755526
888.326254,-814.226536,814.226536,-9959.241474
888.326574,-1184.329507,1184.329507,-9193.145976
888.326894,444.123565,888.247130,-9729.412825
888.327214,740.205942,148.041188,-9806.022374
888.327534,-370.102971,-962.267725,-8963.317327
888.327854,-1406.391290,0.000000,-9882.631924
888.328174,-666.185348,-518.144159,-9576.193725
888.328494,74.020594,74.020594,-9499.584175
888.328814,-1480.411884,370.102971,-9959.241474
888.329134,1406.391290,74.020594,-9806.022374
888.329454,3034.844362,1776.494261,-9882.631924
888.329774,2368.659014,888.247130,-11031.775171
888.330094,1406.391290,1998.556043,-10495.508323
888.330414,1036.288319,1406.391290,-11338.213370
888.330734,962.267725,1184.329507,-11184.994271
888.331054,3552.988522,-148.041188,-10189.070123
888.331374,3108.864956,-1258.350101,-10418.898773
888.331694,1776.494261,-296.082377,-10801.946522
888.332014,1184.329507,370.102971,-10189.070123
888.332334,-296.082377,962.267725,-10572.117872
888.332654,0.000000,888.247130,-10418.898773
888.332974,0.000000,0.000000,-10112.460574
888.333294,222.061783,-1406.391290,-10112.460574
888.333614,888.247130,-740.205942,-10265.679673
888.333934,1036.288319,-592.164754,-9576.193725
888.334254,1998.556043,-222.061783,-10418.898773
888.334574,1924.535449,-296.082377,-10035.851024
888.334894,1036.288319,-962.267725,-10035.851024
888.335214,518.144159,-962.267725,-10112.460574
888.335534,740.205942,888.247130,-9959.241474
888.335854,1406.391290,2442.679609,-9729.412825
888.336175,2738.761985,3330.926739,-10265.679673
888.336495,2442.679609,74.020594,-9806.022374
888.336815,296.082377,-1554.432478,-9652.803275
888.337135,-2294.638420,-3330.926739,-9959.241474
888.337455,-1036.288319,-4885.359217,-8350.440928
888.337775,-370.102971,-3552.988522,-9269.755526
888.338095,0.000000,-1628.453072,-10189.070123
888.338415,962.267725,1332.370696,-9652.803275
888.338735,0.000000,3330.926739,-11031.775171
888.339055,0.000000,3849.070898,-9806.022374
888.339375,296.082377,2294.638420,-10112.460574
888.339695,0.000000,444.123565,-10035.851024
888.340015,740.205942,-2590.720797,-9959.241474
888.340335,1184.329507,-3849.070898,-9422.974625
888.340655,1480.411884,-2368.659014,-11031.775171
888.340975,74.020594,-1702.473667,-9499.584175
888.341295,-666.185348,888.247130,-10342.289223
888.341615,-296.082377,3478.967927,-10955.165621
888.341935,2664.741391,2960.823768,-10801.946522
888.342255,592.164754,3552.988522,-10878.556072
888.342575,0.000000,1332.370696,-11108.384721
888.342895,-444.123565,0.000000,-10035.851024
888.343215,-1332.370696,-962.267725,-9729.412825
888.343535,1258.350101,-1998.556043,-10265.679673
888.343855,666.185348,-1998.556043,-9346.365076
888.344175,-444.123565,74.020594,-10112.460574
888.344495,-2146.597232,1406.391290,-9882.631924
888.344815,-1332.370696,3552.988522,-9422.974625
888.345135,74.020594,3478.967927,-10342.289223
888.345455,1628.453072,1924.535449,-10648.727422
888.345775,2368.659014,-1036.288319,-9193.145976
888.346095,-1184.329507,-2886.803174,-10265.679673
888.346415,-2442.679609,-2664.741391,-9193.145976
888.346735,-1184.329507,-1258.350101,-9116.536426
888.347055,1110.308913,962.267725,-10265.679673
888.347375,1924.535449,2146.597232,-9193.145976
888.347695,1258.350101,2812.782580,-10035.851024
888.348015,1332.370696,2368.659014,-10189.070123
888.348335,-592.164754,1480.411884,-9576.193725
888.348655,-1702.473667,148.041188,-9806.022374
888.348975,0.000000,-1258.350101,-10878.556072
888.349295,-666.185348,-2738.761985,-8810.098227
888.349615,296.082377,-1110.308913,-10112.460574
888.349935,740.205942,444.123565,-10418.898773
888.350255,666.185348,2738.761985,-9959.241474
888.350575,2368.659014,4293.194464,-12027.699319
888.350895,3404.947333,3552.988522,-10189.070123
888.351215,3256.906145,1628.453072,-10035.851024
888.351535,1628.453072,-296.082377,-10418.898773
888.351855,2072.576638,-1110.308913,-9882.631924
888.352175,1628.453072,-666.185348,-9729.412825
888.352495,3034.844362,1406.391290,-11261.603821
888.352815,3404.947333,1184.329507,-10342.289223
888.353135,2664.741391,2442.679609,-10648.727422
888.353455,888.247130,1998.556043,-10955.165621
888.353775,592.164754,1258.350101,-9729.412825
888.354095,1406.391290,2220.617826,-10801.946522
888.354415,148.041188,444.123565,-10572.117872
888.354735,740.205942,962.267725,-9576.193725
888.355055,1258.350101,740.205942,-10265.679673
888.355375,74.020594,-1998.556043,-10112.460574
888.355695,1036.288319,-888.247130,-9346.365076
888.356015,2368.659014,814.226536,-9959.241474
888.356335,2960.823768,1110.308913,-9882.631924
888.356655,1406.391290,1850.514855,-10112.460574
888.356975,-814.226536,962.267725,-10265.679673
888.357295,296.082377,0.000000,-9422.974625
888.357615,1258.350101,-296.082377,-10418.898773
888.357935,1332.370696,888.247130,-10418.898773
888.358255,592.164754,222.061783,-9269.755526
888.358575,962.267725,0.000000,-9959.241474
888.358895,888.247130,-740.205942,-9882.631924
888.359215,0.000000,962.267725,-10189.070123
888.359535,-2146.597232,-592.164754,-9499.584175
888.359855,-1184.329507,-1110.308913,-9729.412825
888.360175,-1554.432478,-1924.535449,-8810.098227
888.360495,-666.185348,-2516.700203,-9806.022374
888.360815,-296.082377,-2368.659014,-9116.536426
888.361135,-1258.350101,-592.164754,-9959.241474
888.361455,74.020594,-518.144159,-9499.584175
888.361775,2220.617826,148.041188,-9806.022374
888.362095,74.020594,-888.247130,-9729.412825
888.362415,-2072.576638,-444.123565,-10648.727422
888.362735,-4663.297435,-1258.350101,-9576.193725
888.363055,-1776.494261,-1628.453072,-10265.679673
888.363375,-592.164754,-1258.350101,-10418.898773
888.363695,148.041188,666.185348,-10265.679673
888.364015,1480.411884,666.185348,-10801.946522
888.364335,740.205942,0.000000,-11184.994271
888.364655,-888.247130,-1258.350101,-9806.022374
888.364975,-1628.453072,0.000000,-11108.384721
888.365295,-1924.535449,-370.102971,-10418.898773
888.365615,444.123565,-666.185348,-10342.289223
888.365935,74.020594,-2072.576638,-10112.460574
888.366255,814.226536,-1406.391290,-10648.727422
888.366575,296.082377,0.000000,-9959.241474
888.366895,814.226536,2072.576638,-10801.946522
888.367215,370.102971,1702.473667,-10418.898773
888.367535,1406.391290,296.082377,-9422.974625
888.367855,296.082377,-1184.329507,-10189.070123
888.368175,-148.041188,-2442.679609,-9346.365076
888.368495,-370.102971,-518.144159,-9346.365076
888.368815,592.164754,444.123565,-10112.460574
888.369135,2590.720797,1480.411884,-9806.022374
888.369455,3256.906145,1258.350101,-9729.412825
888.369775,2960.823768,-962.267725,-10648.727422
888.370095,2368.659014,-592.164754,-9499.584175
888.370415,1480.411884,814.226536,-10035.851024
888.370735,2072.576638,2516.700203,-10342.289223
888.371055,2442.679609,3034.844362,-9806.022374
888.371375,3701.029710,1924.535449,-10801.946522
888.371695,3330.926739,444.123565,-10112.460574
888.372015,2146.597232,-1332.370696,-9422.974625
888.372335,2072.576638,370.102971,-10801.946522
888.372655,814.226536,1480.411884,-9806.022374
888.372975,2220.617826,2220.617826,-10725.336972
888.373295,1924.535449,2368.659014,-10342.289223
888.373615,1258.350101,962.267725,-10112.460574
888.373935,-148.041188,296.082377,-9959.241474
888.374255,-518.144159,1406.391290,-10265.679673
888.374575,1258.350101,444.123565,-11414.822920
888.374895,1628.453072,1850.514855,-10495.508323
888.375215,74.020594,2442.679609,-10878.556072
888.375535,148.041188,2294.638420,-9959.241474
888.375855,-814.226536,444.123565,-9882.631924
888.376175,0.000000,666.185348,-11414.822920
888.376495,0.000000,-814.226536,-9269.755526
888.376815,-370.102971,814.226536,-10112.460574
888.377135,-2294.638420,444.123565,-9806.022374
888.377455,-222.061783,2072.576638,-9959.241474
888.377775,-1110.308913,2146.597232,-9269.755526
888.378095,962.267725,2072.576638,-10342.289223
888.378415,814.226536,1924.535449,-9039.926876
888.378735,0.000000,740.205942,-10495.508323
888.379055,-740.205942,-1924.535449,-8810.098227
888.379375,-1850.514855,-2442.679609,-8886.707777
888.379695,-1480.411884,-1850.514855,-9269.755526
888.380015,-1332.370696,-1332.370696,-9806.022374
888.380335,-1776.494261,888.247130,-9193.145976
888.380655,-1998.556043,814.226536,-10725.336972
888.380975,-370.102971,592.164754,-9422.974625
888.381295,666.185348,1258.350101,-10801.946522
888.381615,-518.144159,74.020594,-10189.070123
888.381935,-814.226536,-518.144159,-10189.070123
888.382255,-1702.473667,-666.185348,-10878.556072
888.382575,0.000000,-148.041188,-10955.165621
888.382895,1184.329507,74.020594,-10035.851024
888.383215,2590.720797,666.185348,-12180.918418
888.383535,1036.288319,222.061783,-10648.727422
888.383855,296.082377,2442.679609,-10265.679673
888.384175,888.247130,2886.803174,-11491.432470
888.384495,1480.411884,1998.556043,-10189.070123
888.384815,1036.288319,148.041188,-10801.946522
888.385135,1406.391290,-1480.411884,-11184.994271
888.385455,2442.679609,-3330.926739,-9346.365076
888.385776,2368.659014,-1332.370696,-10112.460574
888.386096,740.205942,888.247130,-10189.070123
888.386416,2294.638420,2368.659014,-10035.851024
888.386736,2442.679609,2368.659014,-10648.727422
888.387056,3404.947333,1998.556043,-10342.289223
888.387376,3182.885551,1110.308913,-9806.022374
888.387696,1184.329507,-148.041188,-9882.631924
888.388016,888.247130,-1110.308913,-9882.631924
888.388336,2294.638420,-370.102971,-8963.317327
888.388656,2812.782580,-1406.391290,-9422.974625
888.388976,2664.741391,-518.144159,-9039.926876
888.389296,518.144159,444.123565,-9652.803275
888.389616,-1702.473667,2294.638420,-10495.508323
888.389936,-444.123565,962.267725,-9422.974625
888.390256,444.123565,1036.288319,-9039.926876
888.390576,814.226536,-1184.329507,-10342.289223
888.390896,-296.082377,-2886.803174,-9269.755526
888.391216,-740.205942,-1776.494261,-9729.412825
888.391536,-1332.370696,518.144159,-10265.679673
888.391856,296.082377,1776.494261,-9882.631924
888.392176,1628.453072,3108.864956,-10648.727422
888.392496,2146.597232,1036.288319,-10572.117872
888.392816,888.247130,-888.247130,-10189.070123
888.393136,-1036.288319,-370.102971,-9652.803275
888.393456,-1480.411884,-1480.411884,-10648.727422
888.393776,-518.144159,0.000000,-9882.631924
888.394096,-666.185348,444.123565,-11031.775171
888.394416,-592.164754,814.226536,-9576.193725
888.394736,-1258.350101,1258.350101,-10112.460574
888.395056,-1924.535449,1850.514855,-11108.384721
888.395376,0.000000,1554.432478,-9882.631924
888.395696,962.267725,888.247130,-10418.898773
888.396016,962.267725,0.000000,-10265.679673
888.396336,518.144159,-1332.370696,-9422.974625
888.396656,0.000000,-1702.473667,-9882.631924
888.396976,518.144159,-740.205942,-10189.070123
888.397296,1036.288319,1480.411884,-9652.803275
888.397616,-296.082377,2516.700203,-10342.289223
888.397936,370.102971,1850.514855,-9806.022374
888.398256,1036.288319,-592.164754,-10112.460574
888.398576,0.000000,-2368.659014,-9499.584175
888.398896,-1036.288319,-3256.906145,-9116.536426
888.399216,-444.123565,-1998.556043,-8656.879127
888.399536,888.247130,-592.164754,-9882.631924
888.399856,370.102971,-666.185348,-9959.241474
888.400176,-370.102971,-666.185348,-9346.365076
888.400496,-2368.659014,148.041188,-9806.022374
888.400816,-370.102971,0.000000,-9806.022374
888.401136,666.185348,592.164754,-10342.289223
888.401457,1406.391290,-740.205942,-11031.775171
888.401777,962.267725,-2368.659014,-9346.365076
888.402097,-222.061783,-1554.432478,-10035.851024
888.402417,-1258.350101,74.020594,-10725.336972
888.402737,-222.061783,1258.350101,-10189.070123
888.403057,1628.453072,1850.514855,-10648.727422
888.403377,3552.988522,962.267725,-11414.822920
888.403697,3701.029710,222.061783,-10878.556072
888.404017,962.267725,-370.102971,-10418.898773
888.404337,-444.123565,-518.144159,-10878.556072
888.404657,-370.102971,2146.597232,-10801.946522
888.404977,-148.041188,3701.029710,-10648.727422
888.405297,1628.453072,3182.885551,-10725.336972
888.405617,2368.659014,1702.473667,-9882.631924
888.405937,2294.638420,444.123565,-10495.508323
888.406257,1036.288319,-592.164754,-9806.022374
888.406577,0.000000,1184.329507,-10189.070123
888.406897,1406.391290,2294.638420,-9882.631924
888.407217,2886.803174,370.102971,-10648.727422
888.407537,3108.864956,2368.659014,-9652.803275
888.407857,222.061783,666.185348,-10801.946522
888.408177,-148.041188,666.185348,-8963.317327
888.408497,148.041188,1036.288319,-9959.241474
888.408817,2442.679609,1480.411884,-10878.556072
888.409137,3256.906145,962.267725,-9729.412825
888.409457,592.164754,148.041188,-10112.460574
888.409777,-3182.885551,0.000000,-9729.412825
888.410097,-4663.297435,444.123565,-8810.098227
888.410417,-2960.823768,1406.391290,-9959.241474
888.410737,370.102971,-518.144159,-9806.022374
888.411057,2368.659014,-1258.350101,-9346.365076
888.411377,2368.659014,-148.041188,-10648.727422
888.411697,3627.009116,1776.494261,-9806.022374
888.412017,4885.359217,2738.761985,-10878.556072
888.412337,3404.947333,3330.926739,-11031.775171
888.412657,1702.473667,2146.597232,-10189.070123
888.412977,-2072.576638,1036.288319,-9729.412825
888.413297,-2220.617826,-888.247130,-10572.117872
888.413617,-814.226536,-1184.329507,-9729.412825
888.413937,0.000000,370.102971,-10955.165621
888.414257,740.205942,148.041188,-10342.289223
888.414577,1258.350101,296.082377,-9039.926876
888.414897,814.226536,1480.411884,-10725.336972
888.415217,-296.082377,1702.473667,-10878.556072
888.415538,-962.267725,2368.659014,-10035.851024
888.415858,-370.102971,2294.638420,-10112.460574
888.416178,592.164754,-592.164754,-9576.193725
888.416498,0.000000,-2220.617826,-9806.022374
888.416818,-518.144159,-2368.659014,-10495.508323
888.417138,592.164754,-1702.473667,-9806.022374
888.417458,296.082377,-222.061783,-9576.193725
888.417778,-962.267725,814.226536,-10112.460574
888.418098,-592.164754,814.226536,-10035.851024
888.418418,-1702.473667,74.020594,-9882.631924
888.418738,-814.226536,-814.226536,-9652.803275
888.419058,222.061783,-1184.329507,-9576.193725
888.419378,-740.205942,-1406.391290,-9269.755526
888.419698,-370.102971,-2664.741391,-10189.070123
888.420018,1406.391290,-3923.091493,-9116.536426
888.420338,1554.432478,-3701.029710,-9346.365076
888.420658,592.164754,-296.082377,-10418.898773
888.420978,-814.226536,1776.494261,-9576.193725
888.421298,-2220.617826,4293.194464,-11031.775171
888.421618,-888.247130,3034.844362,-10112.460574
888.421938,1776.494261,-296.082377,-9959.241474
888.422258,2294.638420,-2368.659014,-10955.165621
888.422578,2294.638420,-2072.576638,-10189.070123
888.422898,1332.370696,-1480.411884,-10112.460574
888.423218,1480.411884,296.082377,-11261.603821
888.423538,1998.556043,1702.473667,-10572.117872
888.423858,2146.597232,2516.700203,-11031.775171
888.424178,888.247130,1406.391290,-11797.870669
888.424498,518.144159,1332.370696,-9729.412825
888.424818,222.061783,1924.535449,-10495.508323
888.425138,1924.535449,296.082377,-11031.775171
888.425458,4737.318029,-2368.659014,-9882.631924
888.425778,2220.617826,-2590.720797,-10572.117872
888.426098,1258.350101,-2146.597232,-9499.584175
888.426418,-592.164754,1332.370696,-9806.022374
888.426738,-592.164754,2590.720797,-10035.851024
888.427058,3034.844362,2294.638420,-9959.241474
888.427378,3034.844362,222.061783,-9422.974625
888.427698,1702.473667,-1776.494261,-9806.022374
888.428018,1110.308913,-2738.761985,-9116.536426
888.428338,0.000000,-1850.514855,-9346.365076
888.428658,-666.185348,370.102971,-9806.022374
888.428978,592.164754,1110.308913,-9652.803275
888.429298,888.247130,888.247130,-9422.974625
888.429619,74.020594,148.041188,-10418.898773
888.429939,-370.102971,1110.308913,-9499.584175
888.430259,-1036.288319,2368.659014,-9882.631924
888.430579,2738.761985,1036.288319,-10189.070123
888.430899,2960.823768,-1258.350101,-9346.365076
888.431219,-592.164754,-296.082377,-10648.727422
888.431539,-2368.659014,-1036.288319,-9576.193725
888.431859,-1850.514855,1036.288319,-9652.803275
888.432179,444.123565,3182.885551,-10801.946522
888.432499,2072.576638,3923.091493,-11031.775171
888.432819,592.164754,1628.453072,-10572.117872
888.433139,-666.185348,518.144159,-11261.603821
888.433459,-740.205942,-592.164754,-9806.022374
888.433779,74.020594,444.123565,-10189.070123
888.434099,814.226536,1850.514855,-11338.213370
888.434419,1184.329507,1554.432478,-10265.679673
888.434739,0.000000,370.102971,-10418.898773
888.435059,-962.267725,814.226536,-10495.508323
888.435379,-2146.597232,1036.288319,-9652.803275
888.435699,-888.247130,1850.514855,-10418.898773
888.436019,1332.370696,1702.473667,-10035.851024
888.436339,2886.803174,-444.123565,-10112.460574
888.436659,666.185348,0.000000,-10265.679673
888.436979,-1850.514855,-814.226536,-9269.755526
888.437299,-2812.782580,0.000000,-9193.145976
888.437619,-666.185348,740.205942,-9806.022374
888.437939,1184.329507,1406.391290,-9422.974625
888.438259,1110.308913,74.020594,-9193.145976
888.438579,1110.308913,-1184.329507,-9652.803275
888.438899,0.000000,-1776.494261,-8963.317327
888.439219,-666.185348,-592.164754,-9806.022374
888.439539,-814.226536,222.061783,-9729.412825
888.439859,444.123565,666.185348,-9116.536426
888.440179,592.164754,1406.391290,-10189.070123
888.440499,1184.329507,1554.432478,-10878.556072
888.440819,1554.432478,888.247130,-9959.241474
888.441139,518.144159,1036.288319,-10265.679673
888.441459,592.164754,0.000000,-10035.851024
888.441779,2294.638420,0.000000,-9959.241474
888.442099,1110.308913,-814.226536,-11184.994271
888.442419,1554.432478,-2368.659014,-10265.679673
888.442739,666.185348,0.000000,-10189.070123
888.443059,814.226536,1924.535449,-11568.042020
888.443379,2812.782580,3330.926739,-10725.336972
888.443700,3627.009116,3256.906145,-10495.508323
888.444020,1924.535449,1480.411884,-11568.042020
888.444340,1110.308913,-370.102971,-10189.070123
888.444660,-222.061783,-444.123565,-10189.070123
888.444980,666.185348,74.020594,-10572.117872
888.445300,2294.638420,370.102971,-10265.679673
888.445620,1628.453072,0.000000,-10648.727422
888.445940,1628.453072,-814.226536,-9806.022374
888.446260,-740.205942,-444.123565,-9576.193725
888.446580,-1776.494261,888.247130,-10035.851024
888.446900,-666.185348,1110.308913,-10112.460574
888.447220,592.164754,888.247130,-9806.022374
888.447540,888.247130,-592.164754,-9729.412825
888.447860,1480.411884,-1924.535449,-9806.022374
888.448180,888.247130,-3923.091493,-8886.707777
888.448500,296.082377,-2072.576638,-9576.193725
888.448820,148.041188,-518.144159,-9576.193725
888.449140,592.164754,1480.411884,-9576.193725
888.449460,1628.453072,1850.514855,-10572.117872
888.449780,1110.308913,370.102971,-10189.070123
888.450100,0.000000,-1924.535449,-9576.193725
888.450420,-1036.288319,-1924.535449,-10189.070123
888.450740,-888.247130,-1406.391290,-9959.241474
888.451060,-1480.411884,-962.267725,-10112.460574
888.451380,-2294.638420,0.000000,-10342.289223
888.451700,-1110.308913,592.164754,-10112.460574
888.452020,-888.247130,666.185348,-10342.289223
888.452340,74.020594,0.000000,-11108.384721
888.452660,888.247130,0.000000,-9959.241474
888.452980,740.205942,1036.288319,-10572.117872
888.453300,1258.350101,592.164754,-11108.384721
888.453620,-740.205942,148.041188,-9729.412825
888.453940,-2294.638420,0.000000,-10648.727422
888.454260,-370.102971,-814.226536,-10418.898773
888.454580,2220.617826,148.041188,-9806.022374
888.454900,1850.514855,740.205942,-11338.213370
888.455220,0.000000,814.226536,-10112.460574
888.455540,-888.247130,1554.432478,-9806.022374
888.455860,1184.329507,1554.432478,-10725.336972
888.456180,2516.700203,888.247130,-9806.022374
888.456500,-370.102971,962.267725,-10265.679673
888.456820,-2886.803174,0.000000,-10342.289223
888.457140,-1776.494261,-888.247130,-8273.831378
888.457460,666.185348,740.205942,-10189.070123
888.457781,2812.782580,740.205942,-10189.070123
888.458101,2368.659014,-222.061783,-9422.974625
888.458421,592.164754,370.102971,-10112.460574
888.458741,1110.308913,814.226536,-9652.803275
888.459061,1258.350101,3108.864956,-9729.412825
888.459381,666.185348,3034.844362,-10189.070123
888.459701,962.267725,592.164754,-9116.536426
888.460021,1702.473667,-1332.370696,-8810.098227
888.460341,2738.761985,-2146.597232,-9652.803275
888.460661,3627.009116,-2368.659014,-9193.145976
888.460981,1850.514855,888.247130,-9806.022374
888.461301,1036.288319,3478.967927,-10572.117872
888.461621,2368.659014,4589.276840,-9806.022374
888.461941,1628.453072,4071.132681,-10725.336972
888.462261,888.247130,2294.638420,-10648.727422
888.462581,-222.061783,1036.288319,-10265.679673
888.462901,814.226536,0.000000,-10342.289223
888.463221,2294.638420,-296.082377,-10878.556072
888.463541,1554.432478,814.226536,-9959.241474
888.463861,444.123565,1332.370696,-10801.946522
888.464181,444.123565,1628.453072,-10955.165621
888.464501,1998.556043,2220.617826,-9959.241474
888.464821,1036.288319,3034.844362,-11031.775171
888.465141,-444.123565,2812.782580,-10725.336972
888.465461,592.164754,1036.288319,-9806.022374
888.465781,0.000000,-518.144159,-10572.117872
888.466101,74.020594,-2294.638420,-9652.803275
888.466421,-444.123565,-1628.453072,-9422.974625
888.466741,-740.205942,0.000000,-10725.336972
888.467061,370.102971,888.247130,-9806.022374
888.467381,0.000000,1924.535449,-10189.070123
888.467701,-148.041188,1110.308913,-10112.460574
888.468021,370.102971,0.000000,-9269.755526
888.468341,592.164754,-888.247130,-10112.460574
888.468661,1332.370696,-1480.411884,-10112.460574
888.468981,592.164754,-1480.411884,-9193.145976
888.469301,-962.267725,-296.082377,-9806.022374
888.469621,-592.164754,0.000000,-10035.851024
888.469941,222.061783,740.205942,-9652.803275
888.470261,592.164754,370.102971,-10418.898773
888.470581,148.041188,-518.144159,-9959.241474
888.470901,0.000000,-1850.514855,-9499.584175
888.471221,-1184.329507,-2294.638420,-10572.117872
888.471541,-1036.288319,-2368.659014,-9576.193725
888.471862,-740.205942,-1258.350101,-9729.412825
888.472182,-1924.535449,740.205942,-11031.775171
888.472502,0.000000,666.185348,-9882.631924
888.472822,-370.102971,740.205942,-10342.289223
888.473142,-1924.535449,222.061783,-11338.213370
888.473462,-1480.411884,-962.267725,-9806.022374
888.473782,-1554.432478,-1110.308913,-10725.336972
888.474102,1480.411884,-1554.432478,-10725.336972
888.474422,1554.432478,-888.247130,-9959.241474
888.474742,1332.370696,0.000000,-10801.946522
888.475062,148.041188,1258.350101,-10725.336972
888.475382,-1110.308913,1184.329507,-9652.803275
888.475702,-518.144159,1258.350101,-10725.336972
888.476022,444.123565,592.164754,-9882.631924
888.476342,962.267725,-1184.329507,-9576.193725
888.476662,2220.617826,-666.185348,-10648.727422
888.476982,2368.659014,-370.102971,-10418.898773
888.477302,1110.308913,444.123565,-10418.898773
888.477622,148.041188,1998.556043,-10648.727422
888.477942,2368.659014,1998.556043,-9576.193725
888.478262,3256.906145,2886.803174,-9806.022374
888.478582,1850.514855,3849.070898,-10725.336972
888.478902,2886.803174,2960.823768,-10495.508323
888.479222,3404.947333,1702.473667,-10189.070123
888.479542,2812.782580,370.102971,-10265.679673
888.479862,2146.597232,-1332.370696,-9499.584175
888.480182,3034.844362,-1036.288319,-9422.974625
888.480502,3627.009116,2516.700203,-10725.336972
888.480822,3923.091493,4959.379811,-9959.241474
888.481142,1776.494261,6809.894666,-10725.336972
888.481462,2664.741391,5477.523971,-10572.117872
888.481782,4145.153275,1554.432478,-9576.193725
888.482102,5107.421000,74.020594,-9729.412825
888.482422,4515.256246,-296.082377,-10342.289223
888.482742,2590.720797,-1406.391290,-9729.412825
888.483062,1850.514855,-370.102971,-9729.412825
888.483382,2664.741391,1998.556043,-9959.241474
888.483702,3108.864956,4145.153275,-10112.460574
888.484022,2516.700203,5255.462188,-10035.851024
888.484342,1480.411884,6143.709319,-10955.165621
888.484662,1184.329507,4737.318029,-10265.679673
888.484982,666.185348,3923.091493,-10265.679673
888.485302,1850.514855,1776.494261,-10342.289223
888.485622,2664.741391,814.226536,-9729.412825
888.485943,2812.782580,1036.288319,-9882.631924
888.486263,3034.844362,2886.803174,-9959.241474
888.486583,3701.029710,4515.256246,-10189.070123
888.486903,2294.638420,5847.626942,-10112.460574
888.487223,1628.453072,5551.544565,-10495.508323
888.487543,1924.535449,4071.132681,-9882.631924
888.487863,2072.576638,2590.720797,-9806.022374
888.488183,2812.782580,1554.432478,-9806.022374
888.488503,3849.070898,1702.473667,-10342.289223
888.488823,2516.700203,1776.494261,-10035.851024
888.489143,814.226536,2442.679609,-9729.412825
888.489463,962.267725,2516.700203,-9652.803275
888.489783,1998.556043,3552.988522,-9882.631924
888.490103,2072.576638,2664.741391,-9576.193725
888.490423,666.185348,2368.659014,-10418.898773
888.490743,1628.453072,1406.391290,-9806.022374
888.491063,2812.782580,962.267725,-10112.460574
888.491383,3330.926739,814.226536,-9729.412825
888.491704,3108.864956,1406.391290,-10112.460574
888.492024,2072.576638,2220.617826,-10265.679673
888.492344,1480.411884,3627.009116,-9806.022374
888.492664,296.082377,4589.276840,-10189.070123
888.492984,74.020594,4293.194464,-11491.432470
888.493304,-370.102971,2368.659014,-10112.460574
888.493624,-592.164754,0.000000,-10495.508323
888.493944,-592.164754,-592.164754,-9576.193725
888.494264,666.185348,0.000000,-10418.898773
888.494584,2368.659014,1480.411884,-11031.775171
888.494904,1554.432478,2960.823768,-10572.117872
888.495224,666.185348,4515.256246,-10035.851024
888.495544,1258.350101,4811.338623,-10112.460574
888.495864,2738.761985,3256.906145,-10112.460574
888.496184,3775.050304,1924.535449,-10418.898773
888.496505,4811.338623,666.185348,-10112.460574
888.496825,5625.565159,0.000000,-10418.898773
888.497145,4885.359217,666.185348,-9806.022374
888.497465,3108.864956,1184.329507,-10342.289223
888.497785,1332.370696,3404.947333,-9652.803275
888.498105,1998.556043,4737.318029,-10342.289223
888.498425,3256.906145,4811.338623,-10572.117872
888.498745,1406.391290,3775.050304,-10801.946522
888.499065,814.226536,1406.391290,-9729.412825
888.499385,1850.514855,148.041188,-9806.022374
888.499705,5847.626942,0.000000,-10572.117872
888.500025,6661.853478,1628.453072,-10189.070123
888.500345,5255.462188,3256.906145,-10265.679673
888.500665,3627.009116,5107.421000,-10112.460574
888.500985,3552.988522,5699.585753,-10342.289223
888.501306,4367.215058,4811.338623,-10572.117872
888.501626,3034.844362,3330.926739,-10265.679673
888.501946,1702.473667,814.226536,-9806.022374
888.502266,1702.473667,-518.144159,-9729.412825
888.502586,2220.617826,-444.123565,-9806.022374
888.502906,2738.761985,1332.370696,-10342.289223
888.503226,1480.411884,2516.700203,-9806.022374
888.503546,1258.350101,3478.967927,-10112.460574
888.503866,2220.617826,3404.947333,-9806.022374
888.504186,3256.906145,3701.029710,-10342.289223
888.504506,3627.009116,3404.947333,-10495.508323
888.504826,3108.864956,2738.761985,-10035.851024
888.505146,1702.473667,2664.741391,-10418.898773
888.505466,814.226536,2220.617826,-9806.022374
888.505786,0.000000,2220.617826,-8580.269578
888.506107,370.102971,1554.432478,-10495.508323
888.506427,1258.350101,962.267725,-9499.584175
888.506747,740.205942,888.247130,-10035.851024
888.507067,0.000000,1332.370696,-10112.460574
888.507387,0.000000,2516.700203,-9039.926876
888.507707,1406.391290,3849.070898,-10572.117872
888.508027,3404.947333,3404.947333,-10572.117872
888.508347,3552.988522,2886.803174,-10418.898773
888.508667,1480.411884,2960.823768,-10265.679673
888.508987,-148.041188,2442.679609,-10265.679673
888.509307,-1480.411884,2812.782580,-9806.022374
888.509627,-814.226536,2738.761985,-10342.289223
888.509947,1702.473667,1332.370696,-9882.631924
888.510267,2590.720797,518.144159,-9499.584175
888.510587,2886.803174,1036.288319,-10418.898773
888.510907,3108.864956,2886.803174,-10189.070123
888.511228,2442.679609,4737.318029,-10572.117872
888.511548,2738.761985,4441.235652,-9959.241474
888.511868,3997.112087,3404.947333,-9806.022374
888.512188,4737.318029,1850.514855,-10265.679673
888.512508,4145.153275,444.123565,-9806.022374
888.512828,3256.906145,814.226536,-9806.022374
888.513148,2590.720797,2442.679609,-10112.460574
888.513468,2590.720797,3701.029710,-10035.851024
888.513788,1258.350101,3627.009116,-9806.022374
888.514108,1110.308913,2368.659014,-9422.974625
888.514428,3034.844362,1036.288319,-9499.584175
888.514748,4367.215058,888.247130,-10035.851024
888.515068,5403.503377,1554.432478,-9882.631924
888.515388,5551.544565,3182.885551,-10189.070123
888.515708,5921.647536,3997.112087,-9959.241474
888.516029,5699.585753,4811.338623,-10495.508323
888.516349,3404.947333,5033.400406,-10725.336972
888.516669,814.226536,4441.235652,-10342.289223
888.516989,370.102971,2368.659014,-9959.241474
888.517309,1406.391290,518.144159,-9882.631924
888.517629,2368.659014,-1036.288319,-9729.412825
888.517949,1776.494261,-592.164754,-9806.022374
888.518269,1554.432478,1702.473667,-9576.193725
888.518589,3034.844362,4737.318029,-10112.460574
888.518909,4515.256246,6809.894666,-10572.117872
888.519229,4663.297435,7105.977043,-11414.822920
888.519549,3997.112087,5107.421000,-10801.946522
888.519869,1702.473667,2368.659014,-10572.117872
888.520189,0.000000,814.226536,-9806.022374
888.520509,-1332.370696,296.082377,-9806.022374
888.520830,-1184.329507,296.082377,-9652.803275
888.521150,518.144159,222.061783,-9652.803275
888.521470,1036.288319,1110.308913,-10801.946522
888.521790,1258.350101,2368.659014,-10112.460574
888.522110,2072.576638,3997.112087,-10265.679673
888.522430,4071.132681,5403.503377,-10495.508323
888.522750,5625.565159,5477.523971,-10418.898773
888.523070,5033.400406,4737.318029,-10572.117872
888.523390,3034.844362,2886.803174,-10112.460574
888.523710,1480.411884,1776.494261,-10112.460574
888.524030,518.144159,1998.556043,-10342.289223
888.524350,222.061783,3108.864956,-9729.412825
888.524670,-888.247130,2220.617826,-9806.022374
888.524990,-1480.411884,1406.391290,-9652.803275
888.525310,-962.267725,444.123565,-9576.193725
888.525631,148.041188,666.185348,-10112.460574
888.525951,2442.679609,1110.308913,-9576.193725
888.526271,5033.400406,2590.720797,-10035.851024
888.526591,6661.853478,3997.112087,-10189.070123
888.526911,7179.997637,4737.318029,-10725.336972
888.527231,5847.626942,5625.565159,-11414.822920
888.527551,3923.091493,5255.462188,-10801.946522
888.527871,1850.514855,4663.297435,-10572.117872
888.528191,1110.308913,2960.823768,-10495.508323
888.528511,814.226536,1184.329507,-9806.022374
888.528831,0.000000,222.061783,-9882.631924
888.529151,-592.164754,-222.061783,-9806.022374
888.529471,-296.082377,444.123565,-9729.412825
888.529791,814.226536,1998.556043,-10035.851024
888.530111,2960.823768,3478.967927,-10342.289223
888.530432,5033.400406,4293.194464,-10189.070123
888.530752,6513.812290,4071.132681,-10418.898773
888.531072,5255.462188,3552.988522,-10342.289223
888.531392,3775.050304,2590.720797,-10418.898773
888.531712,1998.556043,1924.535449,-10725.336972
888.532032,444.123565,1110.308913,-9882.631924
888.532352,-1332.370696,148.041188,-9576.193725
888.532672,-1480.411884,-370.102971,-9959.241474
888.532992,-1036.288319,-222.061783,-9882.631924
888.533312,-296.082377,0.000000,-9806.022374
888.533632,592.164754,888.247130,-9652.803275
888.533952,2220.617826,1924.535449,-9882.631924
888.534272,4145.153275,2812.782580,-10265.679673
888.534592,4293.194464,3701.029710,-10342.289223
888.534912,3997.112087,3923.091493,-10495.508323
888.535233,3404.947333,3552.988522,-10418.898773
888.535553,3034.844362,2664.741391,-10572.117872
888.535873,2368.659014,1480.411884,-10495.508323
888.536193,740.205942,1036.288319,-10035.851024
888.536513,0.000000,962.267725,-9882.631924
888.536833,222.061783,1406.391290,-10418.898773
888.537153,814.226536,1924.535449,-10112.460574
888.537473,2516.700203,2072.576638,-10265.679673
888.537793,3552.988522,2886.803174,-10342.289223
888.538113,5033.400406,3478.967927,-10035.851024
888.538433,6661.853478,3701.029710,-10418.898773
888.538753,6883.915261,4737.318029,-10572.117872
888.539073,6587.832884,5329.482782,-10648.727422
888.539393,5403.503377,5477.523971,-10878.556072
888.539713,3330.926739,4885.359217,-10725.336972
888.540034,1184.329507,3034.844362,-11031.775171
888.540354,-888.247130,1924.535449,-10035.851024
888.540674,-814.226536,518.144159,-9652.803275
888.540994,444.123565,-740.205942,-9499.584175
888.541314,1998.556043,148.041188,-8580.269578
888.541634,3256.906145,1554.432478,-9882.631924
888.541954,4589.276840,4515.256246,-9959.241474
888.542274,5625.565159,6883.915261,-10189.070123
888.542594,6365.771101,7772.162391,-10495.508323
888.542914,5995.668130,7402.059420,-9729.412825
888.543234,5033.400406,5625.565159,-10342.289223
888.543554,4071.132681,3701.029710,-9959.241474
888.543874,3182.885551,2368.659014,-9806.022374
888.544194,814.226536,2294.638420,-9729.412825
888.544514,-1998.556043,2368.659014,-9576.193725
888.544835,-3404.947333,2812.782580,-9346.365076
888.545155,-1998.556043,2812.782580,-9882.631924
888.545475,592.164754,1998.556043,-9959.241474
888.545795,2368.659014,1924.535449,-9729.412825
888.546115,2738.761985,2220.617826,-9806.022374
888.546435,3108.864956,3552.988522,-9959.241474
888.546755,3997.112087,5181.441594,-10112.460574
888.547075,4885.359217,6291.750507,-10418.898773
888.547395,5255.462188,5847.626942,-10878.556072
888.547715,3404.947333,4737.318029,-11031.775171
888.548035,0.000000,3256.906145,-10495.508323
888.548355,-2738.761985,2072.576638,-10189.070123
888.548675,-2960.823768,888.247130,-9959.241474
888.548995,-1628.453072,-148.041188,-9729.412825
888.549315,-888.247130,-444.123565,-9729.412825
888.549635,296.082377,0.000000,-9269.755526
888.549956,3182.885551,1702.473667,-9729.412825
888.550276,5551.544565,4219.173869,-10725.336972
888.550596,6957.935855,5995.668130,-10801.946522
888.550916,5625.565159,6735.874072,-10495.508323
888.551236,4663.297435,5995.668130,-10572.117872
888.551556,3627.009116,3330.926739,-10112.460574
888.551876,2072.576638,1036.288319,-9806.022374
888.552196,962.267725,-666.185348,-9576.193725
888.552516,888.247130,-962.267725,-9806.022374
888.552836,592.164754,-370.102971,-10035.851024
888.553156,296.082377,888.247130,-9729.412825
888.553476,148.041188,2220.617826,-9882.631924
888.553796,1924.535449,2960.823768,-9959.241474
888.554116,4737.318029,2664.741391,-10035.851024
888.554436,6957.935855,2294.638420,-9806.022374
888.554757,7550.100608,2590.720797,-10342.289223
888.555077,6365.771101,3182.885551,-10495.508323
888.555397,4811.338623,4367.215058,-10342.289223
888.555717,2664.741391,4737.318029,-10189.070123
888.556037,1036.288319,2664.741391,-10265.679673
888.556357,296.082377,148.041188,-10035.851024
888.556677,0.000000,-1702.473667,-10035.851024
888.556997,0.000000,-1924.535449,-10725.336972
888.557317,-148.041188,-370.102971,-9729.412825
888.557637,666.185348,1628.453072,-10189.070123
888.557957,2664.741391,2738.761985,-10112.460574
888.558277,5107.421000,3034.844362,-9959.241474
888.558597,6661.853478,3552.988522,-12027.699319
888.558917,6513.812290,3182.885551,-10955.165621
888.559237,4737.318029,3627.009116,-10572.117872
888.559558,2664.741391,4293.194464,-10648.727422
888.559878,2072.576638,2960.823768,-10035.851024
888.560198,0.000000,2220.617826,-10035.851024
888.560518,-2590.720797,222.061783,-9882.631924
888.560838,-3997.112087,-1332.370696,-9193.145976
888.561158,-3849.070898,-1332.370696,-9422.974625
888.561478,-1184.329507,-1184.329507,-9652.803275
888.561798,2294.638420,74.020594,-9422.974625
888.562118,4071.132681,1628.453072,-10035.851024
888.562438,3997.112087,3552.988522,-9882.631924
888.562758,3034.844362,5403.503377,-9576.193725
888.563078,4737.318029,6291.750507,-10725.336972
888.563398,6217.729913,5921.647536,-10495.508323
888.563718,4737.318029,4293.194464,-10801.946522
888.564038,888.247130,2590.720797,-10189.070123
888.564359,-2294.638420,666.185348,-9422.974625
888.564679,-2368.659014,-148.041188,-9882.631924
888.564999,-1332.370696,0.000000,-9806.022374
888.565319,-1406.391290,370.102971,-9729.412825
888.565639,-1184.329507,962.267725,-9729.412825
888.565959,2368.659014,2220.617826,-9806.022374
888.566279,5921.647536,4367.215058,-10342.289223
888.566599,7476.080014,5847.626942,-11261.603821
888.566919,7328.038826,7179.997637,-10878.556072
888.567239,5625.565159,6661.853478,-11108.384721
888.567559,5847.626942,5033.400406,-10648.727422
888.567879,5477.523971,3404.947333,-10495.508323
888.568199,2960.823768,3182.885551,-10342.289223
888.568519,-370.102971,2812.782580,-10418.898773
888.568839,-518.144159,2590.720797,-10265.679673
888.569160,-888.247130,1850.514855,-10189.070123
888.569480,-1850.514855,1406.391290,-9346.365076
888.569800,-296.082377,1628.453072,-9346.365076
888.570120,3701.029710,1776.494261,-9806.022374
888.570440,7031.956449,2886.803174,-10342.289223
888.570760,6587.832884,4663.297435,-10189.070123
888.571080,7031.956449,5995.668130,-10265.679673
888.571400,8512.368333,5847.626942,-10265.679673
888.571720,7254.018232,5551.544565,-10648.727422
888.572040,3478.967927,4145.153275,-9959.241474
888.572360,148.041188,3108.864956,-9806.022374
888.572680,148.041188,1850.514855,-10189.070123
888.573000,-148.041188,1332.370696,-9652.803275
888.573320,-1480.411884,444.123565,-9576.193725
888.573640,-1036.288319,0.000000,-8963.317327
888.573961,222.061783,148.041188,-9806.022374
888.574281,2368.659014,1776.494261,-9959.241474
888.574601,3182.885551,3627.009116,-10189.070123
888.574921,3404.947333,5699.585753,-10035.851024
888.575241,4663.297435,6661.853478,-10495.508323
888.575561,5699.585753,6143.709319,-9959.241474
888.575881,5033.400406,4737.318029,-10418.898773
888.576201,2590.720797,2960.823768,-10112.460574
888.576521,0.000000,1850.514855,-10189.070123
888.576841,-1036.288319,592.164754,-10342.289223
888.577161,-2368.659014,0.000000,-9806.022374
888.577481,-4293.194464,-814.226536,-9499.584175
888.577801,-3404.947333,-444.123565,-9269.755526
888.578121,0.000000,592.164754,-10265.679673
888.578441,3330.926739,3108.864956,-10265.679673
888.578762,4219.173869,4959.379811,-10801.946522
888.579082,5699.585753,5477.523971,-10801.946522
888.579402,6587.832884,4737.318029,-10725.336972
888.579722,6069.688724,3478.967927,-10495.508323
888.580042,3108.864956,1924.535449,-10801.946522
888.580362,148.041188,1850.514855,-10189.070123
888.580682,-888.247130,1998.556043,-9959.241474
888.581002,-888.247130,1924.535449,-10495.508323
888.581322,-296.082377,740.205942,-9576.193725
888.581642,74.020594,-814.226536,-9576.193725
888.581962,2294.638420,-1110.308913,-9652.803275
888.582282,740.205942,-444.123565,-9729.412825
888.582602,2294.638420,148.041188,-10572.117872
888.582922,5625.565159,1036.288319,-9269.755526
888.583242,6735.874072,1628.453072,-10189.070123
888.583563,4145.153275,3997.112087,-9576.193725
888.583883,2516.700203,4737.318029,-10955.165621
888.584203,2368.659014,4367.215058,-11031.775171
888.584523,1776.494261,1998.556043,-9729.412825
888.584843,0.000000,0.000000,-9652.803275
888.585163,-2442.679609,-3330.926739,-9652.803275
888.585483,-2294.638420,-5107.421000,-9346.365076
888.585803,-1184.329507,-4885.359217,-9806.022374
888.586123,888.247130,-2886.803174,-9729.412825
888.586443,962.267725,1332.370696,-9959.241474
888.586763,1184.329507,3997.112087,-11338.213370
888.587083,3627.009116,4441.235652,-10878.556072
888.587403,4441.235652,4441.235652,-11261.603821
888.587723,4441.235652,3182.885551,-11184.994271
888.588043,3478.967927,0.000000,-10648.727422
888.588364,814.226536,-1924.535449,-10342.289223
888.588684,-370.102971,-3478.967927,-10572.117872
888.589004,-1184.329507,-2960.823768,-9729.412825
888.589324,-2886.803174,-1110.308913,-9806.022374
888.589644,-4219.173869,0.000000,-10572.117872
888.589964,-2442.679609,-148.041188,-9729.412825
888.590284,518.144159,148.041188,-9959.241474
888.590604,2664.741391,-370.102971,-10725.336972
888.590924,2886.803174,-1480.411884,-9576.193725
888.591244,518.144159,0.000000,-10648.727422
888.591564,444.123565,444.123565,-10342.289223
888.591884,2368.659014,962.267725,-9039.926876
888.592204,2886.803174,2294.638420,-10418.898773
888.592524,666.185348,1998.556043,-10189.070123
888.592844,-1480.411884,-74.020594,-9269.755526
888.593164,-2812.782580,-1332.370696,-9959.241474
888.593484,-2146.597232,-2146.597232,-9346.365076
888.593804,-2220.617826,-2516.700203,-8963.317327
888.594124,-2738.761985,-1480.411884,-10648.727422
888.594444,-1776.494261,-1332.370696,-9116.536426
888.594764,-444.123565,666.185348,-9422.974625
888.595084,222.061783,3256.906145,-11261.603821
888.595404,1480.411884,3849.070898,-10189.070123
888.595724,1332.370696,3627.009116,-9959.241474
888.596044,1776.494261,1998.556043,-10725.336972
888.596364,2146.597232,0.000000,-9959.241474
888.596684,222.061783,-592.164754,-10189.070123
888.597004,-1406.391290,-370.102971,-10418.898773
888.597324,-1258.350101,0.000000,-9499.584175
888.597644,-3256.906145,1036.288319,-10495.508323
888.597964,-4071.132681,666.185348,-10112.460574
888.598284,-1776.494261,222.061783,-9193.145976
888.598604,74.020594,1036.288319,-10955.165621
888.598924,4071.132681,1628.453072,-10725.336972
888.599244,6069.688724,2442.679609,-10265.679673
888.599564,5699.585753,3256.906145,-11261.603821
888.599884,4367.215058,3256.906145,-11491.432470
888.600204,888.247130,1924.535449,-9806.022374
888.600524,-962.267725,1258.350101,-10418.898773
888.600844,-1258.350101,0.000000,-9652.803275
888.601165,-1184.329507,592.164754,-10112.460574
888.601485,-814.226536,444.123565,-10418.898773
888.601805,-1332.370696,-148.041188,-9039.926876
888.602125,-1850.514855,148.041188,-9652.803275
888.602445,740.205942,74.020594,-10265.679673
888.602765,3034.844362,-814.226536,-8656.879127
888.603085,3330.926739,0.000000,-10035.851024
888.603405,2516.700203,0.000000,-9652.803275
888.603725,2368.659014,666.185348,-9499.584175
888.604045,3256.906145,888.247130,-11874.480219
888.604365,3478.967927,814.226536,-10342.289223
888.604685,3330.926739,1406.391290,-9806.022374
888.605005,444.123565,2664.741391,-11414.822920
888.605325,-1184.329507,2886.803174,-10648.727422
888.605645,-2886.803174,2516.700203,-10265.679673
888.605965,-1924.535449,1110.308913,-10648.727422
888.606285,1480.411884,-962.267725,-9499.584175
888.606605,3849.070898,-2960.823768,-10035.851024
888.606925,4737.318029,-3256.906145,-10572.117872
888.607245,3627.009116,-1406.391290,-9806.022374
888.607565,2812.782580,3034.844362,-10495.508323
888.607885,2664.741391,4441.235652,-11184.994271
888.608205,3478.967927,3552.988522,-10495.508323
888.608525,1702.473667,1998.556043,-10418.898773
888.608845,-444.123565,-370.102971,-10342.289223
888.609165,-1332.370696,-1924.535449,-8963.317327
888.609485,-1998.556043,-2294.638420,-10112.460574
888.609805,-1850.514855,-2664.741391,-9729.412825
888.610125,-2294.638420,-2368.659014,-8886.707777
888.610445,-1184.329507,-1480.411884,-10189.070123
888.610765,-814.226536,-1332.370696,-9422.974625
888.611085,-740.205942,592.164754,-9729.412825
888.611405,-2294.638420,1628.453072,-10265.679673
888.611725,-1332.370696,1480.411884,-9729.412825
888.612045,74.020594,962.267725,-9729.412825
888.612365,1036.288319,-666.185348,-10801.946522
888.612685,1702.473667,-1850.514855,-9499.584175
888.613005,962.267725,-1036.288319,-10572.117872
888.613325,0.000000,-370.102971,-10265.679673
888.613645,-1554.432478,296.082377,-9806.022374
888.613965,-3923.091493,814.226536,-10342.289223
888.614285,-4441.235652,-370.102971,-10189.070123
888.614605,-1480.411884,-962.267725,-9499.584175
888.614925,814.226536,-296.082377,-11031.775171
888.615245,1850.514855,444.123565,-10648.727422
888.615565,1036.288319,1110.308913,-10342.289223
888.615885,1184.329507,2368.659014,-11338.213370
888.616205,1110.308913,2294.638420,-10878.556072
888.616525,370.102971,1628.453072,-10189.070123
888.616846,-370.102971,666.185348,-10495.508323
888.617166,444.123565,-1110.308913,-10112.460574
888.617486,1110.308913,-370.102971,-9959.241474
888.617806,-148.041188,888.247130,-10801.946522
888.618126,-814.226536,444.123565,-9652.803275
888.618446,814.226536,-296.082377,-9882.631924
888.618766,2368.659014,-296.082377,-10035.851024
888.619086,4071.132681,-814.226536,-9882.631924
888.619406,3034.844362,888.247130,-9806.022374
888.619726,2590.720797,1258.350101,-10035.851024
888.620046,2146.597232,1628.453072,-9039.926876
888.620366,1406.391290,1258.350101,-10495.508323
888.620686,962.267725,888.247130,-9729.412825
888.621006,1258.350101,-1258.350101,-9269.755526
888.621326,1554.432478,-370.102971,-9346.365076
888.621646,1776.494261,-518.144159,-10112.460574
888.621966,-592.164754,-518.144159,-8963.317327
888.622286,-2146.597232,-1184.329507,-10035.851024
888.622606,-296.082377,-1998.556043,-9116.536426
888.622926,1480.411884,-1554.432478,-9729.412825
888.623246,1998.556043,222.061783,-11031.775171
888.623566,1998.556043,1480.411884,-10342.289223
888.623886,1702.473667,2368.659014,-10265.679673
888.624206,3034.844362,2664.741391,-11874.480219
888.624526,4219.173869,0.000000,-10189.070123
888.624846,2590.720797,-370.102971,-10572.117872
888.625166,-740.205942,-1036.288319,-11338.213370
888.625486,-1702.473667,-148.041188,-10955.165621
