#time,accel_x,accel_y,accel_z
833.439432,518.144159,444.123565,-10189.070123
833.439752,592.164754,296.082377,-10035.851024
833.440072,518.144159,222.061783,-9806.022374
833.440392,740.205942,444.123565,-10035.851024
833.440712,740.205942,296.082377,-10265.679673
833.441032,666.185348,370.102971,-10189.070123
833.441352,666.185348,888.247130,-10112.460574
833.441672,444.123565,0.000000,-9806.022374
833.441992,592.164754,0.000000,-9806.022374
833.442312,592.164754,0.000000,-9806.022374
833.442632,444.123565,370.102971,-11108.384721
833.442952,370.102971,444.123565,-10189.070123
833.443272,592.164754,444.123565,-10418.898773
833.443592,370.102971,222.061783,-10189.070123
833.443912,666.185348,148.041188,-10572.117872
833.444232,740.205942,518.144159,-9499.584175
833.444552,370.102971,74.020594,-10265.679673
833.444872,148.041188,370.102971,-10189.070123
833.445192,444.123565,370.102971,-10112.460574
833.445512,148.041188,592.164754,-10035.851024
833.445832,0.000000,962.267725,-9959.241474
833.446152,74.020594,740.205942,-10495.508323
833.446472,592.164754,518.144159,-10112.460574
833.446793,666.185348,444.123565,-10495.508323
833.447113,0.000000,444.123565,-9422.974625
833.447433,444.123565,222.061783,-10189.070123
833.447753,740.205942,148.041188,-10189.070123
833.448073,740.205942,74.020594,-10189.070123
833.448393,0.000000,518.144159,-9806.022374
833.448713,-370.102971,-222.061783,-10035.851024
833.449033,-370.102971,0.000000,-9882.631924
833.449353,-222.061783,0.000000,-10035.851024
833.449673,-370.102971,0.000000,-9959.241474
833.449993,-222.061783,-592.164754,-9652.803275
833.450313,-222.061783,-296.082377,-9959.241474
833.450633,148.041188,-518.144159,-10112.460574
833.450953,-740.205942,-518.144159,-10189.070123
833.451273,-740.205942,-1036.288319,-9959.241474
833.451593,-518.144159,-888.247130,-10035.851024
833.451913,-444.123565,-666.185348,-10112.460574
833.452233,-1184.329507,-1036.288319,-9806.022374
833.452553,-2294.638420,-1110.308913,-9882.631924
833.452873,-1924.535449,-1258.350101,-9806.022374
833.453193,-1184.329507,-962.267725,-9882.631924
833.453513,-1406.391290,-666.185348,-10112.460574
833.453833,-2146.597232,-1184.329507,-10265.679673
833.454153,-1554.432478,-1036.288319,-9422.974625
833.454473,-814.226536,-888.247130,-10035.851024
833.454793,-518.144159,-666.185348,-10035.851024
833.455113,-1554.432478,-1184.329507,-10495.508323
833.455433,-2516.700203,-2368.659014,-9806.022374
833.455753,-2442.679609,-3108.864956,-9729.412825
833.456073,-2368.659014,-3182.885551,-9729.412825
833.456393,-2442.679609,-3404.947333,-10112.460574
833.456713,-2886.803174,-4071.132681,-9882.631924
833.457033,-2590.720797,-4219.173869,-9269.755526
833.457353,-1184.329507,-4219.173869,-9499.584175
833.457673,814.226536,-3034.844362,-9959.241474
833.457993,1184.329507,-2072.576638,-10112.460574
833.458313,0.000000,-1628.453072,-10648.727422
833.458633,-888.247130,-2294.638420,-10112.460574
833.458954,-1850.514855,-3627.009116,-9806.022374
833.459274,-3034.844362,-4367.215058,-9959.241474
833.459594,-4145.153275,-5773.606348,-9806.022374
833.459914,-4441.235652,-5699.585753,-9806.022374
833.460234,-2590.720797,-5921.647536,-9806.022374
833.460554,-962.267725,-5625.565159,-10189.070123
833.460874,296.082377,-3775.050304,-10265.679673
833.461194,592.164754,-1924.535449,-9806.022374
833.461514,1258.350101,222.061783,-10878.556072
833.461834,2220.617826,1184.329507,-10801.946522
833.462154,1702.473667,444.123565,-10955.165621
833.462474,148.041188,-1406.391290,-10725.336972
833.462794,-1628.453072,-3330.926739,-10725.336972
833.463114,-2960.823768,-4145.153275,-10418.898773
833.463434,-4811.338623,-4145.153275,-10112.460574
833.463754,-6217.729913,-4367.215058,-9806.022374
833.464074,-5403.503377,-5403.503377,-9499.584175
833.464394,-2960.823768,-5107.421000,-9729.412825
833.464714,370.102971,-4071.132681,-10189.070123
833.465034,1924.535449,-2442.679609,-10265.679673
833.465354,2368.659014,-592.164754,-10112.460574
833.465674,3478.967927,1258.350101,-10418.898773
833.465994,3849.070898,2812.782580,-10801.946522
833.466314,1628.453072,1554.432478,-10878.556072
833.466634,-2664.741391,-148.041188,-10265.679673
833.466954,-5329.482782,-2516.700203,-9806.022374
833.467274,-6217.729913,-4737.318029,-9729.412825
833.467594,-4959.379811,-5921.647536,-9269.755526
833.467914,-4367.215058,-5847.626942,-9346.365076
833.468234,-3775.050304,-4589.276840,-9422.974625
833.468554,-1702.473667,-2516.700203,-9652.803275
833.468874,1110.308913,592.164754,-10342.289223
833.469194,1924.535449,3627.009116,-10495.508323
833.469514,1924.535449,4959.379811,-10801.946522
833.469834,2886.803174,3256.906145,-10572.117872
833.470154,2294.638420,1258.350101,-10572.117872
833.470474,-222.061783,-296.082377,-10265.679673
833.470794,-3034.844362,-2072.576638,-9882.631924
833.471115,-4367.215058,-2516.700203,-9269.755526
833.471435,-5033.400406,-3627.009116,-9499.584175
833.471755,-7031.956449,-4367.215058,-9193.145976
833.472075,-7476.080014,-4885.359217,-9116.536426
833.472395,-4441.235652,-4293.194464,-8810.098227
833.472715,222.061783,-2368.659014,-9269.755526
833.473035,3330.926739,592.164754,-9806.022374
833.473355,3108.864956,3182.885551,-10418.898773
833.473675,1776.494261,3701.029710,-10035.851024
833.473995,2960.823768,2886.803174,-10572.117872
833.474315,3775.050304,1480.411884,-10572.117872
833.474635,1554.432478,-222.061783,-10572.117872
833.474955,-2516.700203,-2368.659014,-10648.727422
833.475275,-5773.606348,-3552.988522,-10189.070123
833.475595,-8216.285956,-3256.906145,-9806.022374
833.475915,-8512.368333,-2294.638420,-9499.584175
833.476235,-6069.688724,-3256.906145,-9576.193725
833.476555,-1332.370696,-3997.112087,-9729.412825
833.476875,2516.700203,-3701.029710,-10342.289223
833.477195,3182.885551,-2072.576638,-10648.727422
833.477515,3108.864956,74.020594,-10801.946522
833.477835,3256.906145,2812.782580,-10725.336972
833.478155,3478.967927,4293.194464,-10725.336972
833.478475,1924.535449,3775.050304,-11184.994271
833.478795,-1628.453072,444.123565,-10801.946522
833.479115,-5181.441594,-3256.906145,-10265.679673
833.479435,-7031.956449,-5921.647536,-9652.803275
833.479755,-6365.771101,-7994.224174,-8044.002729
833.480075,-5403.503377,-8956.491898,-8963.317327
833.480395,-4885.359217,-8216.285956,-9039.926876
833.480715,-3849.070898,-5921.647536,-9116.536426
833.481035,-814.226536,-3182.885551,-9346.365076
833.481355,3108.864956,666.185348,-9806.022374
833.481675,6143.709319,2368.659014,-10878.556072
833.481995,4737.318029,2516.700203,-11261.603821
833.482315,1258.350101,1184.329507,-10648.727422
833.482635,-2220.617826,-1628.453072,-9806.022374
833.482956,-4071.132681,-3849.070898,-9729.412825
833.483276,-5181.441594,-4811.338623,-9806.022374
833.483596,-7105.977043,-5329.482782,-9499.584175
833.483916,-7624.121203,-7550.100608,-9193.145976
833.484236,-5551.544565,-7550.100608,-9346.365076
833.484556,-1998.556043,-6217.729913,-9806.022374
833.484876,814.226536,-3627.009116,-10112.460574
833.485196,2294.638420,-740.205942,-10342.289223
833.485516,1776.494261,1406.391290,-10112.460574
833.485836,2368.659014,2664.741391,-10955.165621
833.486156,4145.153275,2368.659014,-11108.384721
833.486476,4145.153275,2146.597232,-11184.994271
833.486796,1924.535449,-592.164754,-11184.994271
833.487116,-1850.514855,-1702.473667,-10342.289223
833.487436,-4145.153275,-3701.029710,-10955.165621
833.487756,-5847.626942,-3849.070898,-10035.851024
833.488076,-6883.915261,-4145.153275,-9652.803275
833.488396,-6217.729913,-4293.194464,-9422.974625
833.488716,-1332.370696,-3108.864956,-9806.022374
833.489036,1924.535449,-1850.514855,-10342.289223
833.489356,4219.173869,74.020594,-10495.508323
833.489676,5255.462188,2368.659014,-11491.432470
833.489996,6735.874072,3552.988522,-11108.384721
833.490316,5107.421000,4663.297435,-10725.336972
833.490636,1332.370696,3775.050304,-10035.851024
833.490956,-1184.329507,1110.308913,-9882.631924
833.491276,-1332.370696,-1924.535449,-9806.022374
833.491596,-444.123565,-3330.926739,-9652.803275
833.491916,-2812.782580,-4885.359217,-9193.145976
833.492236,-4219.173869,-4737.318029,-8886.707777
833.492556,-2146.597232,-3701.029710,-9269.755526
833.492876,0.000000,0.000000,-9193.145976
833.493196,2368.659014,2738.761985,-9422.974625
833.493516,3330.926739,2886.803174,-10648.727422
833.493836,5403.503377,1628.453072,-10265.679673
833.494156,5033.400406,2590.720797,-10801.946522
833.494476,3775.050304,3997.112087,-10418.898773
833.494796,2738.761985,3034.844362,-11031.775171
833.495117,1258.350101,1924.535449,-11261.603821
833.495437,-2886.803174,518.144159,-10801.946522
833.495757,-6735.874072,-666.185348,-9806.022374
833.496077,-5255.462188,-1776.494261,-9499.584175
833.496397,-2146.597232,-2368.659014,-10035.851024
833.496717,1036.288319,-1850.514855,-10342.289223
833.497037,1258.350101,-222.061783,-10418.898773
833.497357,2368.659014,888.247130,-10495.508323
833.497677,3701.029710,4885.359217,-11414.822920
833.497997,3775.050304,7179.997637,-11108.384721
833.498317,2294.638420,8438.347739,-11644.651570
833.498637,2738.761985,5181.441594,-10955.165621
833.498957,2442.679609,592.164754,-10725.336972
833.499277,148.041188,-2368.659014,-10035.851024
833.499597,-2812.782580,-3404.947333,-9116.536426
833.499917,-2590.720797,-3701.029710,-9193.145976
833.500237,-2738.761985,-1036.288319,-9422.974625
833.500557,-3108.864956,518.144159,-9346.365076
833.500877,-1998.556043,-518.144159,-9116.536426
833.501197,222.061783,-814.226536,-9499.584175
833.501518,3330.926739,-740.205942,-9806.022374
833.501838,4145.153275,1628.453072,-9576.193725
833.502158,4589.276840,2738.761985,-10189.070123
833.502478,3701.029710,4737.318029,-8427.050478
833.502798,1998.556043,3849.070898,-10572.117872
833.503118,2738.761985,1258.350101,-10035.851024
833.503438,-444.123565,-2516.700203,-10035.851024
833.503758,-2442.679609,-5255.462188,-9193.145976
833.504078,-4367.215058,-4737.318029,-9039.926876
833.504398,-2294.638420,-2960.823768,-9576.193725
833.504718,-1110.308913,-962.267725,-9959.241474
833.505038,-888.247130,-222.061783,-10572.117872
833.505358,-296.082377,518.144159,-9806.022374
833.505678,1406.391290,1110.308913,-11031.775171
833.505998,3849.070898,1406.391290,-10725.336972
833.506318,4219.173869,1184.329507,-11184.994271
833.506639,2220.617826,814.226536,-11797.870669
833.506959,222.061783,888.247130,-10725.336972
833.507279,-74.020594,1480.411884,-11108.384721
833.507599,-962.267725,888.247130,-11031.775171
833.507919,-1850.514855,-1332.370696,-10342.289223
833.508239,-2812.782580,-4071.132681,-10418.898773
833.508559,-2368.659014,-5921.647536,-10189.070123
833.508879,-1628.453072,-4071.132681,-9882.631924
833.509199,-962.267725,-2516.700203,-9652.803275
833.509519,1702.473667,1776.494261,-10189.070123
833.509839,2590.720797,3775.050304,-10572.117872
833.510159,1406.391290,3701.029710,-10572.117872
833.510479,1924.535449,2072.576638,-9652.803275
833.510799,2738.761985,-1110.308913,-10035.851024
833.511119,2294.638420,-3701.029710,-10112.460574
833.511439,-666.185348,-5329.482782,-9652.803275
833.511760,-2146.597232,-3182.885551,-9193.145976
833.512080,-2220.617826,-444.123565,-9806.022374
833.512400,-1332.370696,1258.350101,-9499.584175
833.512720,-2072.576638,1924.535449,-10035.851024
833.513040,-1998.556043,518.144159,-10342.289223
833.513360,0.000000,-666.185348,-9729.412825
833.513680,1998.556043,-2960.823768,-10265.679673
833.514000,4219.173869,-888.247130,-9269.755526
833.514320,4515.256246,1258.350101,-10342.289223
833.514640,3256.906145,3404.947333,-10572.117872
833.514960,666.185348,5699.585753,-10572.117872
833.515280,-1480.411884,3627.009116,-10725.336972
833.515600,-3034.844362,1628.453072,-9882.631924
833.515920,-1924.535449,-2442.679609,-10265.679673
833.516240,74.020594,-4441.235652,-9806.022374
833.516560,1036.288319,-4737.318029,-9576.193725
833.516880,1702.473667,-1998.556043,-10189.070123
833.517201,518.144159,592.164754,-10265.679673
833.517521,2072.576638,2738.761985,-10342.289223
833.517841,2960.823768,3849.070898,-10035.851024
833.518161,3034.844362,2442.679609,-10189.070123
833.518481,4219.173869,1406.391290,-11108.384721
833.518801,2294.638420,-148.041188,-10801.946522
833.519121,1406.391290,-222.061783,-9882.631924
833.519441,1332.370696,74.020594,-9882.631924
833.519761,-888.247130,1628.453072,-9806.022374
833.520081,-1258.350101,1184.329507,-9806.022374
833.520401,-1776.494261,0.000000,-9806.022374
833.520721,-1480.411884,-2294.638420,-9729.412825
833.521041,-962.267725,-3627.009116,-10801.946522
833.521361,-1184.329507,-1554.432478,-9269.755526
833.521681,-148.041188,444.123565,-10035.851024
833.522001,2960.823768,4367.215058,-9806.022374
833.522322,3701.029710,5033.400406,-9806.022374
833.522642,2664.741391,3404.947333,-10495.508323
833.522962,2146.597232,2220.617826,-10265.679673
833.523282,1628.453072,222.061783,-10648.727422
833.523602,0.000000,-666.185348,-10265.679673
833.523922,0.000000,-1554.432478,-8886.707777
833.524242,-962.267725,-592.164754,-9729.412825
833.524562,-2516.700203,888.247130,-9882.631924
833.524882,-4145.153275,1184.329507,-9806.022374
833.525202,-2368.659014,444.123565,-9422.974625
833.525522,666.185348,-1554.432478,-9959.241474
833.525842,2368.659014,-888.247130,-10572.117872
833.526162,2442.679609,-666.185348,-9806.022374
833.526482,3478.967927,1332.370696,-10648.727422
833.526802,3034.844362,3552.988522,-10189.070123
833.527122,148.041188,3849.070898,-10801.946522
833.527443,-888.247130,3775.050304,-10265.679673
833.527763,0.000000,1332.370696,-9882.631924
833.528083,2220.617826,-1554.432478,-10495.508323
833.528403,1110.308913,-3701.029710,-9882.631924
833.528723,-2220.617826,-4145.153275,-9576.193725
833.529043,-2146.597232,-2072.576638,-9422.974625
833.529363,-444.123565,1036.288319,-9806.022374
833.529683,-1036.288319,2738.761985,-10189.070123
833.530003,-1110.308913,2738.761985,-9959.241474
833.530323,592.164754,962.267725,-10112.460574
833.530643,3552.988522,-962.267725,-10418.898773
833.530963,3478.967927,-1924.535449,-9729.412825
833.531283,1258.350101,-888.247130,-10189.070123
833.531603,0.000000,888.247130,-10189.070123
833.531923,-1628.453072,2146.597232,-10189.070123
833.532243,-2886.803174,1850.514855,-10572.117872
833.532564,-3108.864956,-888.247130,-9806.022374
833.532884,-2220.617826,-4293.194464,-9806.022374
833.533204,-814.226536,-3923.091493,-9806.022374
833.533524,296.082377,-2368.659014,-9959.241474
833.533844,1480.411884,-222.061783,-10189.070123
833.534164,1924.535449,2368.659014,-10572.117872
833.534484,296.082377,3775.050304,-10572.117872
833.534804,370.102971,3775.050304,-10648.727422
833.535124,1628.453072,1850.514855,-9959.241474
833.535444,2664.741391,0.000000,-10725.336972
833.535764,0.000000,-1702.473667,-10495.508323
833.536084,-2220.617826,-2664.741391,-9806.022374
833.536404,-1998.556043,-1258.350101,-9729.412825
833.536724,-1036.288319,0.000000,-10189.070123
833.537044,-518.144159,592.164754,-9806.022374
833.537364,-1184.329507,370.102971,-9729.412825
833.537685,740.205942,518.144159,-9959.241474
833.538005,2960.823768,518.144159,-11108.384721
833.538325,4811.338623,74.020594,-9959.241474
833.538645,4145.153275,0.000000,-9806.022374
833.538965,3034.844362,1998.556043,-9959.241474
833.539285,2812.782580,3552.988522,-10572.117872
833.539605,1332.370696,3478.967927,-11184.994271
833.539925,592.164754,1776.494261,-10035.851024
833.540245,592.164754,-1480.411884,-9882.631924
833.540565,1036.288319,-2368.659014,-9959.241474
833.540885,666.185348,-4293.194464,-9269.755526
833.541205,888.247130,-1998.556043,-10035.851024
833.541525,-592.164754,1406.391290,-9729.412825
833.541845,-1480.411884,3775.050304,-10342.289223
833.542165,296.082377,3997.112087,-9882.631924
833.542485,2960.823768,2220.617826,-10648.727422
833.542805,4219.173869,592.164754,-10342.289223
833.543126,3701.029710,148.041188,-10265.679673
833.543446,2516.700203,0.000000,-10342.289223
833.543766,1554.432478,370.102971,-10265.679673
833.544086,444.123565,1850.514855,-10418.898773
833.544406,-1480.411884,2368.659014,-10265.679673
833.544726,-2146.597232,1628.453072,-9576.193725
833.545046,-740.205942,296.082377,-10572.117872
833.545366,-148.041188,-1998.556043,-10035.851024
833.545686,-1110.308913,-2664.741391,-9652.803275
833.546006,-740.205942,-592.164754,-9499.584175
833.546326,1406.391290,2072.576638,-10189.070123
833.546646,2146.597232,3552.988522,-10035.851024
833.546966,74.020594,3849.070898,-10189.070123
833.547286,-666.185348,2812.782580,-9806.022374
833.547606,148.041188,666.185348,-10418.898773
833.547926,148.041188,-1332.370696,-11031.775171
833.548247,-1702.473667,-2368.659014,-9499.584175
833.548567,-2368.659014,-1628.453072,-9882.631924
833.548887,-1184.329507,666.185348,-9806.022374
833.549207,-1332.370696,1480.411884,-9729.412825
833.549527,-1332.370696,1406.391290,-11338.213370
833.549847,518.144159,1110.308913,-9806.022374
833.550167,1184.329507,0.000000,-10495.508323
833.550487,1406.391290,-518.144159,-10035.851024
833.550807,2220.617826,0.000000,-9882.631924
833.551127,2220.617826,-148.041188,-10265.679673
833.551447,1184.329507,1036.288319,-10265.679673
833.551767,296.082377,2072.576638,-10035.851024
833.552087,-888.247130,1998.556043,-10265.679673
833.552407,740.205942,0.000000,-10342.289223
833.552727,148.041188,-2368.659014,-10112.460574
833.553047,-1258.350101,-2368.659014,-9576.193725
833.553368,-1184.329507,-1776.494261,-9729.412825
833.553688,0.000000,-592.164754,-9959.241474
833.554008,1406.391290,-962.267725,-9882.631924
833.554328,1702.473667,666.185348,-9959.241474
833.554648,2220.617826,814.226536,-10189.070123
833.554968,2960.823768,444.123565,-10265.679673
833.555288,1776.494261,370.102971,-10418.898773
833.555608,666.185348,-370.102971,-9806.022374
833.555928,444.123565,-962.267725,-10112.460574
833.556248,0.000000,0.000000,-9806.022374
833.556568,-1628.453072,814.226536,-10189.070123
833.556888,-1924.535449,-222.061783,-9806.022374
833.557208,0.000000,-444.123565,-10495.508323
833.557528,592.164754,-2368.659014,-10801.946522
833.557848,-592.164754,-2960.823768,-9422.974625
833.558168,-518.144159,-1776.494261,-9729.412825
833.558489,370.102971,888.247130,-10265.679673
833.558809,370.102971,2886.803174,-10265.679673
833.559129,666.185348,3034.844362,-10648.727422
833.559449,1776.494261,1924.535449,-10189.070123
833.559769,814.226536,-296.082377,-10648.727422
833.560089,444.123565,-1776.494261,-10495.508323
833.560409,-740.205942,-1110.308913,-9959.241474
833.560729,444.123565,-592.164754,-10112.460574
833.561049,0.000000,-444.123565,-10035.851024
833.561369,-962.267725,-518.144159,-9806.022374
833.561689,222.061783,444.123565,-9806.022374
833.562009,888.247130,-444.123565,-10189.070123
833.562329,3108.864956,-1332.370696,-10572.117872
833.562649,3552.988522,0.000000,-9806.022374
833.562969,2368.659014,2294.638420,-10112.460574
833.563289,2146.597232,4293.194464,-10418.898773
833.563609,-444.123565,3552.988522,-10418.898773
833.563930,0.000000,2738.761985,-10342.289223
833.564250,-296.082377,888.247130,-10265.679673
833.564570,-592.164754,-444.123565,-9806.022374
833.564890,-1406.391290,-962.267725,-10189.070123
833.565210,-1554.432478,296.082377,-9269.755526
833.565530,-666.185348,1850.514855,-10265.679673
833.565850,1480.411884,2368.659014,-10495.508323
833.566170,2516.700203,2812.782580,-10112.460574
833.566490,2072.576638,1776.494261,-9806.022374
833.566810,2368.659014,814.226536,-10189.070123
833.567130,2442.679609,-74.020594,-10265.679673
833.567450,1776.494261,0.000000,-10189.070123
833.567770,666.185348,888.247130,-9882.631924
833.568090,592.164754,592.164754,-9576.193725
833.568410,0.000000,888.247130,-10572.117872
833.568730,-1258.350101,740.205942,-10265.679673
833.569051,-2146.597232,0.000000,-9499.584175
833.569371,-1850.514855,-2590.720797,-9806.022374
833.569691,-1110.308913,-3330.926739,-9806.022374
833.570011,-814.226536,-2368.659014,-9346.365076
833.570331,0.000000,-370.102971,-9806.022374
833.570651,1554.432478,1554.432478,-10265.679673
833.570971,2960.823768,3182.885551,-10648.727422
833.571291,3552.988522,3552.988522,-10495.508323
833.571611,3701.029710,3034.844362,-10495.508323
833.571931,2886.803174,2072.576638,-10572.117872
833.572251,962.267725,666.185348,-9882.631924
833.572571,-2886.803174,-740.205942,-9806.022374
833.572891,-3256.906145,-370.102971,-9806.022374
833.573211,-2220.617826,-148.041188,-9652.803275
833.573531,-666.185348,-1184.329507,-10035.851024
833.573851,1184.329507,-814.226536,-9499.584175
833.574172,1480.411884,-370.102971,-9882.631924
833.574492,2072.576638,518.144159,-10495.508323
833.574812,2664.741391,1480.411884,-10035.851024
833.575132,2368.659014,1998.556043,-9346.365076
833.575452,1332.370696,1924.535449,-10112.460574
833.575772,740.205942,-370.102971,-9882.631924
833.576092,0.000000,-296.082377,-10572.117872
833.576412,592.164754,-444.123565,-9806.022374
833.576732,1702.473667,-1110.308913,-10801.946522
833.577052,1258.350101,-2072.576638,-10265.679673
833.577372,0.000000,-962.267725,-10112.460574
833.577692,-666.185348,-962.267725,-10189.070123
833.578012,-296.082377,370.102971,-10265.679673
833.578332,-1036.288319,888.247130,-9806.022374
833.578652,444.123565,2146.597232,-10189.070123
833.578972,1332.370696,1258.350101,-10035.851024
833.579293,2072.576638,-148.041188,-10648.727422
833.579613,1480.411884,-1480.411884,-10112.460574
833.579933,814.226536,-1628.453072,-9959.241474
833.580253,296.082377,444.123565,-10035.851024
833.580573,-370.102971,2220.617826,-10878.556072
833.580893,-1702.473667,2886.803174,-9806.022374
833.581213,-3034.844362,1036.288319,-9652.803275
833.581533,-2294.638420,-888.247130,-10265.679673
833.581853,-296.082377,-3108.864956,-9882.631924
833.582173,-222.061783,-2368.659014,-8810.098227
833.582493,814.226536,-148.041188,-9959.241474
833.582813,2368.659014,2220.617826,-10035.851024
833.583133,2220.617826,4071.132681,-10572.117872
833.583453,518.144159,3478.967927,-10418.898773
833.583773,518.144159,1406.391290,-9652.803275
833.584093,-222.061783,-518.144159,-10418.898773
833.584414,0.000000,-3552.988522,-9882.631924
833.584734,296.082377,-2368.659014,-9806.022374
833.585054,0.000000,0.000000,-10112.460574
833.585374,-296.082377,2886.803174,-10801.946522
833.585694,-1110.308913,4737.318029,-10342.289223
833.586014,0.000000,2886.803174,-10265.679673
833.586334,2146.597232,1924.535449,-10418.898773
833.586654,2590.720797,-370.102971,-10342.289223
833.586974,1998.556043,-2442.679609,-9882.631924
833.587294,2146.597232,-1406.391290,-9499.584175
833.587614,2072.576638,1480.411884,-10418.898773
833.587934,962.267725,3997.112087,-10189.070123
833.588254,1480.411884,3775.050304,-10189.070123
833.588574,444.123565,2516.700203,-10035.851024
833.588894,-592.164754,-1406.391290,-9576.193725
833.589214,-444.123565,-2368.659014,-9729.412825
833.589534,-740.205942,-2294.638420,-9346.365076
833.589855,740.205942,-1480.411884,-9422.974625
833.590175,1554.432478,-222.061783,-10035.851024
833.590495,888.247130,1554.432478,-10265.679673
833.590815,888.247130,3552.988522,-10955.165621
833.591135,2072.576638,2146.597232,-10648.727422
833.591455,2738.761985,222.061783,-10189.070123
833.591775,2442.679609,74.020594,-10112.460574
833.592095,740.205942,222.061783,-10112.460574
833.592415,-1258.350101,74.020594,-9959.241474
833.592735,-370.102971,74.020594,-9806.022374
833.593055,-1998.556043,370.102971,-10265.679673
833.593375,-2072.576638,0.000000,-9576.193725
833.593695,-518.144159,-1554.432478,-10189.070123
833.594015,222.061783,-1332.370696,-10418.898773
833.594335,1480.411884,0.000000,-10265.679673
833.594655,888.247130,740.205942,-10418.898773
833.594976,296.082377,2220.617826,-10648.727422
833.595296,666.185348,2516.700203,-10189.070123
833.595616,296.082377,814.226536,-10265.679673
833.595936,1110.308913,-740.205942,-9806.022374
833.596256,962.267725,-592.164754,-10342.289223
833.596576,74.020594,-814.226536,-10189.070123
833.596896,-888.247130,-814.226536,-10035.851024
833.597216,888.247130,592.164754,-9882.631924
833.597537,666.185348,1776.494261,-10418.898773
833.597857,296.082377,1406.391290,-10112.460574
833.598177,370.102971,0.000000,-9499.584175
833.598497,888.247130,-1998.556043,-10112.460574
833.598817,1332.370696,-2812.782580,-10035.851024
833.599137,2072.576638,-2146.597232,-9959.241474
833.599458,740.205942,-3256.906145,-9499.584175
833.599778,518.144159,592.164754,-10112.460574
833.600098,0.000000,4293.194464,-10418.898773
833.600418,-1036.288319,3478.967927,-10265.679673
833.600738,1110.308913,2812.782580,-10189.070123
833.601059,1480.411884,-2146.597232,-9882.631924
833.601379,1480.411884,-4589.276840,-10035.851024
833.601699,-1406.391290,-3256.906145,-9652.803275
833.602019,-2516.700203,-2220.617826,-9499.584175
833.602339,-296.082377,814.226536,-9806.022374
833.602660,592.164754,2146.597232,-10265.679673
833.602980,444.123565,2442.679609,-10112.460574
833.603300,0.000000,1406.391290,-10418.898773
833.603620,1480.411884,1258.350101,-10572.117872
833.603940,1184.329507,-370.102971,-10572.117872
833.604261,370.102971,-1110.308913,-10112.460574
833.604581,148.041188,0.000000,-10112.460574
833.604901,-296.082377,1480.411884,-10112.460574
833.605221,-1184.329507,370.102971,-9806.022374
833.605541,-3034.844362,-74.020594,-10189.070123
833.605861,-222.061783,0.000000,-10112.460574
833.606182,592.164754,-814.226536,-10572.117872
833.606502,444.123565,-740.205942,-11414.822920
833.606822,-1258.350101,-148.041188,-9729.412825
833.607142,814.226536,1406.391290,-10418.898773
833.607462,666.185348,1998.556043,-10265.679673
833.607783,444.123565,2072.576638,-10955.165621
833.608103,370.102971,1258.350101,-9806.022374
833.608423,2738.761985,740.205942,-10342.289223
833.608743,2886.803174,1332.370696,-10342.289223
833.609063,1406.391290,1776.494261,-10112.460574
833.609384,74.020594,3330.926739,-10265.679673
833.609704,-1110.308913,3034.844362,-10342.289223
833.610024,0.000000,1702.473667,-9882.631924
833.610344,-1036.288319,-740.205942,-9346.365076
833.610664,444.123565,-2886.803174,-9499.584175
833.610984,2072.576638,-3108.864956,-9499.584175
833.611305,2664.741391,-1998.556043,-10035.851024
833.611625,1924.535449,222.061783,-9499.584175
833.611945,1184.329507,1776.494261,-10035.851024
833.612265,1406.391290,2442.679609,-10112.460574
833.612585,2146.597232,1776.494261,-9806.022374
833.612906,1110.308913,962.267725,-10112.460574
833.613226,1332.370696,-814.226536,-10189.070123
833.613546,888.247130,-1776.494261,-9882.631924
833.613866,0.000000,-1776.494261,-9652.803275
833.614186,148.041188,0.000000,-9806.022374
833.614507,888.247130,1628.453072,-10189.070123
833.614827,1332.370696,2220.617826,-10801.946522
833.615147,740.205942,2590.720797,-11261.603821
833.615467,962.267725,1998.556043,-10572.117872
833.615787,2220.617826,1702.473667,-10955.165621
833.616108,1184.329507,888.247130,-10572.117872
833.616428,222.061783,1184.329507,-11108.384721
833.616748,-962.267725,1184.329507,-10035.851024
833.617068,-444.123565,1258.350101,-10265.679673
833.617388,-888.247130,-370.102971,-9806.022374
833.617708,-962.267725,-1258.350101,-9882.631924
833.618029,-296.082377,-1924.535449,-9729.412825
833.618349,296.082377,-2294.638420,-10112.460574
833.618669,296.082377,-1924.535449,-9806.022374
833.618989,-222.061783,0.000000,-9729.412825
833.619309,962.267725,296.082377,-10112.460574
833.619630,1332.370696,1332.370696,-10035.851024
833.619950,1036.288319,1332.370696,-10648.727422
833.620270,296.082377,-666.185348,-9729.412825
833.620590,1184.329507,-2590.720797,-10265.679673
833.620910,666.185348,-3701.029710,-10035.851024
833.621231,-1480.411884,-2664.741391,-9422.974625
833.621551,-1258.350101,0.000000,-9729.412825
833.621871,-370.102971,1406.391290,-10035.851024
833.622191,-370.102971,2368.659014,-10035.851024
833.622511,-1332.370696,2220.617826,-10189.070123
833.622832,-148.041188,222.061783,-10112.460574
833.623152,1628.453072,-592.164754,-10572.117872
833.623472,2146.597232,-1702.473667,-10418.898773
833.623792,1998.556043,-1110.308913,-9882.631924
833.624112,962.267725,592.164754,-10189.070123
833.624432,592.164754,1110.308913,-9959.241474
833.624753,148.041188,1776.494261,-10265.679673
833.625073,-592.164754,1480.411884,-10112.460574
833.625393,740.205942,-1036.288319,-10035.851024
833.625713,2368.659014,-2664.741391,-10342.289223
833.626033,518.144159,-3627.009116,-9806.022374
833.626354,-518.144159,-2220.617826,-9652.803275
833.626674,0.000000,148.041188,-10495.508323
833.626994,-740.205942,1406.391290,-9959.241474
833.627314,-1036.288319,1850.514855,-10342.289223
833.627634,148.041188,962.267725,-10112.460574
833.627955,1110.308913,74.020594,-10572.117872
833.628275,1258.350101,-1258.350101,-10342.289223
833.628595,962.267725,-888.247130,-9959.241474
833.628915,1628.453072,-666.185348,-9652.803275
833.629235,1480.411884,518.144159,-9116.536426
833.629555,222.061783,1332.370696,-10112.460574
833.629876,-1332.370696,1110.308913,-9729.412825
833.630196,-888.247130,518.144159,-10189.070123
833.630516,0.000000,-740.205942,-10189.070123
833.630836,1258.350101,-740.205942,-9806.022374
833.631156,-370.102971,148.041188,-9806.022374
833.631477,0.000000,962.267725,-9959.241474
833.631797,-370.102971,2294.638420,-10112.460574
833.632117,-814.226536,2590.720797,-10035.851024
833.632437,-296.082377,1702.473667,-9422.974625
833.632757,1702.473667,444.123565,-10572.117872
833.633078,1480.411884,-888.247130,-10035.851024
833.633398,-296.082377,-888.247130,-10112.460574
833.633718,-814.226536,0.000000,-9882.631924
833.634038,962.267725,1480.411884,-9959.241474
833.634358,2072.576638,2368.659014,-10495.508323
833.634679,814.226536,1776.494261,-10035.851024
833.634999,814.226536,1184.329507,-10112.460574
833.635319,1924.535449,518.144159,-10342.289223
833.635639,1480.411884,-222.061783,-10418.898773
833.635959,962.267725,592.164754,-9882.631924
833.636279,518.144159,2738.761985,-9882.631924
833.636600,888.247130,2516.700203,-10572.117872
833.636920,1258.350101,2294.638420,-10572.117872
833.637240,888.247130,518.144159,-10112.460574
833.637560,1110.308913,222.061783,-10189.070123
833.637880,1776.494261,-666.185348,-10112.460574
833.638201,1036.288319,666.185348,-10495.508323
833.638521,296.082377,2368.659014,-9882.631924
833.638841,888.247130,2960.823768,-10495.508323
833.639161,740.205942,2664.741391,-10189.070123
833.639481,1110.308913,518.144159,-9959.241474
833.639802,2812.782580,-1036.288319,-9576.193725
833.640122,2812.782580,-2146.597232,-10112.460574
833.640442,2072.576638,-2220.617826,-9806.022374
833.640762,740.205942,296.082377,-9576.193725
833.641082,-1332.370696,962.267725,-9652.803275
833.641402,-2590.720797,2072.576638,-9882.631924
833.641723,-1924.535449,1702.473667,-9806.022374
833.642043,-148.041188,-370.102971,-10495.508323
833.642363,518.144159,-2368.659014,-9882.631924
833.642683,1036.288319,-3478.967927,-9882.631924
833.643003,1480.411884,-2738.761985,-9959.241474
833.643324,814.226536,-1110.308913,-9346.365076
833.643644,148.041188,1332.370696,-10418.898773
833.643964,222.061783,2294.638420,-10189.070123
833.644284,-740.205942,814.226536,-10265.679673
833.644604,-1110.308913,-592.164754,-9729.412825
833.644925,888.247130,-2146.597232,-10112.460574
833.645245,814.226536,-2072.576638,-10418.898773
833.645565,370.102971,-1110.308913,-10342.289223
833.645885,-518.144159,-296.082377,-9959.241474
833.646205,-888.247130,740.205942,-10189.070123
833.646526,0.000000,1332.370696,-10418.898773
833.646846,296.082377,1036.288319,-10112.460574
833.647166,-222.061783,74.020594,-10035.851024
833.647486,1628.453072,-666.185348,-10801.946522
833.647806,2516.700203,-2072.576638,-10495.508323
833.648126,444.123565,-1998.556043,-9882.631924
833.648447,-814.226536,-444.123565,-10112.460574
833.648767,-296.082377,1702.473667,-9959.241474
833.649087,0.000000,2664.741391,-10495.508323
833.649407,666.185348,888.247130,-10035.851024
833.649727,1406.391290,-1702.473667,-10035.851024
833.650048,592.164754,-2738.761985,-10112.460574
833.650368,666.185348,-2516.700203,-9959.241474
833.650688,666.185348,-444.123565,-9652.803275
833.651008,296.082377,1184.329507,-10035.851024
833.651328,1776.494261,2590.720797,-10342.289223
833.651649,1480.411884,518.144159,-9806.022374
833.651969,888.247130,-370.102971,-9652.803275
833.652289,74.020594,-1258.350101,-10112.460574
833.652609,-592.164754,-1036.288319,-10418.898773
833.652929,-592.164754,-814.226536,-9652.803275
833.653250,74.020594,0.000000,-9806.022374
833.653570,222.061783,592.164754,-11338.213370
833.653890,-222.061783,888.247130,-9959.241474
833.654210,-888.247130,1110.308913,-10112.460574
833.654530,-296.082377,592.164754,-9806.022374
833.654850,666.185348,-296.082377,-9346.365076
833.655171,-518.144159,-1036.288319,-10418.898773
833.655491,-518.144159,-444.123565,-10112.460574
833.655811,1258.350101,666.185348,-10265.679673
833.656131,1850.514855,2886.803174,-10801.946522
833.656451,1776.494261,2590.720797,-10801.946522
833.656772,0.000000,3034.844362,-10495.508323
833.657092,-296.082377,1924.535449,-10801.946522
833.657412,0.000000,222.061783,-10955.165621
833.657732,148.041188,0.000000,-10189.070123
833.658052,-740.205942,666.185348,-9959.241474
833.658373,296.082377,2442.679609,-10878.556072
833.658693,1776.494261,4367.215058,-10418.898773
833.659013,1776.494261,4589.276840,-10265.679673
833.659333,1036.288319,3108.864956,-9806.022374
833.659653,1776.494261,0.000000,-10035.851024
833.659973,1702.473667,-2072.576638,-9576.193725
833.660294,222.061783,-3034.844362,-9269.755526
833.660614,666.185348,-1332.370696,-8810.098227
833.660934,1110.308913,0.000000,-9269.755526
833.661254,1036.288319,888.247130,-9269.755526
833.661574,740.205942,1554.432478,-9346.365076
833.661895,1036.288319,1184.329507,-9576.193725
833.662215,1554.432478,814.226536,-10035.851024
833.662535,1924.535449,-296.082377,-9576.193725
833.662855,1406.391290,-888.247130,-9422.974625
833.663175,1850.514855,-1184.329507,-9652.803275
833.663496,2368.659014,-370.102971,-9346.365076
833.663816,1110.308913,-296.082377,-10035.851024
833.664136,444.123565,1184.329507,-9346.365076
833.664456,-148.041188,1628.453072,-10418.898773
833.664776,370.102971,1628.453072,-10265.679673
833.665097,0.000000,888.247130,-10189.070123
833.665417,-666.185348,444.123565,-9882.631924
833.665737,0.000000,444.123565,-10495.508323
833.666057,222.061783,148.041188,-11031.775171
833.666377,1258.350101,-518.144159,-10265.679673
833.666697,444.123565,-518.144159,-10189.070123
833.667018,814.226536,-962.267725,-10572.117872
833.667338,814.226536,-222.061783,-10801.946522
833.667658,0.000000,1258.350101,-10572.117872
833.667978,-444.123565,1998.556043,-11031.775171
833.668298,0.000000,1850.514855,-10725.336972
833.668619,-222.061783,962.267725,-10801.946522
833.668939,-666.185348,-592.164754,-9806.022374
833.669259,-1184.329507,-2220.617826,-9959.241474
833.669579,222.061783,-3849.070898,-9806.022374
833.669899,222.061783,-3182.885551,-10112.460574
833.670220,296.082377,-1776.494261,-9346.365076
833.670540,740.205942,518.144159,-9806.022374
833.670860,592.164754,1924.535449,-9882.631924
833.671180,0.000000,2072.576638,-10112.460574
833.671500,-370.102971,592.164754,-9269.755526
833.671820,1332.370696,-1332.370696,-9806.022374
833.672141,2516.700203,-2368.659014,-9422.974625
833.672461,518.144159,-2368.659014,-9652.803275
833.672781,0.000000,-1406.391290,-9422.974625
833.673101,0.000000,518.144159,-9806.022374
833.673421,148.041188,1332.370696,-9729.412825
833.673742,0.000000,1184.329507,-9652.803275
833.674062,-592.164754,-740.205942,-9576.193725
833.674382,1258.350101,-1702.473667,-9959.241474
833.674702,1998.556043,-2664.741391,-10112.460574
833.675022,1184.329507,-2072.576638,-9346.365076
833.675343,1110.308913,-370.102971,-10495.508323
833.675663,1998.556043,666.185348,-10418.898773
833.675983,1924.535449,962.267725,-10342.289223
833.676303,592.164754,1554.432478,-9959.241474
833.676623,370.102971,666.185348,-10725.336972
833.676944,370.102971,-222.061783,-10725.336972
833.677264,0.000000,-296.082377,-11031.775171
833.677584,-444.123565,-370.102971,-10189.070123
833.677904,296.082377,222.061783,-10572.117872
833.678224,-296.082377,1110.308913,-10418.898773
833.678544,222.061783,1776.494261,-10495.508323
833.678865,74.020594,1702.473667,-10112.460574
833.679185,592.164754,1702.473667,-12257.527968
833.679505,0.000000,222.061783,-10418.898773
833.679825,-1480.411884,370.102971,-9806.022374
833.680145,-1998.556043,1776.494261,-9652.803275
833.680466,0.000000,1998.556043,-10342.289223
833.680786,0.000000,2072.576638,-10801.946522
833.681106,-222.061783,0.000000,-9422.974625
833.681426,1406.391290,-1554.432478,-9422.974625
833.681746,1480.411884,-1702.473667,-9729.412825
833.682067,1480.411884,-1036.288319,-9499.584175
833.682387,-222.061783,2072.576638,-9269.755526
833.682707,222.061783,2886.803174,-9959.241474
833.683027,1110.308913,3478.967927,-9959.241474
833.683347,2146.597232,2146.597232,-9806.022374
833.683668,1702.473667,0.000000,-9346.365076
833.683988,1924.535449,-1258.350101,-10035.851024
833.684308,2812.782580,-888.247130,-9806.022374
833.684628,2368.659014,0.000000,-9882.631924
833.684948,1554.432478,1998.556043,-9729.412825
833.685268,74.020594,3108.864956,-10265.679673
833.685589,-592.164754,4145.153275,-10648.727422
833.685909,0.000000,2664.741391,-10418.898773
833.686229,2368.659014,222.061783,-10265.679673
833.686549,3108.864956,-1332.370696,-10418.898773
833.686869,2368.659014,-1702.473667,-10112.460574
833.687190,1850.514855,-444.123565,-10112.460574
833.687510,1776.494261,2516.700203,-10955.165621
833.687830,1480.411884,4293.194464,-11261.603821
833.688150,148.041188,4293.194464,-10801.946522
833.688470,888.247130,2146.597232,-10112.460574
833.688791,2442.679609,666.185348,-11108.384721
833.689111,3256.906145,370.102971,-10801.946522
833.689431,518.144159,518.144159,-11031.775171
833.689751,0.000000,740.205942,-10189.070123
833.690071,74.020594,1036.288319,-10572.117872
833.690391,-370.102971,1258.350101,-10495.508323
833.690712,-1998.556043,-370.102971,-9576.193725
833.691032,-2812.782580,-518.144159,-9882.631924
833.691352,-1480.411884,-666.185348,-10265.679673
833.691672,-814.226536,-2146.597232,-9499.584175
833.691992,0.000000,-3404.947333,-9346.365076
833.692313,148.041188,-2072.576638,-9269.755526
833.692633,1036.288319,-814.226536,-9652.803275
833.692953,222.061783,0.000000,-9806.022374
833.693273,-444.123565,-296.082377,-9193.145976
833.693593,740.205942,-1258.350101,-9499.584175
833.693914,370.102971,-1406.391290,-9882.631924
833.694234,-148.041188,-1998.556043,-9729.412825
833.694554,-1628.453072,-2146.597232,-9346.365076
833.694874,-222.061783,-666.185348,-9806.022374
833.695194,1258.350101,370.102971,-9882.631924
833.695515,1480.411884,962.267725,-10572.117872
833.695835,-444.123565,222.061783,-9806.022374
833.696155,-444.123565,0.000000,-10189.070123
833.696475,370.102971,-666.185348,-10342.289223
833.696795,148.041188,-1332.370696,-10342.289223
833.697115,222.061783,-518.144159,-9959.241474
833.697436,1554.432478,0.000000,-10572.117872
833.697756,1702.473667,814.226536,-10265.679673
833.698076,592.164754,888.247130,-10572.117872
833.698396,-296.082377,444.123565,-10265.679673
833.698716,0.000000,-370.102971,-10801.946522
833.699037,1184.329507,-1406.391290,-10418.898773
833.699357,592.164754,-888.247130,-10189.070123
833.699677,592.164754,-296.082377,-10495.508323
833.699997,296.082377,1702.473667,-10725.336972
833.700317,0.000000,1554.432478,-10801.946522
833.700637,-222.061783,888.247130,-9882.631924
833.700957,592.164754,-814.226536,-10189.070123
833.701277,1628.453072,-2146.597232,-9959.241474
833.701597,1554.432478,-2146.597232,-10265.679673
833.701918,0.000000,-296.082377,-8656.879127
833.702238,-518.144159,1702.473667,-9959.241474
833.702558,0.000000,2590.720797,-10418.898773
833.702878,-148.041188,2220.617826,-9806.022374
833.703198,-888.247130,888.247130,-9576.193725
833.703518,962.267725,-592.164754,-9806.022374
833.703838,666.185348,-1628.453072,-9729.412825
833.704158,592.164754,-1776.494261,-9729.412825
833.704479,148.041188,-444.123565,-9576.193725
833.704799,-296.082377,1850.514855,-9806.022374
833.705119,-518.144159,2368.659014,-9882.631924
833.705439,-1332.370696,2590.720797,-10035.851024
833.705759,-814.226536,1554.432478,-10189.070123
833.706079,1406.391290,-444.123565,-10189.070123
833.706399,1332.370696,-444.123565,-10342.289223
833.706719,962.267725,-296.082377,-10035.851024
833.707039,962.267725,1332.370696,-10495.508323
833.707360,0.000000,2516.700203,-10648.727422
833.707680,222.061783,3478.967927,-10342.289223
833.708000,888.247130,3775.050304,-10342.289223
833.708320,1554.432478,2812.782580,-10801.946522
833.708640,2590.720797,2220.617826,-11031.775171
833.708960,1924.535449,814.226536,-10801.946522
833.709280,1036.288319,814.226536,-9959.241474
833.709600,1406.391290,1184.329507,-10035.851024
833.709921,222.061783,666.185348,-9576.193725
833.710241,518.144159,370.102971,-9959.241474
833.710561,1110.308913,370.102971,-9806.022374
833.710881,2146.597232,0.000000,-10112.460574
833.711201,2516.700203,222.061783,-10112.460574
833.711521,1480.411884,1184.329507,-9499.584175
833.711841,666.185348,1776.494261,-8963.317327
833.712161,1998.556043,2442.679609,-9882.631924
833.712482,1628.453072,1332.370696,-9806.022374
833.712802,0.000000,74.020594,-9422.974625
833.713122,740.205942,-1554.432478,-9499.584175
833.713442,2812.782580,-1850.514855,-10035.851024
833.713762,2072.576638,-1258.350101,-9882.631924
833.714082,-740.205942,1332.370696,-9346.365076
833.714402,-1924.535449,3256.906145,-9806.022374
833.714722,-222.061783,4071.132681,-11644.651570
833.715042,592.164754,1332.370696,-10418.898773
833.715363,296.082377,-1184.329507,-9499.584175
833.715683,962.267725,-3256.906145,-9806.022374
833.716003,1628.453072,-3404.947333,-9882.631924
833.716323,1554.432478,-2072.576638,-10189.070123
833.716643,1554.432478,1258.350101,-10112.460574
833.716963,666.185348,3552.988522,-10725.336972
833.717283,-444.123565,4441.235652,-10572.117872
833.717603,-296.082377,2220.617826,-10878.556072
833.717924,-592.164754,-962.267725,-10342.289223
833.718244,-518.144159,-3182.885551,-10648.727422
833.718564,1184.329507,-3627.009116,-10342.289223
833.718884,814.226536,-2516.700203,-10035.851024
833.719204,370.102971,0.000000,-10265.679673
833.719524,148.041188,2516.700203,-10572.117872
833.719844,0.000000,3997.112087,-10648.727422
833.720164,-370.102971,2146.597232,-10189.070123
833.720484,592.164754,-296.082377,-9499.584175
833.720805,740.205942,-2960.823768,-10265.679673
833.721125,1406.391290,-4293.194464,-10189.070123
833.721445,814.226536,-3034.844362,-9806.022374
833.721765,-814.226536,0.000000,-9959.241474
833.722085,-1480.411884,2294.638420,-9959.241474
833.722405,-2368.659014,3034.844362,-10112.460574
833.722725,-1036.288319,1332.370696,-9806.022374
833.723045,740.205942,-1184.329507,-10342.289223
833.723366,1554.432478,-3034.844362,-9806.022374
833.723686,888.247130,-3775.050304,-9652.803275
833.724006,-370.102971,-1924.535449,-9806.022374
833.724326,-148.041188,-148.041188,-9729.412825
833.724646,-592.164754,1480.411884,-9806.022374
833.724966,-296.082377,1628.453072,-9729.412825
833.725286,-592.164754,592.164754,-9959.241474
833.725606,-444.123565,-1776.494261,-10418.898773
833.725926,-296.082377,-3034.844362,-10112.460574
833.726247,-814.226536,-2812.782580,-9729.412825
833.726567,-296.082377,888.247130,-9806.022374
833.726887,592.164754,2960.823768,-10725.336972
833.727207,592.164754,3034.844362,-10801.946522
833.727527,666.185348,74.020594,-10265.679673
833.727847,74.020594,-1332.370696,-10265.679673
833.728167,444.123565,-2516.700203,-10342.289223
833.728487,370.102971,-1628.453072,-10342.289223
833.728808,518.144159,1406.391290,-10189.070123
833.729128,740.205942,3923.091493,-10801.946522
833.729448,222.061783,4071.132681,-10572.117872
833.729768,-1036.288319,2220.617826,-9959.241474
833.730088,-1480.411884,-222.061783,-9806.022374
833.730408,962.267725,-1406.391290,-8963.317327
833.730728,1628.453072,-2294.638420,-9882.631924
833.731048,962.267725,-1480.411884,-9346.365076
833.731369,1406.391290,0.000000,-9652.803275
833.731689,1628.453072,1850.514855,-9959.241474
833.732009,1110.308913,3404.947333,-9882.631924
833.732329,814.226536,3775.050304,-9806.022374
833.732649,2146.597232,2368.659014,-10342.289223
833.732969,3034.844362,148.041188,-10418.898773
833.733289,2590.720797,-814.226536,-9652.803275
833.733609,1776.494261,0.000000,-9959.241474
833.733929,740.205942,1776.494261,-9882.631924
833.734250,592.164754,4219.173869,-10495.508323
833.734570,518.144159,3701.029710,-9959.241474
833.734890,814.226536,2812.782580,-10189.070123
833.735210,814.226536,518.144159,-10265.679673
833.735530,888.247130,-1702.473667,-10112.460574
833.735850,444.123565,-2072.576638,-10112.460574
833.736170,-518.144159,222.061783,-9959.241474
833.736490,296.082377,2886.803174,-10495.508323
833.736811,-74.020594,5403.503377,-10955.165621
833.737131,74.020594,3997.112087,-10572.117872
833.737451,666.185348,2146.597232,-10495.508323
833.737771,1036.288319,-814.226536,-10648.727422
833.738091,1628.453072,-2738.761985,-10572.117872
833.738411,222.061783,-2146.597232,-9729.412825
833.738731,222.061783,148.041188,-9806.022374
833.739051,962.267725,2368.659014,-9959.241474
833.739371,370.102971,3552.988522,-10342.289223
833.739692,-592.164754,2368.659014,-10035.851024
833.740012,222.061783,-148.041188,-9806.022374
833.740332,1036.288319,-1776.494261,-10035.851024
833.740652,1184.329507,-3182.885551,-9729.412825
833.740972,814.226536,-1702.473667,-9039.926876
833.741292,148.041188,888.247130,-9806.022374
833.741612,592.164754,1554.432478,-9269.755526
833.741932,-1184.329507,1924.535449,-9806.022374
833.742253,-1110.308913,0.000000,-9269.755526
833.742573,-666.185348,-1702.473667,-9806.022374
833.742893,1036.288319,-2590.720797,-9806.022374
833.743213,2146.597232,-1184.329507,-9499.584175
833.743533,2960.823768,518.144159,-10189.070123
833.743853,3108.864956,2812.782580,-10648.727422
833.744173,2072.576638,3182.885551,-10801.946522
833.744493,962.267725,1702.473667,-10342.289223
833.744813,1184.329507,0.000000,-10265.679673
833.745134,1998.556043,-2220.617826,-10495.508323
833.745454,370.102971,-2886.803174,-10418.898773
833.745774,-888.247130,-1554.432478,-10112.460574
833.746094,-1702.473667,222.061783,-10955.165621
833.746414,0.000000,1036.288319,-10878.556072
833.746734,0.000000,888.247130,-10648.727422
833.747054,-296.082377,222.061783,-10342.289223
833.747374,296.082377,-666.185348,-10572.117872
833.747695,1480.411884,-2146.597232,-11414.822920
833.748015,1776.494261,-2146.597232,-10112.460574
833.748335,518.144159,-1036.288319,-10035.851024
833.748655,-222.061783,296.082377,-10342.289223
833.748975,222.061783,740.205942,-10035.851024
833.749295,-814.226536,962.267725,-10189.070123
833.749615,0.000000,-148.041188,-9806.022374
833.749935,962.267725,-1776.494261,-10342.289223
833.750256,592.164754,-2664.741391,-9959.241474
833.750576,-666.185348,-3034.844362,-9193.145976
833.750896,-1110.308913,-1406.391290,-9652.803275
833.751216,-148.041188,1332.370696,-10112.460574
833.751536,-1258.350101,3478.967927,-9959.241474
833.751856,-2368.659014,3256.906145,-9806.022374
833.752176,-962.267725,1480.411884,-9882.631924
833.752496,-222.061783,-888.247130,-10112.460574
833.752816,0.000000,-2368.659014,-9882.631924
833.753137,-1184.329507,-1998.556043,-9652.803275
833.753457,-1702.473667,-148.041188,-10189.070123
833.753777,-444.123565,1850.514855,-10342.289223
833.754097,-222.061783,2516.700203,-10035.851024
833.754417,-592.164754,2442.679609,-10265.679673
833.754737,592.164754,0.000000,-11184.994271
833.755057,1406.391290,-1554.432478,-10648.727422
833.755377,1998.556043,-2368.659014,-10342.289223
833.755698,814.226536,-1110.308913,-10189.070123
833.756018,1036.288319,296.082377,-10112.460574
833.756338,1628.453072,2368.659014,-10955.165621
833.756658,592.164754,2368.659014,-10801.946522
833.756978,296.082377,2146.597232,-10955.165621
833.757298,592.164754,1332.370696,-11338.213370
833.757618,814.226536,0.000000,-9882.631924
833.757938,814.226536,814.226536,-10418.898773
833.758258,1406.391290,1628.453072,-10418.898773
833.758579,2220.617826,2664.741391,-10035.851024
833.758899,1850.514855,2368.659014,-9652.803275
833.759219,1924.535449,222.061783,-9116.536426
833.759539,2294.638420,-370.102971,-9729.412825
833.759859,2220.617826,-740.205942,-9499.584175
833.760179,2442.679609,0.000000,-9806.022374
833.760499,2516.700203,1406.391290,-9039.926876
833.760819,2590.720797,2072.576638,-9269.755526
833.761140,1998.556043,2590.720797,-9269.755526
833.761460,1184.329507,1850.514855,-9576.193725
833.761780,0.000000,0.000000,-9269.755526
833.762100,962.267725,-1850.514855,-9422.974625
833.762420,2146.597232,-3256.906145,-9269.755526
833.762740,1184.329507,-2368.659014,-9039.926876
833.763060,444.123565,-518.144159,-9729.412825
833.763380,370.102971,1850.514855,-9806.022374
833.763700,962.267725,3330.926739,-9882.631924
833.764021,296.082377,2886.803174,-10189.070123
833.764341,592.164754,1258.350101,-9959.241474
833.764661,0.000000,-1628.453072,-10342.289223
833.764981,518.144159,-2960.823768,-10725.336972
833.765301,-296.082377,-2368.659014,-9959.241474
833.765621,-1554.432478,592.164754,-10725.336972
833.765941,-2220.617826,3923.091493,-10955.165621
833.766261,-1332.370696,4515.256246,-11568.042020
833.766582,-740.205942,3701.029710,-11261.603821
833.766902,592.164754,1258.350101,-11108.384721
833.767222,888.247130,-1110.308913,-11184.994271
833.767542,74.020594,-2294.638420,-10572.117872
833.767862,740.205942,-1258.350101,-10265.679673
833.768182,962.267725,888.247130,-10878.556072
833.768502,-222.061783,2590.720797,-10112.460574
833.768822,-592.164754,2886.803174,-9882.631924
833.769143,-296.082377,1850.514855,-9576.193725
833.769463,592.164754,-148.041188,-10112.460574
833.769783,740.205942,-2072.576638,-9882.631924
833.770103,-518.144159,-3182.885551,-9039.926876
833.770423,-222.061783,-2220.617826,-8963.317327
833.770743,74.020594,-1776.494261,-9269.755526
833.771063,370.102971,0.000000,-9346.365076
833.771383,0.000000,1036.288319,-9116.536426
833.771703,1258.350101,1184.329507,-9346.365076
833.772024,3552.988522,-1036.288319,-9806.022374
833.772344,3478.967927,-2220.617826,-10035.851024
833.772664,1776.494261,-2442.679609,-9576.193725
833.772984,0.000000,-1776.494261,-10112.460574
833.773304,-370.102971,518.144159,-9576.193725
833.773624,-592.164754,1036.288319,-10189.070123
833.773944,0.000000,1924.535449,-10572.117872
833.774264,740.205942,740.205942,-10955.165621
833.774585,1554.432478,-1184.329507,-11108.384721
833.774905,1184.329507,-1850.514855,-10495.508323
833.775225,148.041188,-814.226536,-10572.117872
833.775545,444.123565,814.226536,-10725.336972
833.775865,-296.082377,2886.803174,-11184.994271
833.776185,-592.164754,3330.926739,-11108.384721
833.776505,-592.164754,1702.473667,-10572.117872
833.776825,666.185348,0.000000,-11338.213370
833.777145,814.226536,-1332.370696,-10648.727422
833.777466,148.041188,-1332.370696,-10035.851024
833.777786,-296.082377,518.144159,-10725.336972
833.778106,-518.144159,2146.597232,-9959.241474
833.778426,-518.144159,2886.803174,-10035.851024
833.778746,-1702.473667,1998.556043,-9882.631924
833.779066,-1110.308913,0.000000,-10035.851024
833.779386,0.000000,-1406.391290,-9576.193725
833.779706,1110.308913,-2590.720797,-9193.145976
833.780027,1184.329507,-1998.556043,-8963.317327
833.780347,2146.597232,-296.082377,-9039.926876
833.780667,2368.659014,1924.535449,-9422.974625
833.780987,2590.720797,2664.741391,-9652.803275
833.781307,1850.514855,2146.597232,-9422.974625
833.781627,1406.391290,296.082377,-9652.803275
833.781947,0.000000,-1702.473667,-9806.022374
833.782267,-666.185348,-2294.638420,-9116.536426
833.782587,-444.123565,-444.123565,-9652.803275
833.782908,1480.411884,1924.535449,-9806.022374
833.783228,1480.411884,2442.679609,-10418.898773
833.783548,814.226536,2590.720797,-10189.070123
833.783868,962.267725,1110.308913,-10342.289223
833.784188,1554.432478,-518.144159,-10418.898773
833.784508,1110.308913,-1776.494261,-9959.241474
833.784828,0.000000,-740.205942,-9959.241474
833.785148,-592.164754,222.061783,-10648.727422
833.785469,592.164754,1998.556043,-10648.727422
833.785789,518.144159,1776.494261,-10878.556072
833.786109,370.102971,1258.350101,-10342.289223
833.786429,74.020594,370.102971,-10648.727422
833.786749,1036.288319,74.020594,-11184.994271
833.787069,296.082377,0.000000,-10572.117872
833.787389,-888.247130,962.267725,-9652.803275
833.787709,-962.267725,444.123565,-10189.070123
833.788030,-370.102971,592.164754,-10265.679673
833.788350,-666.185348,148.041188,-10342.289223
833.788670,-740.205942,592.164754,-9959.241474
833.788990,444.123565,296.082377,-10265.679673
833.789310,0.000000,74.020594,-10342.289223
833.789630,-740.205942,-296.082377,-9806.022374
833.789950,-592.164754,0.000000,-9806.022374
833.790270,370.102971,0.000000,-10648.727422
833.790590,-296.082377,-222.061783,-9806.022374
833.790911,-962.267725,-666.185348,-9652.803275
833.791231,370.102971,-518.144159,-9806.022374
833.791551,1628.453072,-296.082377,-9882.631924
833.791871,1776.494261,-370.102971,-10265.679673
833.792191,1258.350101,0.000000,-10035.851024
833.792511,1036.288319,814.226536,-10342.289223
833.792831,444.123565,1554.432478,-10648.727422
833.793151,-1036.288319,1702.473667,-9499.584175
833.793472,-888.247130,814.226536,-9806.022374
833.793792,1036.288319,-666.185348,-10189.070123
833.794112,2664.741391,-1184.329507,-10112.460574
833.794432,2294.638420,-814.226536,-9806.022374
833.794752,1480.411884,370.102971,-10189.070123
833.795072,1406.391290,2146.597232,-10189.070123
833.795392,518.144159,1924.535449,-10648.727422
833.795712,74.020594,592.164754,-9346.365076
833.796032,518.144159,-1184.329507,-9652.803275
833.796353,2960.823768,-2072.576638,-10112.460574
833.796673,3775.050304,-1924.535449,-10418.898773
833.796993,3330.926739,-296.082377,-10112.460574
833.797313,2146.597232,1110.308913,-10035.851024
833.797633,962.267725,2960.823768,-9806.022374
833.797953,148.041188,2664.741391,-10342.289223
833.798273,0.000000,1480.411884,-9806.022374
833.798594,74.020594,-296.082377,-9959.241474
833.798914,222.061783,-1998.556043,-9882.631924
833.799234,444.123565,-2960.823768,-9806.022374
833.799554,888.247130,-1776.494261,-9806.022374
833.799874,1036.288319,1036.288319,-9959.241474
833.800195,148.041188,3256.906145,-11338.213370
833.800515,-814.226536,3849.070898,-10342.289223
833.800835,-1184.329507,2368.659014,-10342.289223
833.801155,-370.102971,-740.205942,-10035.851024
833.801475,-370.102971,-2664.741391,-10189.070123
833.801796,74.020594,-2960.823768,-9806.022374
833.802116,148.041188,-1480.411884,-10035.851024
833.802436,370.102971,1036.288319,-10648.727422
833.802756,-1332.370696,2886.803174,-10572.117872
833.803076,-2294.638420,3552.988522,-9193.145976
833.803397,-1776.494261,2886.803174,-10342.289223
833.803717,-592.164754,444.123565,-10495.508323
833.804037,370.102971,-2072.576638,-10112.460574
833.804357,222.061783,-3034.844362,-9806.022374
833.804677,1110.308913,-2516.700203,-9806.022374
833.804998,1332.370696,-296.082377,-10265.679673
833.805318,814.226536,1628.453072,-10342.289223
833.805638,74.020594,3034.844362,-10035.851024
833.805958,592.164754,3627.009116,-10801.946522
833.806278,1480.411884,2294.638420,-10725.336972
833.806599,1184.329507,222.061783,-10112.460574
833.806919,0.000000,-1110.308913,-9806.022374
833.807239,0.000000,-962.267725,-9806.022374
833.807559,-222.061783,-666.185348,-9959.241474
833.807879,666.185348,0.000000,-10189.070123
833.808200,1110.308913,814.226536,-9806.022374
833.808520,2664.741391,1480.411884,-10265.679673
833.808840,3034.844362,1776.494261,-10035.851024
833.809160,1628.453072,1184.329507,-9806.022374
833.809480,1332.370696,1110.308913,-9729.412825
833.809801,1628.453072,74.020594,-9806.022374
833.810121,888.247130,-518.144159,-9729.412825
833.810441,296.082377,-1480.411884,-9576.193725
833.810761,814.226536,-1332.370696,-9576.193725
833.811082,1776.494261,0.000000,-10035.851024
833.811402,1998.556043,1332.370696,-10342.289223
833.811722,666.185348,2146.597232,-9806.022374
833.812042,-444.123565,1628.453072,-10035.851024
833.812362,518.144159,1184.329507,-10189.070123
833.812683,370.102971,0.000000,-10265.679673
833.813003,0.000000,-740.205942,-9729.412825
833.813323,1554.432478,-1702.473667,-10495.508323
833.813643,1776.494261,-1332.370696,-10112.460574
833.813963,666.185348,0.000000,-10572.117872
833.814284,-1036.288319,1850.514855,-10648.727422
833.814604,-888.247130,2442.679609,-10495.508323
833.814924,-1110.308913,2960.823768,-11108.384721
833.815244,-518.144159,1110.308913,-10035.851024
833.815564,370.102971,-814.226536,-10725.336972
833.815885,1776.494261,-2220.617826,-10418.898773
833.816205,962.267725,-1850.514855,-10342.289223
833.816525,148.041188,-1036.288319,-9882.631924
833.816845,666.185348,888.247130,-10112.460574
833.817165,1110.308913,1850.514855,-10112.460574
833.817486,518.144159,1480.411884,-10189.070123
833.817806,296.082377,1110.308913,-9806.022374
833.818126,962.267725,296.082377,-10265.679673
833.818446,962.267725,-1036.288319,-10035.851024
833.818766,1184.329507,-1776.494261,-9422.974625
833.819087,0.000000,-1332.370696,-9422.974625
833.819407,0.000000,0.000000,-9729.412825
833.819727,-222.061783,1110.308913,-9806.022374
833.820047,296.082377,1184.329507,-9729.412825
833.820367,592.164754,962.267725,-9652.803275
833.820688,1332.370696,74.020594,-10112.460574
833.821008,888.247130,-296.082377,-10112.460574
833.821328,370.102971,0.000000,-9959.241474
833.821648,0.000000,1110.308913,-9193.145976
833.821968,0.000000,2368.659014,-10418.898773
833.822289,-296.082377,2294.638420,-10572.117872
833.822609,-518.144159,1480.411884,-10112.460574
833.822929,-148.041188,740.205942,-10572.117872
833.823249,296.082377,296.082377,-10648.727422
833.823569,0.000000,-222.061783,-10725.336972
833.823890,-370.102971,148.041188,-10112.460574
833.824210,-444.123565,666.185348,-10112.460574
833.824530,-1184.329507,1554.432478,-10418.898773
833.824850,-814.226536,1110.308913,-10112.460574
833.825170,-296.082377,962.267725,-10035.851024
833.825491,0.000000,296.082377,-11108.384721
833.825811,1702.473667,-370.102971,-10342.289223
833.826131,2072.576638,-518.144159,-10035.851024
833.826451,1776.494261,148.041188,-9959.241474
833.826771,1110.308913,1924.535449,-10112.460574
833.827092,-666.185348,2294.638420,-10265.679673
833.827412,0.000000,1110.308913,-9576.193725
833.827732,2146.597232,-148.041188,-9806.022374
833.828052,3256.906145,-1110.308913,-9652.803275
833.828372,2368.659014,-1702.473667,-9576.193725
833.828693,1850.514855,-518.144159,-8886.707777
833.829013,2368.659014,1110.308913,-9806.022374
833.829333,2442.679609,2442.679609,-10112.460574
833.829653,1628.453072,2294.638420,-9882.631924
833.829973,148.041188,1554.432478,-9806.022374
833.830294,1258.350101,-148.041188,-9576.193725
833.830614,2812.782580,-1702.473667,-10035.851024
833.830934,2738.761985,-1850.514855,-9806.022374
833.831254,1406.391290,-1258.350101,-9652.803275
833.831575,222.061783,-296.082377,-9806.022374
833.831895,0.000000,1184.329507,-10265.679673
833.832215,-814.226536,1850.514855,-10342.289223
833.832535,-1036.288319,740.205942,-10112.460574
833.832855,-1036.288319,-1332.370696,-10112.460574
833.833176,-888.247130,-2516.700203,-10495.508323
833.833496,-444.123565,-3627.009116,-9806.022374
833.833816,-888.247130,-2220.617826,-10112.460574
833.834136,-518.144159,0.000000,-10189.070123
833.834456,-518.144159,1628.453072,-10801.946522
833.834777,-148.041188,1406.391290,-10418.898773
833.835097,296.082377,-444.123565,-10418.898773
833.835417,518.144159,-1406.391290,-10418.898773
833.835737,444.123565,-2146.597232,-10265.679673
833.836057,814.226536,-962.267725,-10495.508323
833.836378,962.267725,296.082377,-10572.117872
833.836698,148.041188,1998.556043,-10495.508323
833.837018,-2072.576638,1628.453072,-10495.508323
833.837338,-2664.741391,592.164754,-11108.384721
833.837658,-1036.288319,-296.082377,-10418.898773
833.837979,-148.041188,-1036.288319,-10495.508323
833.838299,-296.082377,-1850.514855,-10265.679673
833.838619,74.020594,-1628.453072,-9729.412825
833.838939,1480.411884,74.020594,-10189.070123
833.839259,2146.597232,1332.370696,-10342.289223
833.839580,740.205942,1406.391290,-10342.289223
833.839900,-444.123565,74.020594,-9806.022374
833.840220,1036.288319,-2146.597232,-10035.851024
833.840540,740.205942,-1850.514855,-9806.022374
833.840860,-222.061783,-814.226536,-9806.022374
833.841181,0.000000,-148.041188,-10112.460574
833.841501,2516.700203,1702.473667,-10342.289223
833.841821,1406.391290,2590.720797,-10495.508323
833.842141,148.041188,1776.494261,-10189.070123
833.842461,-592.164754,0.000000,-9882.631924
833.842782,962.267725,-962.267725,-9882.631924
833.843102,666.185348,-962.267725,-9806.022374
833.843422,814.226536,-148.041188,-9806.022374
833.843742,1480.411884,2072.576638,-9882.631924
833.844062,1702.473667,3108.864956,-10342.289223
833.844383,1184.329507,2960.823768,-10265.679673
833.844703,740.205942,2516.700203,-9959.241474
833.845023,518.144159,222.061783,-10495.508323
833.845343,518.144159,-1036.288319,-10035.851024
833.845663,-962.267725,-666.185348,-10418.898773
833.845984,-814.226536,-222.061783,-10572.117872
833.846304,-888.247130,1406.391290,-10035.851024
833.846624,-1258.350101,2738.761985,-10572.117872
833.846944,-1110.308913,3627.009116,-9882.631924
833.847264,0.000000,2664.741391,-10725.336972
833.847585,592.164754,1332.370696,-10189.070123
833.847905,444.123565,-740.205942,-10342.289223
833.848225,0.000000,-1776.494261,-9269.755526
833.848545,518.144159,-1480.411884,-9729.412825
833.848865,1480.411884,592.164754,-10035.851024
833.849186,1258.350101,1776.494261,-9959.241474
833.849506,0.000000,2146.597232,-10189.070123
833.849826,1480.411884,1776.494261,-10112.460574
833.850146,2220.617826,74.020594,-10189.070123
833.850466,1184.329507,-888.247130,-10035.851024
833.850787,-888.247130,-1332.370696,-9576.193725
833.851107,-1184.329507,-518.144159,-10035.851024
833.851427,-222.061783,148.041188,-9499.584175
833.851747,740.205942,1036.288319,-9193.145976
833.852068,1554.432478,1110.308913,-10112.460574
833.852388,2590.720797,1776.494261,-10572.117872
833.852708,1998.556043,2812.782580,-10955.165621
833.853028,2072.576638,2072.576638,-9652.803275
833.853348,666.185348,1258.350101,-9806.022374
833.853669,148.041188,148.041188,-10189.070123
833.853989,222.061783,-962.267725,-9576.193725
833.854309,888.247130,-740.205942,-10265.679673
833.854629,2146.597232,-222.061783,-9959.241474
833.854949,2590.720797,0.000000,-10418.898773
833.855270,1850.514855,888.247130,-10648.727422
833.855590,1184.329507,2738.761985,-10495.508323
833.855910,592.164754,3478.967927,-10878.556072
833.856230,888.247130,1628.453072,-10648.727422
833.856550,814.226536,-740.205942,-10112.460574
833.856871,-296.082377,-2294.638420,-9806.022374
833.857191,148.041188,-3775.050304,-10035.851024
833.857511,962.267725,-3478.967927,-9882.631924
833.857831,592.164754,-1258.350101,-9959.241474
833.858151,74.020594,1702.473667,-10112.460574
833.858472,592.164754,3627.009116,-10801.946522
833.858792,296.082377,3034.844362,-10725.336972
833.859112,-222.061783,666.185348,-9806.022374
833.859432,-296.082377,-3256.906145,-9729.412825
833.859752,592.164754,-5033.400406,-9806.022374
833.860073,518.144159,-4145.153275,-9346.365076
833.860393,-592.164754,-2146.597232,-9039.926876
833.860713,-518.144159,1776.494261,-9806.022374
833.861033,666.185348,3552.988522,-10112.460574
833.861353,962.267725,3404.947333,-10112.460574
833.861674,518.144159,148.041188,-9729.412825
833.861994,-370.102971,-2590.720797,-9806.022374
833.862314,-592.164754,-4219.173869,-9729.412825
833.862634,-814.226536,-3923.091493,-9806.022374
833.862954,-962.267725,-1110.308913,-9806.022374
833.863275,-444.123565,1406.391290,-9959.241474
833.863595,592.164754,3256.906145,-10035.851024
833.863915,888.247130,2886.803174,-10725.336972
833.864235,592.164754,518.144159,-10495.508323
833.864555,1628.453072,-1850.514855,-9959.241474
833.864876,666.185348,-3108.864956,-10265.679673
833.865196,-148.041188,-3108.864956,-9729.412825
833.865516,518.144159,-1480.411884,-10112.460574
833.865836,2294.638420,1258.350101,-11644.651570
833.866156,2590.720797,3034.844362,-11031.775171
833.866477,2368.659014,3478.967927,-10801.946522
833.866797,1480.411884,2516.700203,-10878.556072
833.867117,1406.391290,74.020594,-10955.165621
833.867437,148.041188,-1406.391290,-10342.289223
833.867757,-370.102971,-1924.535449,-9806.022374
833.868078,-518.144159,-370.102971,-10265.679673
833.868398,888.247130,1850.514855,-10572.117872
833.868718,592.164754,2220.617826,-10342.289223
833.869038,222.061783,3404.947333,-10342.289223
833.869358,962.267725,2812.782580,-10725.336972
833.869679,444.123565,1776.494261,-10725.336972
833.869999,296.082377,592.164754,-10112.460574
833.870319,1036.288319,296.082377,-9806.022374
833.870639,1406.391290,444.123565,-9959.241474
833.870959,74.020594,1406.391290,-9652.803275
833.871280,-1628.453072,1924.535449,-9652.803275
833.871600,-1406.391290,2590.720797,-9346.365076
833.871920,1554.432478,1702.473667,-9959.241474
833.872240,2590.720797,-222.061783,-9729.412825
833.872561,1184.329507,-962.267725,-9422.974625
833.872881,-148.041188,-1332.370696,-9193.145976
833.873201,-666.185348,0.000000,-9422.974625
833.873521,-1110.308913,1036.288319,-9652.803275
833.873841,-2294.638420,2220.617826,-9422.974625
833.874162,-1110.308913,1628.453072,-9269.755526
833.874482,444.123565,1110.308913,-11031.775171
833.874802,1258.350101,74.020594,-10112.460574
833.875122,1258.350101,518.144159,-10265.679673
833.875442,1406.391290,1998.556043,-10725.336972
833.875763,592.164754,2960.823768,-11414.822920
833.876083,-1554.432478,2368.659014,-10955.165621
833.876403,-1406.391290,1480.411884,-10112.460574
833.876723,296.082377,-518.144159,-10725.336972
833.877043,1628.453072,-740.205942,-10955.165621
833.877364,2590.720797,-370.102971,-10572.117872
833.877684,2738.761985,1924.535449,-10801.946522
833.878004,2664.741391,3775.050304,-11031.775171
833.878324,1702.473667,3627.009116,-10572.117872
833.878644,888.247130,1850.514855,-10342.289223
833.878965,296.082377,-1184.329507,-9959.241474
833.879285,962.267725,-2664.741391,-10035.851024
833.879605,1480.411884,-2590.720797,-10265.679673
833.879925,1480.411884,-1554.432478,-9499.584175
833.880245,1628.453072,296.082377,-10035.851024
833.880566,1110.308913,1776.494261,-9959.241474
833.880886,296.082377,1406.391290,-9499.584175
833.881206,-148.041188,370.102971,-9422.974625
833.881526,1924.535449,-1628.453072,-9959.241474
833.881846,2442.679609,-3478.967927,-9729.412825
833.882167,1850.514855,-3775.050304,-9422.974625
833.882487,1110.308913,-2738.761985,-9193.145976
833.882807,1480.411884,0.000000,-9806.022374
833.883127,1110.308913,2664.741391,-10418.898773
833.883447,148.041188,2738.761985,-9959.241474
833.883768,-296.082377,222.061783,-9806.022374
833.884088,666.185348,-2812.782580,-10265.679673
833.884408,0.000000,-4515.256246,-10035.851024
833.884728,-1480.411884,-3923.091493,-9729.412825
833.885048,-1332.370696,-740.205942,-10112.460574
833.885369,74.020594,2220.617826,-10878.556072
833.885689,888.247130,3256.906145,-10878.556072
833.886009,-296.082377,1998.556043,-10725.336972
833.886329,296.082377,-592.164754,-10725.336972
833.886649,888.247130,-2516.700203,-10878.556072
833.886970,-592.164754,-2664.741391,-10572.117872
833.887290,-370.102971,-1406.391290,-10418.898773
833.887610,-1036.288319,814.226536,-10648.727422
833.887930,-1036.288319,740.205942,-10495.508323
833.888250,-1406.391290,518.144159,-10265.679673
833.888571,-740.205942,444.123565,-9806.022374
833.888891,592.164754,74.020594,-10035.851024
833.889211,962.267725,222.061783,-10418.898773
833.889531,740.205942,-592.164754,-10189.070123
833.889851,74.020594,-1258.350101,-9576.193725
833.890172,370.102971,0.000000,-9806.022374
833.890492,222.061783,1554.432478,-9652.803275
833.890812,74.020594,1554.432478,-9806.022374
833.891132,1702.473667,2072.576638,-9959.241474
833.891452,2590.720797,518.144159,-10342.289223
833.891773,1776.494261,74.020594,-9652.803275
833.892093,0.000000,-370.102971,-9269.755526
833.892413,-814.226536,74.020594,-9499.584175
833.892733,370.102971,444.123565,-9576.193725
833.893053,1036.288319,0.000000,-9806.022374
833.893374,740.205942,-1628.453072,-9193.145976
833.893694,1184.329507,-2886.803174,-9422.974625
833.894014,1480.411884,-1850.514855,-9882.631924
833.894334,962.267725,-222.061783,-9806.022374
833.894655,370.102971,1554.432478,-9959.241474
833.894975,1406.391290,2738.761985,-10342.289223
833.895295,1480.411884,3627.009116,-10418.898773
833.895615,-148.041188,2294.638420,-11108.384721
833.895935,-148.041188,444.123565,-9959.241474
833.896256,148.041188,-962.267725,-10495.508323
833.896576,0.000000,-1480.411884,-9959.241474
833.896896,-518.144159,-296.082377,-10035.851024
833.897216,0.000000,1480.411884,-9806.022374
833.897536,-148.041188,3923.091493,-10495.508323
833.897857,-666.185348,4589.276840,-10725.336972
833.898177,74.020594,3849.070898,-10189.070123
833.898497,962.267725,1258.350101,-10342.289223
833.898817,2220.617826,-1480.411884,-10418.898773
833.899137,518.144159,-2442.679609,-10112.460574
833.899458,-666.185348,-1406.391290,-9882.631924
833.899778,-814.226536,592.164754,-9959.241474
833.900098,-370.102971,3330.926739,-10418.898773
833.900418,-518.144159,4589.276840,-10572.117872
833.900738,-1480.411884,3256.906145,-9806.022374
833.901058,-592.164754,592.164754,-9806.022374
833.901378,740.205942,-1554.432478,-9882.631924
833.901698,444.123565,-1776.494261,-9806.022374
833.902019,592.164754,-1406.391290,-9116.536426
833.902339,1184.329507,0.000000,-9652.803275
833.902659,1184.329507,1924.535449,-9882.631924
833.902979,148.041188,3108.864956,-9882.631924
833.903299,814.226536,3404.947333,-9959.241474
833.903619,2812.782580,2368.659014,-10035.851024
833.903939,3108.864956,444.123565,-10265.679673
833.904259,2516.700203,-1332.370696,-9806.022374
833.904579,1850.514855,-2146.597232,-9806.022374
833.904899,740.205942,-1924.535449,-9729.412825
833.905219,222.061783,-296.082377,-9806.022374
833.905539,296.082377,1850.514855,-9806.022374
833.905859,1332.370696,2220.617826,-11338.213370
833.906179,1554.432478,1480.411884,-10495.508323
833.906500,1184.329507,-962.267725,-10342.289223
833.906820,740.205942,-1406.391290,-10189.070123
833.907140,444.123565,-1110.308913,-9652.803275
833.907460,592.164754,444.123565,-10801.946522
833.907780,518.144159,1184.329507,-10265.679673
833.908100,222.061783,962.267725,-10342.289223
833.908420,1036.288319,222.061783,-10495.508323
833.908740,888.247130,222.061783,-10878.556072
833.909060,518.144159,-370.102971,-10495.508323
833.909380,1406.391290,444.123565,-10035.851024
833.909700,1776.494261,444.123565,-10418.898773
833.910020,666.185348,0.000000,-11414.822920
833.910340,-962.267725,-1036.288319,-9806.022374
833.910660,-1258.350101,-1850.514855,-9806.022374
833.910981,74.020594,-814.226536,-10189.070123
833.911301,74.020594,74.020594,-9729.412825
833.911621,-666.185348,1184.329507,-10035.851024
833.911941,-518.144159,1332.370696,-9806.022374
833.912261,518.144159,1332.370696,-9806.022374
833.912581,0.000000,888.247130,-10112.460574
833.912901,-1110.308913,-370.102971,-9729.412825
833.913221,74.020594,-1850.514855,-9959.241474
833.913541,2220.617826,-2368.659014,-9652.803275
833.913861,2368.659014,-2368.659014,-9959.241474
833.914181,814.226536,-1258.350101,-9806.022374
833.914501,444.123565,740.205942,-9959.241474
833.914821,592.164754,2590.720797,-10418.898773
833.915141,666.185348,2886.803174,-10572.117872
833.915462,1702.473667,1998.556043,-10112.460574
833.915782,1628.453072,-740.205942,-9499.584175
833.916102,444.123565,-2664.741391,-9959.241474
833.916422,-814.226536,-3034.844362,-9806.022374
833.916742,-1258.350101,-592.164754,-10112.460574
833.917062,-148.041188,1406.391290,-10265.679673
833.917382,74.020594,2442.679609,-10342.289223
833.917702,0.000000,1850.514855,-10112.460574
833.918022,148.041188,1036.288319,-10572.117872
833.918342,1184.329507,370.102971,-10955.165621
833.918662,1406.391290,74.020594,-9806.022374
833.918982,0.000000,0.000000,-10035.851024
833.919302,1036.288319,666.185348,-10112.460574
833.919622,1036.288319,370.102971,-9959.241474
833.919942,-518.144159,814.226536,-10418.898773
833.920263,-370.102971,592.164754,-9652.803275
833.920583,1036.288319,0.000000,-10265.679673
833.920903,1998.556043,-222.061783,-10342.289223
833.921223,74.020594,-444.123565,-9806.022374
833.921543,-962.267725,-1110.308913,-9499.584175
833.921863,-2516.700203,0.000000,-9806.022374
833.922183,-1998.556043,444.123565,-10035.851024
833.922503,-1036.288319,296.082377,-9729.412825
833.922823,1184.329507,0.000000,-9499.584175
833.923143,1924.535449,-740.205942,-9806.022374
833.923463,1036.288319,-1184.329507,-9959.241474
833.923783,0.000000,-666.185348,-9729.412825
833.924103,740.205942,814.226536,-9882.631924
833.924423,1332.370696,2146.597232,-9806.022374
833.924744,592.164754,2368.659014,-10035.851024
833.925064,-518.144159,740.205942,-9959.241474
833.925384,-444.123565,-222.061783,-9882.631924
833.925704,888.247130,-1110.308913,-8963.317327
833.926024,962.267725,-296.082377,-9806.022374
833.926344,2220.617826,1776.494261,-10035.851024
833.926664,3330.926739,1850.514855,-10878.556072
833.926984,2812.782580,2072.576638,-10495.508323
833.927304,222.061783,518.144159,-9882.631924
833.927624,-1110.308913,-296.082377,-9806.022374
833.927944,-370.102971,-222.061783,-10189.070123
833.928264,814.226536,370.102971,-10342.289223
833.928584,1110.308913,1924.535449,-10725.336972
833.928904,444.123565,1036.288319,-10035.851024
833.929225,1776.494261,1332.370696,-10495.508323
833.929545,1850.514855,1036.288319,-10648.727422
833.929865,1110.308913,592.164754,-10035.851024
833.930185,1406.391290,1184.329507,-10801.946522
833.930505,1554.432478,74.020594,-10418.898773
833.930825,1406.391290,-814.226536,-9806.022374
833.931145,148.041188,-444.123565,-10112.460574
833.931465,-592.164754,962.267725,-9806.022374
833.931785,518.144159,2294.638420,-10572.117872
833.932105,888.247130,2146.597232,-10035.851024
833.932425,0.000000,1554.432478,-9806.022374
833.932745,-222.061783,-518.144159,-10112.460574
833.933065,-740.205942,-2516.700203,-9729.412825
833.933385,-666.185348,-1998.556043,-9576.193725
833.933706,-814.226536,0.000000,-9422.974625
833.934026,370.102971,1036.288319,-9806.022374
833.934346,1924.535449,1406.391290,-9806.022374
833.934666,888.247130,0.000000,-9499.584175
833.934986,74.020594,-1332.370696,-9499.584175
833.935306,1036.288319,-1850.514855,-10112.460574
833.935626,1850.514855,-296.082377,-10112.460574
833.935946,2294.638420,148.041188,-10418.898773
833.936266,962.267725,1480.411884,-10189.070123
833.936586,-888.247130,1776.494261,-10495.508323
833.936906,-1332.370696,1184.329507,-10265.679673
833.937226,-1184.329507,888.247130,-9806.022374
833.937546,1110.308913,-518.144159,-10418.898773
833.937866,3256.906145,-740.205942,-10572.117872
833.938187,2590.720797,-666.185348,-10878.556072
833.938507,666.185348,222.061783,-10801.946522
833.938827,222.061783,1702.473667,-10572.117872
833.939147,148.041188,2590.720797,-11108.384721
833.939467,-814.226536,2146.597232,-10418.898773
833.939787,-888.247130,1036.288319,-10265.679673
833.940107,1480.411884,-666.185348,-11721.261119
833.940427,3034.844362,-962.267725,-10495.508323
833.940747,1776.494261,-1332.370696,-10495.508323
833.941067,222.061783,444.123565,-9806.022374
833.941387,0.000000,2220.617826,-10418.898773
833.941707,0.000000,2886.803174,-10418.898773
833.942027,-888.247130,444.123565,-10035.851024
833.942347,-962.267725,-2072.576638,-9422.974625
833.942668,-666.185348,-3404.947333,-9422.974625
833.942988,1184.329507,-4293.194464,-9729.412825
833.943308,666.185348,-2220.617826,-9652.803275
833.943628,518.144159,-592.164754,-9806.022374
833.943948,0.000000,1480.411884,-9729.412825
833.944268,-740.205942,1702.473667,-9422.974625
833.944588,-666.185348,740.205942,-10189.070123
833.944908,962.267725,-740.205942,-10035.851024
833.945228,2072.576638,-2442.679609,-9806.022374
833.945548,1332.370696,-2220.617826,-9806.022374
833.945868,-592.164754,0.000000,-9806.022374
833.946188,-1702.473667,2072.576638,-10342.289223
833.946508,-1998.556043,3404.947333,-10495.508323
833.946828,-1036.288319,3775.050304,-10418.898773
833.947149,370.102971,2368.659014,-10572.117872
833.947469,814.226536,-740.205942,-10572.117872
833.947789,1702.473667,-3404.947333,-10265.679673
833.948109,1998.556043,-3478.967927,-10035.851024
833.948429,2072.576638,-1036.288319,-10112.460574
833.948749,1258.350101,1480.411884,-10725.336972
833.949069,740.205942,4367.215058,-10801.946522
833.949389,666.185348,4071.132681,-10878.556072
833.949709,1702.473667,2516.700203,-10801.946522
833.950029,1406.391290,666.185348,-10725.336972
833.950349,592.164754,-1184.329507,-10189.070123
833.950669,0.000000,-1924.535449,-9576.193725
833.950989,888.247130,-666.185348,-10112.460574
833.951309,1184.329507,-370.102971,-10189.070123
833.951630,-666.185348,1332.370696,-10112.460574
833.951950,-888.247130,2368.659014,-9652.803275
833.952270,518.144159,2368.659014,-10189.070123
833.952590,3108.864956,2294.638420,-10112.460574
833.952910,2294.638420,1258.350101,-10035.851024
833.953230,592.164754,148.041188,-9652.803275
833.953550,0.000000,-518.144159,-9346.365076
833.953870,0.000000,0.000000,-9729.412825
833.954190,-740.205942,1036.288319,-8580.269578
833.954510,-1480.411884,1110.308913,-9806.022374
833.954830,-962.267725,370.102971,-9882.631924
833.955150,-296.082377,-814.226536,-9422.974625
833.955470,-740.205942,-1998.556043,-9652.803275
833.955790,-370.102971,-1776.494261,-8733.488677
833.956111,-148.041188,-222.061783,-9806.022374
833.956431,-1258.350101,1258.350101,-9882.631924
833.956751,-222.061783,592.164754,-9652.803275
833.957071,1406.391290,0.000000,-10035.851024
833.957391,1924.535449,-1184.329507,-10495.508323
833.957711,1850.514855,-2146.597232,-10265.679673
833.958031,2294.638420,0.000000,-9806.022374
833.958351,2146.597232,1924.535449,-10878.556072
833.958671,2072.576638,3627.009116,-10572.117872
833.958991,0.000000,2442.679609,-11031.775171
833.959311,-222.061783,-592.164754,-9959.241474
833.959631,814.226536,-1850.514855,-10801.946522
833.959951,1628.453072,-3849.070898,-10418.898773
833.960271,962.267725,-1850.514855,-10418.898773
833.960592,1036.288319,1184.329507,-10035.851024
833.960912,1924.535449,3552.988522,-10878.556072
833.961232,1110.308913,5107.421000,-10112.460574
833.961552,0.000000,3404.947333,-10572.117872
833.961872,1110.308913,962.267725,-10342.289223
833.962192,2072.576638,-888.247130,-10342.289223
833.962512,2442.679609,-3256.906145,-9806.022374
833.962832,3182.885551,-2368.659014,-8886.707777
833.963152,3108.864956,-1258.350101,-9499.584175
833.963472,1998.556043,1110.308913,-10418.898773
833.963792,0.000000,2590.720797,-9806.022374
833.964112,-888.247130,1998.556043,-9652.803275
833.964432,296.082377,0.000000,-9959.241474
833.964752,888.247130,-2368.659014,-9729.412825
833.965073,518.144159,-4145.153275,-10189.070123
833.965393,962.267725,-1554.432478,-9729.412825
833.965713,592.164754,962.267725,-10265.679673
833.966033,-740.205942,2516.700203,-9882.631924
833.966353,-1480.411884,2516.700203,-10189.070123
833.966673,-2368.659014,814.226536,-10112.460574
833.966993,-296.082377,-1184.329507,-11261.603821
833.967313,370.102971,-1998.556043,-10495.508323
833.967633,0.000000,-2146.597232,-10189.070123
833.967953,-592.164754,296.082377,-10265.679673
833.968273,-296.082377,2146.597232,-10495.508323
833.968593,-1332.370696,2220.617826,-11414.822920
833.968913,-1702.473667,1776.494261,-10495.508323
833.969233,-518.144159,0.000000,-10648.727422
833.969554,1480.411884,-1480.411884,-10418.898773
833.969874,1702.473667,-666.185348,-11261.603821
833.970194,-222.061783,74.020594,-10418.898773
833.970514,-2072.576638,888.247130,-10418.898773
833.970834,-2220.617826,1554.432478,-10418.898773
833.971154,-2368.659014,2220.617826,-10189.070123
833.971474,-1406.391290,814.226536,-10265.679673
833.971794,592.164754,-296.082377,-10112.460574
833.972114,1776.494261,-1184.329507,-10342.289223
833.972434,1554.432478,-1702.473667,-9806.022374
833.972754,0.000000,74.020594,-9806.022374
833.973074,296.082377,1776.494261,-10265.679673
833.973394,0.000000,3034.844362,-10418.898773
833.973714,-1110.308913,2738.761985,-10342.289223
833.974035,222.061783,1480.411884,-9576.193725
833.974355,2368.659014,-962.267725,-10035.851024
833.974675,3627.009116,-1406.391290,-9959.241474
833.974995,2442.679609,-1332.370696,-9882.631924
833.975315,1776.494261,-296.082377,-9806.022374
833.975635,222.061783,2220.617826,-10495.508323
833.975955,-1258.350101,3404.947333,-9806.022374
833.976275,-1332.370696,3701.029710,-9729.412825
833.976595,518.144159,1702.473667,-10112.460574
833.976915,2960.823768,-666.185348,-10725.336972
833.977235,3108.864956,-2146.597232,-10265.679673
833.977555,2220.617826,-1924.535449,-9346.365076
833.977875,1406.391290,370.102971,-10112.460574
833.978195,1332.370696,3330.926739,-10342.289223
833.978515,1332.370696,4071.132681,-10878.556072
833.978836,1332.370696,2516.700203,-10342.289223
833.979156,2220.617826,1110.308913,-10878.556072
833.979476,2294.638420,0.000000,-10648.727422
833.979796,1406.391290,-1258.350101,-9959.241474
833.980116,1480.411884,148.041188,-10035.851024
833.980436,2368.659014,592.164754,-10189.070123
833.980756,2738.761985,1628.453072,-9959.241474
833.981076,1258.350101,1628.453072,-10112.460574
833.981396,-222.061783,962.267725,-9882.631924
833.981716,-1036.288319,888.247130,-10572.117872
833.982036,-1036.288319,-370.102971,-9806.022374
833.982356,-518.144159,-1036.288319,-9269.755526
833.982676,370.102971,-814.226536,-9882.631924
833.982996,296.082377,-222.061783,-9806.022374
833.983317,0.000000,370.102971,-9729.412825
833.983637,-148.041188,1406.391290,-9652.803275
833.983957,740.205942,814.226536,-10265.679673
833.984277,2072.576638,-444.123565,-10189.070123
833.984597,74.020594,-1776.494261,-9422.974625
833.984917,-888.247130,-1332.370696,-9116.536426
833.985237,0.000000,518.144159,-9959.241474
833.985557,-148.041188,2294.638420,-10189.070123
833.985877,-1258.350101,1850.514855,-10189.070123
833.986197,-1406.391290,296.082377,-10035.851024
833.986517,592.164754,-2146.597232,-10035.851024
833.986837,1998.556043,-3404.947333,-10035.851024
833.987157,962.267725,-2590.720797,-9882.631924
833.987477,-296.082377,444.123565,-10035.851024
833.987798,-370.102971,3108.864956,-10648.727422
833.988118,-1036.288319,3775.050304,-10418.898773
833.988438,-1480.411884,1554.432478,-9806.022374
833.988758,-1184.329507,-2072.576638,-10112.460574
833.989078,1110.308913,-4441.235652,-10265.679673
833.989398,1258.350101,-4071.132681,-10418.898773
833.989718,1110.308913,-1036.288319,-9882.631924
833.990038,666.185348,2516.700203,-10418.898773
833.990358,666.185348,4219.173869,-10878.556072
833.990678,-666.185348,3404.947333,-10418.898773
833.990998,-814.226536,222.061783,-10495.508323
833.991318,-74.020594,-1998.556043,-9806.022374
833.991638,1776.494261,-3701.029710,-10035.851024
833.991958,1480.411884,-3034.844362,-10189.070123
833.992279,1110.308913,-444.123565,-10112.460574
833.992599,1850.514855,2072.576638,-10342.289223
833.992919,888.247130,2960.823768,-9882.631924
833.993239,74.020594,1776.494261,-9882.631924
833.993559,-370.102971,-444.123565,-9269.755526
833.993879,444.123565,-2442.679609,-9806.022374
833.994199,148.041188,-3627.009116,-9422.974625
833.994519,740.205942,-3034.844362,-9346.365076
833.994839,1332.370696,0.000000,-9806.022374
833.995159,814.226536,2664.741391,-9882.631924
833.995479,-518.144159,4293.194464,-10189.070123
833.995799,-1332.370696,3034.844362,-9959.241474
833.996119,-370.102971,888.247130,-9652.803275
833.996439,1258.350101,-2072.576638,-10189.070123
833.996760,1480.411884,-3256.906145,-9806.022374
833.997080,1924.535449,-1924.535449,-9346.365076
833.997400,1702.473667,444.123565,-10418.898773
833.997720,962.267725,2886.803174,-10035.851024
833.998040,-740.205942,3775.050304,-10572.117872
833.998360,-1554.432478,2960.823768,-9039.926876
833.998680,0.000000,1184.329507,-10572.117872
833.999000,1998.556043,-814.226536,-10189.070123
833.999320,2368.659014,-1406.391290,-10418.898773
833.999640,1924.535449,-222.061783,-10189.070123
833.999960,1110.308913,1776.494261,-10495.508323
834.000280,0.000000,3552.988522,-10418.898773
834.000600,-962.267725,3478.967927,-10418.898773
834.000920,-962.267725,2294.638420,-10418.898773
834.001240,592.164754,518.144159,-10648.727422
834.001560,1036.288319,0.000000,-10418.898773
834.001880,888.247130,-444.123565,-10342.289223
834.002200,1184.329507,444.123565,-10112.460574
834.002520,962.267725,2294.638420,-9729.412825
834.002840,444.123565,3552.988522,-10495.508323
834.003160,-444.123565,3034.844362,-9882.631924
834.003480,-518.144159,1110.308913,-10112.460574
834.003800,-148.041188,-1184.329507,-9729.412825
834.004120,1184.329507,-2368.659014,-9193.145976
834.004440,2294.638420,-1332.370696,-9652.803275
834.004760,1998.556043,370.102971,-9806.022374
834.005080,1036.288319,2812.782580,-10035.851024
834.005400,74.020594,3701.029710,-9806.022374
834.005720,74.020594,1850.514855,-9882.631924
834.006040,0.000000,-296.082377,-10112.460574
834.006360,-222.061783,-2664.741391,-9729.412825
834.006680,222.061783,-3182.885551,-9422.974625
834.007000,1258.350101,-1702.473667,-9882.631924
834.007320,1036.288319,740.205942,-9652.803275
834.007640,-222.061783,1924.535449,-10112.460574
834.007960,444.123565,2294.638420,-9806.022374
834.008280,1184.329507,1258.350101,-10265.679673
834.008600,1924.535449,-592.164754,-10878.556072
834.008920,-444.123565,-740.205942,-10418.898773
834.009240,-1702.473667,-888.247130,-9652.803275
834.009560,-518.144159,-666.185348,-10495.508323
834.009880,1036.288319,148.041188,-10189.070123
834.010200,-740.205942,370.102971,-9959.241474
834.010520,-740.205942,592.164754,-9806.022374
834.010840,370.102971,0.000000,-10572.117872
834.011160,1998.556043,-370.102971,-10342.289223
834.011480,1406.391290,-666.185348,-10265.679673
834.011800,1702.473667,0.000000,-10189.070123
834.012119,2442.679609,962.267725,-10112.460574
834.012439,2368.659014,1258.350101,-10342.289223
834.012759,1480.411884,370.102971,-9959.241474
834.013079,1554.432478,-1036.288319,-9959.241474
834.013399,1628.453072,-2590.720797,-10265.679673
834.013719,888.247130,-2220.617826,-9882.631924
834.014039,74.020594,-666.185348,-10112.460574
834.014359,-444.123565,1184.329507,-10495.508323
834.014679,-814.226536,1628.453072,-10495.508323
834.014999,-1554.432478,1184.329507,-9959.241474
834.015319,-1554.432478,222.061783,-9959.241474
834.015639,0.000000,-2146.597232,-9806.022374
834.015959,1332.370696,-2886.803174,-10112.460574
834.016279,2146.597232,-1628.453072,-10189.070123
834.016599,1628.453072,444.123565,-10342.289223
834.016919,0.000000,1258.350101,-10955.165621
834.017239,-666.185348,2368.659014,-10112.460574
834.017559,-888.247130,2516.700203,-10648.727422
834.017879,0.000000,1998.556043,-9882.631924
834.018199,2442.679609,0.000000,-11568.042020
834.018519,2220.617826,-370.102971,-10418.898773
834.018839,518.144159,-2590.720797,-9806.022374
834.019159,74.020594,-2072.576638,-10035.851024
834.019479,74.020594,-518.144159,-9882.631924
834.019799,-592.164754,1998.556043,-10878.556072
834.020119,-1480.411884,2664.741391,-9806.022374
834.020439,-592.164754,2294.638420,-9882.631924
834.020759,814.226536,814.226536,-10342.289223
834.021079,-444.123565,-1850.514855,-10112.460574
834.021399,-1628.453072,-2368.659014,-9499.584175
834.021719,-370.102971,-592.164754,-10035.851024
834.022039,222.061783,1406.391290,-9729.412825
834.022359,740.205942,2812.782580,-10265.679673
834.022679,74.020594,2220.617826,-9499.584175
834.022999,1702.473667,666.185348,-10342.289223
834.023319,2442.679609,-888.247130,-10035.851024
834.023639,2072.576638,-1406.391290,-10418.898773
834.023959,814.226536,222.061783,-10189.070123
834.024279,1184.329507,1628.453072,-10495.508323
834.024599,296.082377,2812.782580,-9959.241474
834.024919,-888.247130,2738.761985,-9882.631924
834.025239,-666.185348,1998.556043,-10189.070123
834.025559,370.102971,1184.329507,-10495.508323
834.025879,1702.473667,-148.041188,-10265.679673
834.026199,1702.473667,-814.226536,-9576.193725
834.026519,1258.350101,-666.185348,-9806.022374
834.026839,1776.494261,370.102971,-10265.679673
834.027159,1036.288319,2368.659014,-10112.460574
834.027479,740.205942,3775.050304,-10265.679673
834.027799,814.226536,3330.926739,-10495.508323
834.028119,1924.535449,962.267725,-10265.679673
834.028439,1850.514855,-1332.370696,-10112.460574
834.028759,1184.329507,-2368.659014,-9269.755526
834.029079,1850.514855,-814.226536,-10189.070123
834.029399,1332.370696,1406.391290,-9882.631924
834.029719,0.000000,2812.782580,-10878.556072
834.030039,-740.205942,2664.741391,-9806.022374
834.030358,-296.082377,1332.370696,-10418.898773
834.030678,0.000000,148.041188,-10189.070123
834.030998,0.000000,-1184.329507,-10035.851024
834.031318,518.144159,-1406.391290,-10112.460574
834.031638,1184.329507,-1406.391290,-10035.851024
834.031958,1184.329507,0.000000,-10112.460574
834.032278,-962.267725,814.226536,-9652.803275
834.032598,-1036.288319,1036.288319,-9882.631924
834.032918,-592.164754,814.226536,-10342.289223
834.033238,74.020594,148.041188,-10572.117872
834.033558,444.123565,-962.267725,-9806.022374
834.033878,740.205942,-888.247130,-9882.631924
834.034198,592.164754,74.020594,-10265.679673
834.034518,-888.247130,0.000000,-10035.851024
834.034838,-1406.391290,-888.247130,-9499.584175
834.035158,1110.308913,-1406.391290,-10035.851024
834.035478,1036.288319,-1036.288319,-9652.803275
834.035798,370.102971,-1332.370696,-10265.679673
834.036118,-370.102971,-296.082377,-9806.022374
834.036438,-370.102971,962.267725,-10418.898773
834.036758,-518.144159,1850.514855,-11184.994271
834.037078,370.102971,1258.350101,-10418.898773
834.037398,148.041188,-518.144159,-9882.631924
834.037718,1110.308913,-2146.597232,-10801.946522
834.038038,1776.494261,-2368.659014,-10725.336972
834.038358,740.205942,-1702.473667,-10725.336972
834.038678,1036.288319,-1110.308913,-10265.679673
834.038998,1554.432478,370.102971,-10418.898773
834.039318,1036.288319,1554.432478,-10801.946522
834.039638,-962.267725,1184.329507,-9422.974625
834.039958,-814.226536,370.102971,-10648.727422
834.040278,0.000000,-2368.659014,-10418.898773
834.040598,1628.453072,-3182.885551,-10572.117872
834.040918,1702.473667,-1258.350101,-9882.631924
834.041238,1184.329507,1332.370696,-10725.336972
834.041558,74.020594,2812.782580,-10189.070123
834.041878,-1628.453072,2590.720797,-10265.679673
834.042198,-1406.391290,740.205942,-9959.241474
834.042518,666.185348,-2294.638420,-9806.022374
834.042838,1554.432478,-3701.029710,-9806.022374
834.043158,0.000000,-3478.967927,-9652.803275
834.043478,-666.185348,-222.061783,-9422.974625
834.043798,0.000000,2368.659014,-10112.460574
834.044118,148.041188,3256.906145,-9806.022374
834.044438,-1036.288319,2516.700203,-9499.584175
834.044758,-444.123565,1258.350101,-9652.803275
834.045078,1332.370696,-666.185348,-9959.241474
834.045398,1924.535449,-2368.659014,-9422.974625
834.045718,148.041188,-2146.597232,-9346.365076
834.046038,-518.144159,-1184.329507,-9729.412825
834.046358,888.247130,1036.288319,-9806.022374
834.046678,1036.288319,2664.741391,-10035.851024
834.046998,814.226536,3182.885551,-9652.803275
834.047318,666.185348,1850.514855,-10955.165621
834.047638,370.102971,1702.473667,-10342.289223
834.047958,-592.164754,-222.061783,-10418.898773
834.048278,0.000000,0.000000,-9959.241474
834.048597,1702.473667,740.205942,-10342.289223
834.048917,1110.308913,2664.741391,-10878.556072
834.049237,592.164754,2960.823768,-10112.460574
834.049557,1184.329507,2812.782580,-9882.631924
834.049877,2368.659014,1628.453072,-10572.117872
834.050197,2812.782580,222.061783,-10495.508323
834.050517,1480.411884,0.000000,-10189.070123
834.050837,518.144159,-222.061783,-10112.460574
834.051157,1258.350101,518.144159,-10112.460574
834.051477,444.123565,1924.535449,-10112.460574
834.051797,666.185348,2886.803174,-9959.241474
834.052117,1332.370696,2738.761985,-10342.289223
834.052437,1850.514855,1554.432478,-10342.289223
834.052757,1184.329507,222.061783,-10112.460574
834.053077,962.267725,0.000000,-9806.022374
834.053397,2664.741391,444.123565,-10112.460574
834.053717,1628.453072,1554.432478,-9882.631924
834.054037,148.041188,2294.638420,-9959.241474
834.054357,-444.123565,2146.597232,-9652.803275
834.054677,1554.432478,222.061783,-10035.851024
834.054997,1258.350101,-592.164754,-9806.022374
834.055317,-888.247130,-1332.370696,-9116.536426
834.055637,-296.082377,-1036.288319,-9499.584175
834.055957,740.205942,1702.473667,-9959.241474
834.056277,370.102971,4293.194464,-10342.289223
834.056597,814.226536,4737.318029,-10189.070123
834.056917,814.226536,1850.514855,-9346.365076
834.057237,740.205942,-1998.556043,-9806.022374
834.057557,1036.288319,-3849.070898,-9269.755526
834.057877,444.123565,-4219.173869,-9116.536426
834.058197,1110.308913,-1776.494261,-9499.584175
834.058517,888.247130,666.185348,-10265.679673
834.058837,-444.123565,1554.432478,-10112.460574
834.059157,-1480.411884,1850.514855,-9729.412825
834.059477,-1332.370696,592.164754,-10265.679673
834.059797,-222.061783,-888.247130,-10265.679673
834.060117,222.061783,-2886.803174,-10112.460574
834.060437,0.000000,-2812.782580,-9806.022374
834.060757,296.082377,-1332.370696,-10725.336972
834.061077,518.144159,666.185348,-11721.261119
834.061397,-962.267725,1110.308913,-10572.117872
834.061717,-1702.473667,1554.432478,-10495.508323
834.062037,-370.102971,962.267725,-10801.946522
834.062357,592.164754,-814.226536,-10572.117872
834.062677,1406.391290,-2516.700203,-10265.679673
834.062997,888.247130,-1702.473667,-10342.289223
834.063317,1332.370696,-592.164754,-10955.165621
834.063637,296.082377,962.267725,-10495.508323
834.063957,-444.123565,1480.411884,-10035.851024
834.064277,0.000000,518.144159,-10495.508323
834.064597,1554.432478,-592.164754,-10648.727422
834.064917,1332.370696,-2442.679609,-10265.679673
834.065237,296.082377,-2516.700203,-9959.241474
834.065557,370.102971,-888.247130,-10189.070123
834.065877,444.123565,0.000000,-10265.679673
834.066197,-222.061783,222.061783,-9806.022374
834.066516,0.000000,-444.123565,-9882.631924
834.066836,74.020594,-1702.473667,-9576.193725
834.067156,0.000000,-2072.576638,-9882.631924
834.067476,-740.205942,-2294.638420,-9729.412825
834.067796,370.102971,-666.185348,-9576.193725
834.068116,1628.453072,666.185348,-10112.460574
834.068436,2368.659014,1480.411884,-10035.851024
834.068756,370.102971,740.205942,-10035.851024
834.069076,-888.247130,-444.123565,-9882.631924
834.069396,0.000000,-1332.370696,-10342.289223
834.069716,0.000000,-518.144159,-9959.241474
834.070036,74.020594,-666.185348,-9652.803275
834.070356,518.144159,222.061783,-10189.070123
834.070676,0.000000,1036.288319,-10035.851024
834.070996,-1628.453072,1850.514855,-9882.631924
834.071316,-1702.473667,1776.494261,-9806.022374
834.071636,444.123565,370.102971,-10112.460574
834.071956,2294.638420,222.061783,-10418.898773
834.072276,1036.288319,-518.144159,-10189.070123
834.072596,592.164754,740.205942,-9959.241474
834.072916,444.123565,2072.576638,-10342.289223
834.073236,814.226536,2812.782580,-10495.508323
834.073556,888.247130,3478.967927,-10801.946522
834.073876,-74.020594,2516.700203,-9806.022374
834.074196,1332.370696,1554.432478,-10955.165621
834.074516,2664.741391,0.000000,-10418.898773
834.074836,962.267725,-148.041188,-9959.241474
834.075156,-370.102971,444.123565,-9652.803275
834.075476,962.267725,1924.535449,-10342.289223
834.075796,1628.453072,2294.638420,-9729.412825
834.076116,1554.432478,1406.391290,-10112.460574
834.076436,740.205942,1406.391290,-9576.193725
834.076756,1776.494261,1776.494261,-9193.145976
834.077076,1480.411884,370.102971,-9806.022374
834.077396,1480.411884,1258.350101,-9576.193725
834.077716,1110.308913,1776.494261,-9959.241474
834.078036,1184.329507,962.267725,-9806.022374
834.078356,1406.391290,1480.411884,-9729.412825
834.078676,0.000000,740.205942,-9806.022374
834.078996,1184.329507,0.000000,-9806.022374
834.079316,1776.494261,-222.061783,-9806.022374
834.079636,1702.473667,0.000000,-10801.946522
834.079956,1406.391290,1480.411884,-9576.193725
834.080276,1184.329507,1998.556043,-10112.460574
834.080596,296.082377,2664.741391,-10495.508323
834.080916,-592.164754,2294.638420,-10112.460574
834.081236,0.000000,814.226536,-10265.679673
834.081556,222.061783,-370.102971,-10495.508323
834.081876,222.061783,-592.164754,-9959.241474
834.082196,-518.144159,-1036.288319,-9959.241474
834.082516,-888.247130,148.041188,-10495.508323
834.082836,-666.185348,888.247130,-10265.679673
834.083156,0.000000,1628.453072,-10495.508323
834.083476,0.000000,74.020594,-9959.241474
834.083796,1480.411884,-1628.453072,-9882.631924
834.084116,1924.535449,-1924.535449,-10495.508323
834.084436,1258.350101,-1554.432478,-10495.508323
834.084755,74.020594,-148.041188,-10035.851024
834.085075,74.020594,1110.308913,-10342.289223
834.085395,592.164754,2886.803174,-10648.727422
834.085715,148.041188,1924.535449,-10572.117872
834.086035,-962.267725,-814.226536,-9806.022374
834.086355,0.000000,-2368.659014,-10112.460574
834.086675,962.267725,-2960.823768,-10189.070123
834.086995,518.144159,-2590.720797,-9729.412825
834.087315,-296.082377,-1628.453072,-9652.803275
834.087635,-370.102971,0.000000,-9729.412825
834.087955,814.226536,370.102971,-10035.851024
834.088275,740.205942,888.247130,-9959.241474
834.088595,962.267725,-444.123565,-10189.070123
834.088915,2146.597232,-888.247130,-10648.727422
834.089235,1184.329507,-1480.411884,-10112.460574
834.089555,740.205942,-1998.556043,-9729.412825
834.089875,148.041188,-666.185348,-9499.584175
834.090195,0.000000,518.144159,-10418.898773
834.090515,592.164754,962.267725,-10189.070123
834.090835,592.164754,592.164754,-9959.241474
834.091155,592.164754,-444.123565,-10112.460574
834.091475,1036.288319,-2368.659014,-9806.022374
834.091795,-592.164754,-1998.556043,-10112.460574
834.092115,-1110.308913,-592.164754,-9422.974625
834.092435,148.041188,1406.391290,-10035.851024
834.092755,148.041188,2368.659014,-10112.460574
834.093075,296.082377,2812.782580,-10035.851024
834.093395,-666.185348,1110.308913,-10418.898773
834.093715,1110.308913,-222.061783,-10189.070123
834.094035,1924.535449,-1924.535449,-10112.460574
834.094355,296.082377,-2886.803174,-9499.584175
834.094675,-370.102971,-1036.288319,-9652.803275
834.094995,-222.061783,888.247130,-10189.070123
834.095315,148.041188,3478.967927,-10418.898773
834.095635,0.000000,1998.556043,-10418.898773
834.095955,666.185348,666.185348,-9959.241474
834.096275,1110.308913,0.000000,-10342.289223
834.096595,962.267725,-740.205942,-10342.289223
834.096915,962.267725,-222.061783,-9576.193725
834.097235,814.226536,1110.308913,-10112.460574
834.097555,370.102971,2960.823768,-10418.898773
834.097875,-592.164754,2442.679609,-9806.022374
834.098195,-444.123565,2146.597232,-10189.070123
834.098515,0.000000,1036.288319,-9959.241474
834.098835,1036.288319,0.000000,-9959.241474
834.099155,2146.597232,0.000000,-10572.117872
834.099475,1850.514855,-666.185348,-9729.412825
834.099795,1998.556043,1332.370696,-10342.289223
834.100115,1406.391290,2516.700203,-10265.679673
834.100435,888.247130,2590.720797,-10342.289223
834.100755,518.144159,2368.659014,-9806.022374
834.101075,1480.411884,1036.288319,-11721.261119
834.101395,1406.391290,-962.267725,-9882.631924
834.101715,1110.308913,-814.226536,-9882.631924
834.102035,592.164754,962.267725,-9806.022374
834.102355,962.267725,3552.988522,-10801.946522
834.102675,0.000000,2812.782580,-9882.631924
834.102995,-1628.453072,1110.308913,-9806.022374
834.103315,-740.205942,-1776.494261,-9346.365076
834.103635,1998.556043,-2368.659014,-10342.289223
834.103955,1184.329507,-1628.453072,-9806.022374
834.104275,1110.308913,0.000000,-9806.022374
834.104595,1480.411884,2442.679609,-10572.117872
834.104915,1480.411884,3849.070898,-10265.679673
834.105235,370.102971,3478.967927,-11414.822920
834.105555,-592.164754,592.164754,-9806.022374
834.105875,-444.123565,-1406.391290,-10265.679673
834.106195,296.082377,-2664.741391,-10265.679673
834.106516,592.164754,-2368.659014,-11184.994271
834.106836,-740.205942,-518.144159,-9729.412825
834.107156,0.000000,1406.391290,-10495.508323
834.107476,0.000000,2664.741391,-10265.679673
834.107796,-740.205942,2812.782580,-10572.117872
834.108116,-888.247130,2368.659014,-10342.289223
834.108436,296.082377,0.000000,-10572.117872
834.108756,1110.308913,-2146.597232,-9729.412825
834.109076,1406.391290,-1998.556043,-9882.631924
834.109396,1628.453072,-1702.473667,-9806.022374
834.109716,2294.638420,296.082377,-9959.241474
834.110036,592.164754,740.205942,-10265.679673
834.110356,-592.164754,-222.061783,-9652.803275
834.110676,-444.123565,-1110.308913,-9806.022374
834.110996,0.000000,-1998.556043,-10035.851024
834.111317,74.020594,-3182.885551,-9806.022374
834.111637,-962.267725,-1480.411884,-9806.022374
834.111957,-222.061783,0.000000,-10342.289223
834.112277,666.185348,1332.370696,-9652.803275
834.112597,222.061783,1184.329507,-10035.851024
834.112917,370.102971,592.164754,-10342.289223
834.113237,1406.391290,148.041188,-10572.117872
834.113557,1406.391290,-740.205942,-10801.946522
834.113877,2220.617826,-740.205942,-9959.241474
834.114197,1702.473667,518.144159,-11031.775171
834.114517,1776.494261,740.205942,-10495.508323
834.114837,444.123565,1036.288319,-10189.070123
834.115157,-1332.370696,1258.350101,-9806.022374
834.115477,-1110.308913,444.123565,-10035.851024
834.115798,370.102971,-888.247130,-10572.117872
834.116118,962.267725,-1406.391290,-10112.460574
834.116438,-814.226536,-518.144159,-10112.460574
834.116758,-296.082377,444.123565,-10265.679673
834.117078,74.020594,1776.494261,-10189.070123
834.117398,148.041188,1406.391290,-10342.289223
834.117718,444.123565,1110.308913,-9806.022374
834.118038,1184.329507,-814.226536,-10342.289223
834.118358,370.102971,-666.185348,-9882.631924
834.118678,-518.144159,-740.205942,-9652.803275
834.118998,-814.226536,-296.082377,-9576.193725
834.119318,-1036.288319,962.267725,-9576.193725
834.119638,-1776.494261,2072.576638,-9729.412825
834.119958,-2368.659014,2664.741391,-9959.241474
834.120279,-592.164754,1258.350101,-9652.803275
834.120599,2886.803174,0.000000,-10112.460574
834.120919,3330.926739,-1110.308913,-8963.317327
834.121239,3182.885551,-518.144159,-10112.460574
834.121559,2368.659014,666.185348,-9882.631924
834.121879,2960.823768,2368.659014,-10189.070123
834.122199,1258.350101,3997.112087,-9499.584175
834.122519,-1406.391290,3627.009116,-9882.631924
834.122839,-1110.308913,2146.597232,-10801.946522
834.123159,1110.308913,-222.061783,-10418.898773
834.123479,1406.391290,-1998.556043,-10342.289223
834.123799,1406.391290,0.000000,-9576.193725
834.124119,2072.576638,148.041188,-10112.460574
834.124439,1036.288319,1776.494261,-10342.289223
834.124759,74.020594,2812.782580,-10035.851024
834.125080,-1184.329507,2442.679609,-10418.898773
834.125400,148.041188,814.226536,-10495.508323
834.125720,2368.659014,-518.144159,-10265.679673
834.126040,3330.926739,148.041188,-10189.070123
834.126360,2590.720797,1036.288319,-10342.289223
834.126680,2220.617826,962.267725,-10112.460574
834.127000,3256.906145,2294.638420,-10572.117872
834.127320,666.185348,1406.391290,-9652.803275
834.127640,0.000000,-148.041188,-9729.412825
834.127960,370.102971,-1184.329507,-9806.022374
834.128280,-740.205942,-1776.494261,-9806.022374
834.128600,-1036.288319,-1998.556043,-9729.412825
834.128920,148.041188,-296.082377,-9959.241474
834.129240,740.205942,814.226536,-10112.460574
834.129561,740.205942,1036.288319,-9959.241474
834.129881,888.247130,1110.308913,-10035.851024
834.130201,1110.308913,0.000000,-10189.070123
834.130521,666.185348,-222.061783,-10112.460574
834.130841,-666.185348,-1036.288319,-10265.679673
834.131161,-1184.329507,-444.123565,-9882.631924
834.131481,-1406.391290,-518.144159,-9882.631924
834.131801,222.061783,74.020594,-10035.851024
834.132121,-444.123565,-518.144159,-9959.241474
834.132441,-1184.329507,-1628.453072,-9729.412825
834.132761,0.000000,-1850.514855,-10265.679673
834.133081,1110.308913,-1110.308913,-10495.508323
834.133401,1110.308913,74.020594,-10265.679673
834.133721,148.041188,370.102971,-10189.070123
834.134042,-296.082377,2368.659014,-10342.289223
834.134362,-1036.288319,3034.844362,-10801.946522
834.134682,444.123565,1776.494261,-10342.289223
834.135002,1110.308913,-740.205942,-10342.289223
834.135322,1036.288319,-2812.782580,-10189.070123
834.135642,592.164754,-3330.926739,-9959.241474
834.135962,-740.205942,-1628.453072,-9882.631924
834.136282,-814.226536,0.000000,-9806.022374
834.136602,-1332.370696,962.267725,-11568.042020
834.136922,-2516.700203,814.226536,-9729.412825
834.137242,-740.205942,740.205942,-9882.631924
834.137562,2146.597232,-296.082377,-10189.070123
834.137882,2960.823768,-740.205942,-9729.412825
834.138202,1924.535449,-1554.432478,-10112.460574
834.138522,1036.288319,-962.267725,-10112.460574
834.138843,296.082377,-962.267725,-9576.193725
834.139163,0.000000,1184.329507,-10495.508323
834.139483,-962.267725,740.205942,-9882.631924
834.139803,-962.267725,0.000000,-9729.412825
834.140123,740.205942,-148.041188,-10878.556072
834.140443,740.205942,-1110.308913,-10495.508323
834.140763,1628.453072,370.102971,-10035.851024
834.141083,1110.308913,1110.308913,-10725.336972
834.141403,814.226536,2590.720797,-10801.946522
834.141723,-740.205942,2146.597232,-10265.679673
834.142043,-592.164754,1850.514855,-10495.508323
834.142363,-444.123565,-370.102971,-9806.022374
834.142683,1406.391290,-1184.329507,-10572.117872
834.143003,444.123565,-740.205942,-9806.022374
834.143324,-296.082377,74.020594,-9959.241474
834.143644,-222.061783,1258.350101,-9729.412825
834.143964,962.267725,2220.617826,-10112.460574
834.144284,1184.329507,1776.494261,-10035.851024
834.144604,888.247130,-814.226536,-9806.022374
834.144924,1258.350101,-2220.617826,-9882.631924
834.145244,1332.370696,-1332.370696,-9959.241474
834.145564,740.205942,74.020594,-9882.631924
834.145884,1110.308913,962.267725,-9729.412825
834.146204,1110.308913,2442.679609,-9959.241474
834.146524,296.082377,3552.988522,-10342.289223
834.146844,888.247130,2368.659014,-10189.070123
834.147164,1554.432478,592.164754,-10189.070123
834.147484,2220.617826,-962.267725,-10189.070123
834.147805,814.226536,-1702.473667,-9499.584175
834.148125,296.082377,-1924.535449,-9269.755526
834.148445,814.226536,666.185348,-10189.070123
834.148765,1110.308913,2590.720797,-10878.556072
834.149085,1406.391290,3849.070898,-10418.898773
834.149405,1850.514855,2960.823768,-10725.336972
834.149725,2294.638420,3330.926739,-10955.165621
834.150045,1036.288319,666.185348,-10572.117872
834.150365,-370.102971,-1998.556043,-10189.070123
834.150685,-370.102971,-1258.350101,-9652.803275
834.151005,666.185348,-222.061783,-10418.898773
834.151325,1258.350101,1998.556043,-10495.508323
834.151645,666.185348,1480.411884,-10189.070123
834.151965,1924.535449,2368.659014,-10265.679673
834.152285,1702.473667,962.267725,-10035.851024
834.152606,1702.473667,814.226536,-10342.289223
834.152926,0.000000,-518.144159,-9652.803275
834.153246,-370.102971,-1554.432478,-9499.584175
834.153566,-444.123565,-1184.329507,-9269.755526
834.153886,0.000000,-592.164754,-9806.022374
834.154206,-962.267725,-222.061783,-9193.145976
834.154526,740.205942,592.164754,-9959.241474
834.154846,888.247130,1406.391290,-10265.679673
834.155166,370.102971,814.226536,-10265.679673
834.155486,-1110.308913,888.247130,-9039.926876
834.155806,-370.102971,0.000000,-10189.070123
834.156126,222.061783,74.020594,-10035.851024
834.156446,0.000000,-888.247130,-9806.022374
834.156766,-962.267725,-666.185348,-9652.803275
834.157087,444.123565,-1332.370696,-10189.070123
834.157407,2368.659014,-518.144159,-10572.117872
834.157727,1258.350101,444.123565,-10035.851024
834.158047,0.000000,1036.288319,-10342.289223
834.158367,148.041188,1924.535449,-10572.117872
834.158687,-370.102971,1406.391290,-10878.556072
834.159007,-1702.473667,-814.226536,-10112.460574
834.159327,-814.226536,-1554.432478,-9806.022374
834.159647,518.144159,-2590.720797,-10418.898773
834.159967,1850.514855,-1332.370696,-10648.727422
834.160287,1332.370696,148.041188,-10342.289223
834.160607,1628.453072,666.185348,-10725.336972
834.160927,1332.370696,1924.535449,-9959.241474
834.161247,-888.247130,2738.761985,-10572.117872
834.161568,-1184.329507,1850.514855,-9882.631924
834.161888,1702.473667,666.185348,-10725.336972
834.162208,2368.659014,74.020594,-10572.117872
834.162528,1110.308913,-2072.576638,-9959.241474
834.162848,74.020594,-1480.411884,-9806.022374
834.163168,-666.185348,888.247130,-9576.193725
834.163488,0.000000,2368.659014,-9882.631924
834.163808,-592.164754,3182.885551,-9882.631924
834.164128,370.102971,2146.597232,-9959.241474
834.164448,962.267725,-592.164754,-10342.289223
834.164768,444.123565,-3330.926739,-9806.022374
834.165088,-592.164754,-3627.009116,-9806.022374
834.165408,-1776.494261,-1998.556043,-9346.365076
834.165728,-666.185348,1702.473667,-9959.241474
834.166048,0.000000,3256.906145,-10112.460574
834.166369,444.123565,2812.782580,-10418.898773
834.166689,814.226536,814.226536,-9959.241474
834.167009,962.267725,-1036.288319,-10648.727422
834.167329,222.061783,-1554.432478,-10495.508323
834.167649,74.020594,0.000000,-9882.631924
834.167969,370.102971,1184.329507,-9806.022374
834.168289,814.226536,1924.535449,-10648.727422
834.168609,518.144159,1184.329507,-10418.898773
834.168929,0.000000,518.144159,-10189.070123
834.169249,814.226536,592.164754,-9576.193725
834.169569,1554.432478,0.000000,-10342.289223
834.169889,1110.308913,-222.061783,-10189.070123
834.170209,296.082377,0.000000,-9882.631924
834.170529,814.226536,666.185348,-10112.460574
834.170850,1776.494261,1258.350101,-9882.631924
834.171170,1036.288319,2146.597232,-10189.070123
834.171490,962.267725,1036.288319,-9959.241474
834.171810,1702.473667,-370.102971,-10112.460574
834.172130,1924.535449,-1406.391290,-9499.584175
834.172450,1776.494261,-888.247130,-9806.022374
834.172770,1406.391290,0.000000,-9806.022374
834.173090,1628.453072,1036.288319,-10112.460574
834.173410,518.144159,1628.453072,-9882.631924
834.173730,-518.144159,1036.288319,-9193.145976
834.174050,370.102971,-518.144159,-9959.241474
834.174370,962.267725,-1702.473667,-10112.460574
834.174690,0.000000,-1036.288319,-10112.460574
834.175010,-1480.411884,0.000000,-9499.584175
834.175330,74.020594,888.247130,-10112.460574
834.175651,1406.391290,1406.391290,-10189.070123
834.175971,1332.370696,0.000000,-10189.070123
834.176291,1184.329507,-1110.308913,-9882.631924
834.176611,740.205942,-1554.432478,-10801.946522
834.176931,74.020594,-370.102971,-10342.289223
834.177251,222.061783,444.123565,-10342.289223
834.177571,444.123565,2664.741391,-10189.070123
834.177891,740.205942,2738.761985,-12257.527968
834.178211,-222.061783,444.123565,-10572.117872
834.178531,-444.123565,-1850.514855,-10189.070123
834.178851,-222.061783,-3034.844362,-9959.241474
834.179171,666.185348,-2368.659014,-10418.898773
834.179491,592.164754,-740.205942,-10572.117872
834.179811,-888.247130,888.247130,-10112.460574
834.180132,-370.102971,2516.700203,-10418.898773
834.180452,-222.061783,3627.009116,-10648.727422
834.180772,0.000000,2516.700203,-10342.289223
834.181092,-592.164754,222.061783,-9576.193725
834.181412,-296.082377,-2294.638420,-10112.460574
834.181732,740.205942,-3256.906145,-8963.317327
834.182052,1406.391290,-3182.885551,-10418.898773
834.182372,1406.391290,-1258.350101,-9346.365076
834.182692,1110.308913,1776.494261,-10035.851024
834.183012,888.247130,3849.070898,-10112.460574
834.183332,666.185348,3478.967927,-10189.070123
834.183652,74.020594,1924.535449,-10955.165621
834.183972,592.164754,-666.185348,-10265.679673
834.184292,1480.411884,-1776.494261,-9959.241474
834.184613,1776.494261,-1850.514855,-9806.022374
834.184933,1702.473667,-740.205942,-10035.851024
834.185253,222.061783,1406.391290,-10265.679673
834.185573,-1480.411884,1776.494261,-9576.193725
834.185893,-1628.453072,1480.411884,-9959.241474
834.186213,0.000000,370.102971,-9959.241474
834.186533,1924.535449,-962.267725,-10189.070123
834.186853,1036.288319,-296.082377,-10342.289223
834.187173,148.041188,592.164754,-9959.241474
834.187493,962.267725,1036.288319,-10342.289223
834.187813,1332.370696,1998.556043,-9806.022374
834.188133,-518.144159,1998.556043,-10189.070123
834.188453,-222.061783,1258.350101,-9959.241474
834.188773,666.185348,-222.061783,-10878.556072
834.189093,1480.411884,-1110.308913,-10265.679673
834.189414,-370.102971,-518.144159,-10342.289223
834.189734,-1110.308913,962.267725,-10418.898773
834.190054,74.020594,2516.700203,-11031.775171
834.190374,296.082377,3478.967927,-10572.117872
834.190694,-888.247130,2368.659014,-9499.584175
834.191014,-1036.288319,592.164754,-9806.022374
834.191334,74.020594,-1702.473667,-9959.241474
834.191654,962.267725,-2368.659014,-9806.022374
834.191974,1998.556043,-1258.350101,-9576.193725
834.192294,2072.576638,814.226536,-9882.631924
834.192614,1406.391290,2812.782580,-9806.022374
834.192934,-592.164754,3478.967927,-10112.460574
834.193254,-1480.411884,1998.556043,-9499.584175
834.193574,-1258.350101,-222.061783,-10418.898773
834.193895,444.123565,-2146.597232,-9576.193725
834.194215,962.267725,-2442.679609,-9499.584175
834.194535,962.267725,-1480.411884,-9499.584175
834.194855,1036.288319,222.061783,-9193.145976
834.195175,1258.350101,1924.535449,-9882.631924
834.195495,-148.041188,2664.741391,-10342.289223
834.195815,0.000000,2368.659014,-10265.679673
834.196135,1702.473667,1184.329507,-10342.289223
834.196455,2812.782580,0.000000,-9652.803275
834.196775,2072.576638,-1110.308913,-9806.022374
834.197095,1924.535449,-814.226536,-9959.241474
834.197415,1998.556043,74.020594,-10265.679673
834.197735,1702.473667,1258.350101,-9882.631924
834.198055,1554.432478,1628.453072,-10342.289223
834.198376,1036.288319,1110.308913,-10265.679673
834.198696,1406.391290,148.041188,-10572.117872
834.199016,1480.411884,-814.226536,-10495.508323
834.199336,740.205942,-1036.288319,-9806.022374
834.199656,-444.123565,-592.164754,-10112.460574
834.199976,0.000000,444.123565,-10112.460574
834.200296,-296.082377,1184.329507,-10342.289223
834.200616,-444.123565,1406.391290,-10112.460574
834.200936,370.102971,666.185348,-10112.460574
834.201256,1332.370696,-370.102971,-10495.508323
834.201606,518.144159,-666.185348,-9959.241474
834.201926,148.041188,-370.102971,-10189.070123
834.202246,666.185348,0.000000,-10112.460574
834.202566,222.061783,370.102971,-9806.022374
834.202886,-1036.288319,0.000000,-9806.022374
834.203206,-1110.308913,-296.082377,-9959.241474
834.203526,1480.411884,-518.144159,-10878.556072
834.203846,1998.556043,-740.205942,-10189.070123
834.204166,296.082377,-592.164754,-9959.241474
834.204486,-1480.411884,962.267725,-10035.851024
834.204806,-888.247130,1480.411884,-9806.022374
834.205126,370.102971,1702.473667,-9806.022374
834.205446,-370.102971,370.102971,-9806.022374
834.205766,0.000000,-1628.453072,-9959.241474
834.206086,1036.288319,-2442.679609,-9806.022374
834.206407,1332.370696,-2368.659014,-9806.022374
834.206727,666.185348,-1258.350101,-9806.022374
834.207047,-444.123565,1258.350101,-10035.851024
834.207367,-296.082377,1776.494261,-9729.412825
834.207687,148.041188,2146.597232,-10112.460574
834.208007,74.020594,1924.535449,-9959.241474
834.208327,1998.556043,0.000000,-10189.070123
834.208647,4071.132681,-2442.679609,-9806.022374
834.208967,3034.844362,-3256.906145,-10189.070123
834.209287,2442.679609,-1480.411884,-10495.508323
834.209607,666.185348,1184.329507,-10265.679673
834.209927,-1554.432478,2368.659014,-10112.460574
834.210247,-2590.720797,2590.720797,-10035.851024
834.210567,-1850.514855,1110.308913,-9193.145976
834.210887,1110.308913,-1036.288319,-10572.117872
834.211207,2368.659014,-1480.411884,-10418.898773
834.211527,888.247130,-1480.411884,-10265.679673
834.211847,740.205942,1184.329507,-9806.022374
834.212167,-444.123565,2146.597232,-9882.631924
834.212487,-518.144159,3330.926739,-10418.898773
834.212807,-1406.391290,2590.720797,-9882.631924
834.213127,-296.082377,370.102971,-10495.508323
834.213447,1850.514855,-1406.391290,-10112.460574
834.213767,1258.350101,-2590.720797,-10418.898773
834.214087,74.020594,-1554.432478,-9882.631924
834.214407,-814.226536,1702.473667,-10342.289223
834.214727,-1110.308913,3923.091493,-10265.679673
834.215047,-1628.453072,4515.256246,-10112.460574
834.215367,-1998.556043,2664.741391,-10035.851024
834.215687,-444.123565,666.185348,-10189.070123
834.216007,592.164754,-1406.391290,-9806.022374
834.216327,0.000000,-1702.473667,-9959.241474
834.216647,888.247130,-1924.535449,-9422.974625
834.216967,-296.082377,444.123565,-10112.460574
834.217288,-370.102971,2294.638420,-9806.022374
834.217608,-444.123565,2294.638420,-9422.974625
834.217928,74.020594,2738.761985,-9959.241474
834.218248,2368.659014,1998.556043,-9882.631924
834.218568,2072.576638,740.205942,-9959.241474
834.218888,814.226536,370.102971,-9806.022374
834.219208,1406.391290,-2738.761985,-9269.755526
834.219528,2368.659014,-2812.782580,-9729.412825
834.219848,-814.226536,-1480.411884,-9422.974625
834.220168,-370.102971,222.061783,-9652.803275
834.220488,518.144159,2886.803174,-10265.679673
834.220808,2072.576638,1184.329507,-10648.727422
834.221128,1628.453072,1258.350101,-10342.289223
834.221448,296.082377,0.000000,-10112.460574
834.221768,1628.453072,296.082377,-10342.289223
834.222088,2368.659014,1332.370696,-10189.070123
834.222408,2368.659014,-222.061783,-10725.336972
834.222728,1776.494261,0.000000,-9729.412825
834.223048,2220.617826,-222.061783,-10878.556072
834.223368,2664.741391,-1036.288319,-9499.584175
834.223688,1850.514855,-666.185348,-9959.241474
834.224008,1184.329507,74.020594,-9959.241474
834.224328,2072.576638,0.000000,-10112.460574
834.224648,1036.288319,666.185348,-10265.679673
834.224968,-1332.370696,-1258.350101,-9422.974625
834.225288,-1776.494261,-2146.597232,-10035.851024
834.225608,-1258.350101,-2220.617826,-10112.460574
834.225928,-962.267725,-2442.679609,-10035.851024
834.226248,-814.226536,-592.164754,-10955.165621
834.226568,592.164754,1628.453072,-10035.851024
834.226888,814.226536,1850.514855,-10035.851024
834.227208,1850.514855,518.144159,-9959.241474
834.227528,148.041188,-518.144159,-9729.412825
834.227848,888.247130,-2294.638420,-11184.994271
834.228169,370.102971,-4145.153275,-9729.412825
834.228489,-1258.350101,-2368.659014,-10035.851024
834.228809,-1184.329507,0.000000,-9806.022374
834.229129,296.082377,1332.370696,-10801.946522
834.229449,-518.144159,3034.844362,-10265.679673
834.229769,-1702.473667,2886.803174,-10112.460574
834.230089,-1554.432478,814.226536,-9652.803275
834.230409,296.082377,-1924.535449,-10342.289223
834.230729,592.164754,-4071.132681,-10035.851024
834.231049,148.041188,-3404.947333,-9806.022374
834.231369,1184.329507,-2072.576638,-9959.241474
834.231689,1776.494261,1406.391290,-10035.851024
834.232009,1036.288319,4367.215058,-10648.727422
834.232329,1258.350101,5329.482782,-10495.508323
834.232649,1110.308913,2368.659014,-10418.898773
834.232969,1924.535449,-962.267725,-10725.336972
834.233289,1628.453072,-4737.318029,-9576.193725
834.233609,2368.659014,-3552.988522,-9806.022374
834.233929,2886.803174,-1258.350101,-9882.631924
834.234249,1998.556043,2146.597232,-10495.508323
834.234569,-814.226536,4219.173869,-9652.803275
834.234889,-2812.782580,3923.091493,-10495.508323
834.235209,-666.185348,1554.432478,-10648.727422
834.235529,888.247130,-814.226536,-10035.851024
834.235849,740.205942,-1258.350101,-10035.851024
834.236169,148.041188,370.102971,-9806.022374
834.236489,888.247130,1480.411884,-10418.898773
834.236809,148.041188,1628.453072,-9959.241474
834.237129,-592.164754,1998.556043,-9422.974625
834.237449,-518.144159,1850.514855,-9806.022374
