#time,accel_x,accel_y,accel_z
854.395243,518.144159,296.082377,-10801.946522
854.395563,592.164754,370.102971,-10342.289223
854.395884,370.102971,296.082377,-9959.241474
854.396204,592.164754,222.061783,-10035.851024
854.396525,222.061783,370.102971,-10035.851024
854.396845,814.226536,370.102971,-10189.070123
854.397165,518.144159,0.000000,-10112.460574
854.397486,444.123565,444.123565,-9882.631924
854.397806,518.144159,444.123565,-9959.241474
854.398127,518.144159,592.164754,-10035.851024
854.398447,518.144159,222.061783,-9959.241474
854.398768,592.164754,222.061783,-9806.022374
854.399088,666.185348,74.020594,-10189.070123
854.399408,666.185348,0.000000,-10035.851024
854.399729,592.164754,0.000000,-10112.460574
854.400049,444.123565,370.102971,-9959.241474
854.400370,222.061783,296.082377,-10342.289223
854.400690,518.144159,370.102971,-9959.241474
854.401011,592.164754,592.164754,-9806.022374
854.401331,888.247130,148.041188,-10189.070123
854.401651,518.144159,0.000000,-10112.460574
854.401972,148.041188,0.000000,-9882.631924
854.402292,74.020594,148.041188,-10112.460574
854.402613,444.123565,370.102971,-10265.679673
854.402933,296.082377,370.102971,-10035.851024
854.403254,296.082377,518.144159,-10035.851024
854.403574,518.144159,74.020594,-10342.289223
854.403894,444.123565,370.102971,-10265.679673
854.404215,444.123565,74.020594,-10112.460574
854.404535,444.123565,74.020594,-9959.241474
854.404856,370.102971,222.061783,-10265.679673
854.405176,296.082377,518.144159,-10112.460574
854.405497,518.144159,222.061783,-10035.851024
854.405817,0.000000,0.000000,-10189.070123
854.406137,-444.123565,-444.123565,-10342.289223
854.406458,-222.061783,-518.144159,-10112.460574
854.406778,148.041188,-518.144159,-9269.755526
854.407099,-518.144159,-296.082377,-10035.851024
854.407419,-740.205942,0.000000,-10035.851024
854.407740,0.000000,74.020594,-10035.851024
854.408060,-222.061783,0.000000,-10265.679673
854.408380,-592.164754,-1110.308913,-9806.022374
854.408701,-1110.308913,-1480.411884,-9882.631924
854.409021,-666.185348,-1702.473667,-9806.022374
854.409342,-666.185348,-962.267725,-9806.022374
854.409662,-962.267725,-1036.288319,-10035.851024
854.409983,-1702.473667,-1184.329507,-10112.460574
854.410303,-1258.350101,-1258.350101,-10035.851024
854.410623,-666.185348,-1184.329507,-9882.631924
854.410944,-740.205942,-666.185348,-9652.803275
854.411264,-1480.411884,-1628.453072,-10035.851024
854.411585,-1406.391290,-1036.288319,-9806.022374
854.411905,-1110.308913,-962.267725,-10189.070123
854.412225,-740.205942,-592.164754,-10035.851024
854.412546,-1554.432478,-1258.350101,-10265.679673
854.412866,-3256.906145,-2368.659014,-9806.022374
854.413187,-3256.906145,-3182.885551,-10035.851024
854.413507,-2516.700203,-3552.988522,-9959.241474
854.413828,-2442.679609,-3552.988522,-9652.803275
854.414148,-2590.720797,-4071.132681,-9806.022374
854.414468,-2368.659014,-3552.988522,-9576.193725
854.414789,-962.267725,-2516.700203,-9729.412825
854.415109,740.205942,-1110.308913,-10418.898773
854.415430,1110.308913,-814.226536,-10418.898773
854.415750,-814.226536,-1110.308913,-10495.508323
854.416071,-2072.576638,-2072.576638,-10189.070123
854.416391,-3256.906145,-3182.885551,-10035.851024
854.416711,-3849.070898,-4219.173869,-9422.974625
854.417032,-5625.565159,-4959.379811,-9806.022374
854.417352,-4885.359217,-6143.709319,-9576.193725
854.417673,-2960.823768,-5921.647536,-9729.412825
854.417993,-370.102971,-4959.379811,-9576.193725
854.418314,1036.288319,-3923.091493,-10112.460574
854.418634,962.267725,-1184.329507,-10035.851024
854.418954,1702.473667,888.247130,-10495.508323
854.419275,2442.679609,1110.308913,-10495.508323
854.419595,2368.659014,0.000000,-10342.289223
854.419916,148.041188,-2146.597232,-10572.117872
854.420236,-1776.494261,-3552.988522,-10112.460574
854.420557,-3108.864956,-3923.091493,-10189.070123
854.420877,-4811.338623,-3552.988522,-10189.070123
854.421197,-5773.606348,-3849.070898,-9806.022374
854.421518,-4737.318029,-4589.276840,-9499.584175
854.421838,-1332.370696,-5329.482782,-9269.755526
854.422159,1480.411884,-4811.338623,-9806.022374
854.422479,2664.741391,-2368.659014,-11568.042020
854.422800,3034.844362,740.205942,-10342.289223
854.423120,3701.029710,2960.823768,-10648.727422
854.423440,3627.009116,3256.906145,-11108.384721
854.423761,666.185348,1850.514855,-10035.851024
854.424081,-3182.885551,-592.164754,-10342.289223
854.424402,-5773.606348,-3923.091493,-9806.022374
854.424722,-5699.585753,-6143.709319,-9576.193725
854.425043,-4145.153275,-6957.935855,-9652.803275
854.425363,-3627.009116,-7402.059420,-9422.974625
854.425683,-2886.803174,-6069.688724,-9193.145976
854.426004,-888.247130,-2442.679609,-9652.803275
854.426324,1184.329507,1776.494261,-10189.070123
854.426645,2516.700203,4367.215058,-10189.070123
854.426965,2072.576638,3701.029710,-10495.508323
854.427285,2368.659014,1924.535449,-10418.898773
854.427606,1702.473667,-222.061783,-10648.727422
854.427926,-666.185348,-666.185348,-10572.117872
854.428247,-3108.864956,-2220.617826,-10418.898773
854.428567,-5551.544565,-1850.514855,-10035.851024
854.428888,-6365.771101,-1998.556043,-9882.631924
854.429208,-7772.162391,-3108.864956,-9806.022374
854.429528,-6661.853478,-4515.256246,-8733.488677
854.429849,-3849.070898,-4589.276840,-9039.926876
854.430169,370.102971,-2664.741391,-9576.193725
854.430490,3034.844362,1110.308913,-10648.727422
854.430810,2886.803174,3552.988522,-10265.679673
854.431131,1702.473667,4737.318029,-10801.946522
854.431451,1776.494261,3775.050304,-11108.384721
854.431771,2516.700203,1480.411884,-10725.336972
854.432092,740.205942,-1554.432478,-10801.946522
854.432412,-2960.823768,-5033.400406,-10495.508323
854.432733,-6217.729913,-5625.565159,-9729.412825
854.433053,-9252.574275,-5329.482782,-9499.584175
854.433374,-9474.636058,-3701.029710,-9116.536426
854.433694,-6439.791695,-2960.823768,-9193.145976
854.434014,-1110.308913,-3034.844362,-9806.022374
854.434335,3330.926739,-3034.844362,-10572.117872
854.434655,3775.050304,-1776.494261,-10495.508323
854.434976,2442.679609,-148.041188,-10648.727422
854.435296,3849.070898,2294.638420,-10572.117872
854.435617,4589.276840,3627.009116,-10725.336972
854.435937,2960.823768,2516.700203,-11338.213370
854.436257,-814.226536,222.061783,-10648.727422
854.436578,-5033.400406,-3330.926739,-10035.851024
854.436898,-7328.038826,-6587.832884,-9806.022374
854.437219,-6883.915261,-8068.244768,-8886.707777
854.437539,-5699.585753,-8364.327145,-9193.145976
854.437860,-4219.173869,-7624.121203,-9039.926876
854.438180,-2664.741391,-6143.709319,-9193.145976
854.438500,-370.102971,-2590.720797,-9882.631924
854.438821,3775.050304,1036.288319,-9806.022374
854.439141,5995.668130,3256.906145,-11261.603821
854.439462,4663.297435,3034.844362,-10189.070123
854.439782,888.247130,1110.308913,-10342.289223
854.440103,-1998.556043,-1554.432478,-10265.679673
854.440423,-2590.720797,-4071.132681,-9882.631924
854.440743,-2960.823768,-4663.297435,-9806.022374
854.441064,-5773.606348,-5921.647536,-10112.460574
854.441384,-7772.162391,-7179.997637,-9039.926876
854.441705,-6735.874072,-6661.853478,-9269.755526
854.442025,-2812.782580,-5329.482782,-9959.241474
854.442346,-1480.411884,-2886.803174,-10189.070123
854.442666,-1702.473667,-1776.494261,-9806.022374
854.442986,-814.226536,0.000000,-9806.022374
854.443307,2072.576638,1184.329507,-10418.898773
854.443627,4219.173869,1776.494261,-11338.213370
854.443948,2738.761985,1628.453072,-11108.384721
854.444268,-518.144159,0.000000,-11031.775171
854.444588,-2220.617826,-2442.679609,-10189.070123
854.444909,-3182.885551,-3997.112087,-10418.898773
854.445229,-5625.565159,-3701.029710,-10878.556072
854.445550,-7179.997637,-5329.482782,-9729.412825
854.445870,-6069.688724,-5181.441594,-9193.145976
854.446191,-3552.988522,-3923.091493,-9422.974625
854.446511,814.226536,-2368.659014,-9499.584175
854.446831,2072.576638,0.000000,-10418.898773
854.447152,3330.926739,592.164754,-10648.727422
854.447472,2442.679609,1554.432478,-10418.898773
854.447793,1554.432478,2960.823768,-10495.508323
854.448113,2220.617826,3923.091493,-10572.117872
854.448434,4145.153275,962.267725,-10342.289223
854.448754,370.102971,-1406.391290,-10035.851024
854.449074,-3330.926739,-3256.906145,-9499.584175
854.449395,-5699.585753,-4589.276840,-9652.803275
854.449715,-5403.503377,-4219.173869,-9806.022374
854.450036,-4441.235652,-2294.638420,-9346.365076
854.450356,-3404.947333,-1702.473667,-9193.145976
854.450677,-592.164754,-1480.411884,-9499.584175
854.450997,2368.659014,-1776.494261,-10189.070123
854.451317,4589.276840,-444.123565,-10572.117872
854.451638,5699.585753,1258.350101,-10035.851024
854.451958,3627.009116,3552.988522,-11338.213370
854.452279,962.267725,3997.112087,-10112.460574
854.452599,-1998.556043,2516.700203,-10418.898773
854.452919,814.226536,814.226536,-9882.631924
854.453240,-1258.350101,-2368.659014,-10418.898773
854.453560,-3034.844362,-3923.091493,-9806.022374
854.453880,-4145.153275,-3552.988522,-9806.022374
854.454201,-1776.494261,-2590.720797,-9959.241474
854.454521,370.102971,370.102971,-9499.584175
854.454841,740.205942,1184.329507,-10725.336972
854.455162,-592.164754,2368.659014,-10035.851024
854.455482,1110.308913,2368.659014,-10495.508323
854.455802,2368.659014,3034.844362,-10189.070123
854.456123,5329.482782,3034.844362,-10265.679673
854.456443,4145.153275,3478.967927,-10725.336972
854.456763,1924.535449,1406.391290,-10418.898773
854.457084,296.082377,-740.205942,-9806.022374
854.457404,-296.082377,-2442.679609,-9729.412825
854.457724,-2146.597232,-1998.556043,-9652.803275
854.458045,-2886.803174,-2072.576638,-8733.488677
854.458365,-2664.741391,-2960.823768,-9882.631924
854.458685,-518.144159,-1480.411884,-9116.536426
854.459005,518.144159,740.205942,-9806.022374
854.459326,2220.617826,2738.761985,-9959.241474
854.459646,3404.947333,3627.009116,-10112.460574
854.459966,3330.926739,1628.453072,-10572.117872
854.460287,2738.761985,0.000000,-10495.508323
854.460607,2590.720797,-1628.453072,-10035.851024
854.460927,0.000000,-962.267725,-9806.022374
854.461248,-2886.803174,592.164754,-10112.460574
854.461568,-3330.926739,222.061783,-9806.022374
854.461888,-1702.473667,-1332.370696,-9959.241474
854.462209,370.102971,-2220.617826,-9422.974625
854.462529,1258.350101,-3701.029710,-9806.022374
854.462849,1184.329507,-2886.803174,-9882.631924
854.463170,888.247130,-370.102971,-10342.289223
854.463490,518.144159,2072.576638,-10112.460574
854.463810,222.061783,2664.741391,-10572.117872
854.464131,888.247130,2368.659014,-10112.460574
854.464451,1036.288319,962.267725,-10801.946522
854.464771,1332.370696,740.205942,-10495.508323
854.465092,962.267725,1036.288319,-10801.946522
854.465412,-1776.494261,666.185348,-10801.946522
854.465732,-2072.576638,-1924.535449,-10035.851024
854.466053,-2960.823768,-4219.173869,-9806.022374
854.466373,-1998.556043,-4441.235652,-9729.412825
854.466693,-370.102971,-2812.782580,-9959.241474
854.467014,1184.329507,74.020594,-10878.556072
854.467334,3256.906145,1776.494261,-10189.070123
854.467654,3552.988522,3552.988522,-10265.679673
854.467975,4589.276840,4367.215058,-10572.117872
854.468295,3701.029710,1702.473667,-10495.508323
854.468615,1628.453072,-888.247130,-10801.946522
854.468935,444.123565,-2516.700203,-9882.631924
854.469256,-222.061783,-666.185348,-9806.022374
854.469576,-1036.288319,-444.123565,-10035.851024
854.469896,-2294.638420,-592.164754,-9729.412825
854.470217,-1998.556043,-2886.803174,-9193.145976
854.470537,-148.041188,-2812.782580,-9806.022374
854.470857,3330.926739,-3404.947333,-8580.269578
854.471178,3330.926739,-1406.391290,-9882.631924
854.471498,3330.926739,1332.370696,-9576.193725
854.471818,2294.638420,2368.659014,-9652.803275
854.472139,2442.679609,3256.906145,-10189.070123
854.472459,3330.926739,2072.576638,-10189.070123
854.472779,3034.844362,74.020594,-10342.289223
854.473100,814.226536,-1480.411884,-10189.070123
854.473420,0.000000,-2220.617826,-9806.022374
854.473740,-2072.576638,-1776.494261,-11261.603821
854.474061,-4959.379811,-2368.659014,-9806.022374
854.474381,-5773.606348,-1406.391290,-9193.145976
854.474701,-3849.070898,-1554.432478,-10189.070123
854.475022,-1924.535449,-666.185348,-10648.727422
854.475342,0.000000,1406.391290,-11031.775171
854.475662,888.247130,1776.494261,-10342.289223
854.475983,1554.432478,2294.638420,-10878.556072
854.476303,2294.638420,3108.864956,-10572.117872
854.476623,1480.411884,3404.947333,-10725.336972
854.476944,296.082377,2960.823768,-10418.898773
854.477264,-1998.556043,888.247130,-9806.022374
854.477584,-1332.370696,-962.267725,-10112.460574
854.477905,-1554.432478,-1184.329507,-9346.365076
854.478225,-2516.700203,-1332.370696,-9499.584175
854.478545,-2368.659014,-2072.576638,-9576.193725
854.478865,0.000000,-1998.556043,-9039.926876
854.479186,888.247130,-592.164754,-9729.412825
854.479506,1110.308913,1554.432478,-9806.022374
854.479826,2294.638420,518.144159,-9882.631924
854.480147,3256.906145,962.267725,-10265.679673
854.480467,3404.947333,1776.494261,-9806.022374
854.480787,2590.720797,2886.803174,-9806.022374
854.481108,962.267725,2590.720797,-10112.460574
854.481428,0.000000,-444.123565,-10112.460574
854.481748,-888.247130,-2146.597232,-9882.631924
854.482069,-592.164754,-2368.659014,-9729.412825
854.482389,-296.082377,-1776.494261,-9806.022374
854.482709,-518.144159,-1184.329507,-10342.289223
854.483030,222.061783,-814.226536,-9806.022374
854.483350,0.000000,74.020594,-10035.851024
854.483670,2220.617826,1850.514855,-12257.527968
854.483991,2812.782580,2146.597232,-11031.775171
854.484311,2886.803174,2516.700203,-10801.946522
854.484631,3182.885551,4071.132681,-10801.946522
854.484952,1702.473667,3108.864956,-10418.898773
854.485272,888.247130,-222.061783,-11108.384721
854.485592,0.000000,-2960.823768,-9806.022374
854.485913,-2072.576638,-3108.864956,-9806.022374
854.486233,-2516.700203,-1776.494261,-9959.241474
854.486553,-1554.432478,-518.144159,-10342.289223
854.486874,-1036.288319,2442.679609,-10035.851024
854.487194,-296.082377,2516.700203,-10495.508323
854.487514,1406.391290,444.123565,-9959.241474
854.487835,1406.391290,-1406.391290,-9806.022374
854.488155,2220.617826,-888.247130,-9882.631924
854.488475,1998.556043,1480.411884,-9882.631924
854.488795,2220.617826,1628.453072,-10342.289223
854.489116,1480.411884,2442.679609,-9882.631924
854.489436,-1258.350101,1850.514855,-9729.412825
854.489756,-1480.411884,222.061783,-9882.631924
854.490077,-1850.514855,-1332.370696,-9652.803275
854.490397,-1554.432478,-2738.761985,-9499.584175
854.490717,74.020594,-2664.741391,-9729.412825
854.491038,0.000000,-1480.411884,-9269.755526
854.491358,222.061783,-1258.350101,-9499.584175
854.491678,2368.659014,518.144159,-9806.022374
854.491999,1924.535449,2294.638420,-9806.022374
854.492319,3108.864956,2886.803174,-11184.994271
854.492639,3701.029710,3256.906145,-10189.070123
854.492960,3701.029710,1776.494261,-10955.165621
854.493280,2294.638420,1776.494261,-10418.898773
854.493600,888.247130,592.164754,-9806.022374
854.493921,962.267725,-592.164754,-10725.336972
854.494241,-148.041188,-666.185348,-10035.851024
854.494561,-1184.329507,0.000000,-9806.022374
854.494882,-1554.432478,-666.185348,-10189.070123
854.495202,0.000000,-296.082377,-9882.631924
854.495522,222.061783,666.185348,-9882.631924
854.495843,1406.391290,1258.350101,-10418.898773
854.496163,2960.823768,1184.329507,-10112.460574
854.496483,4885.359217,1554.432478,-10265.679673
854.496804,5255.462188,2368.659014,-10801.946522
854.497124,3775.050304,2072.576638,-11031.775171
854.497444,1184.329507,1036.288319,-10572.117872
854.497765,-1776.494261,518.144159,-9882.631924
854.498085,-1702.473667,-148.041188,-9959.241474
854.498405,-2072.576638,-962.267725,-9806.022374
854.498725,-1998.556043,-3182.885551,-9729.412825
854.499046,-814.226536,-2442.679609,-9806.022374
854.499366,296.082377,-1184.329507,-10035.851024
854.499686,444.123565,0.000000,-9882.631924
854.500007,1258.350101,1332.370696,-9576.193725
854.500327,1110.308913,1776.494261,-9959.241474
854.500647,1036.288319,2220.617826,-10112.460574
854.500968,1036.288319,1258.350101,-9806.022374
854.501288,2294.638420,666.185348,-10725.336972
854.501608,888.247130,0.000000,-9806.022374
854.501929,-1776.494261,-1258.350101,-9806.022374
854.502249,-1480.411884,-888.247130,-9499.584175
854.502569,-2664.741391,-222.061783,-9806.022374
854.502890,-3849.070898,-1258.350101,-9806.022374
854.503210,-2516.700203,-1036.288319,-9882.631924
854.503530,0.000000,-666.185348,-10265.679673
854.503851,814.226536,-518.144159,-10035.851024
854.504171,1184.329507,740.205942,-10189.070123
854.504491,1110.308913,1332.370696,-10418.898773
854.504812,1702.473667,2442.679609,-10878.556072
854.505132,2442.679609,1036.288319,-10342.289223
854.505452,1110.308913,-148.041188,-10801.946522
854.505773,444.123565,-1480.411884,-10189.070123
854.506093,-1258.350101,-444.123565,-10418.898773
854.506413,-2886.803174,-222.061783,-10112.460574
854.506734,-1998.556043,-1628.453072,-9806.022374
854.507054,-962.267725,-1628.453072,-9806.022374
854.507374,592.164754,0.000000,-10648.727422
854.507695,1924.535449,-370.102971,-9806.022374
854.508015,2294.638420,1480.411884,-10495.508323
854.508335,2368.659014,1406.391290,-10035.851024
854.508655,888.247130,1332.370696,-10035.851024
854.508976,1480.411884,1184.329507,-9959.241474
854.509296,370.102971,74.020594,-9806.022374
854.509616,222.061783,0.000000,-10112.460574
854.509937,-296.082377,-666.185348,-9806.022374
854.510257,-666.185348,1036.288319,-10112.460574
854.510577,888.247130,1924.535449,-9729.412825
854.510898,2072.576638,666.185348,-9959.241474
854.511218,1998.556043,0.000000,-9806.022374
854.511538,962.267725,-222.061783,-9806.022374
854.511859,148.041188,296.082377,-9576.193725
854.512179,1628.453072,296.082377,-9882.631924
854.512499,2960.823768,1998.556043,-10035.851024
854.512820,2294.638420,518.144159,-9806.022374
854.513140,3404.947333,296.082377,-10648.727422
854.513460,1628.453072,1110.308913,-9882.631924
854.513781,-1406.391290,1628.453072,-10648.727422
854.514101,-1850.514855,2886.803174,-10189.070123
854.514421,-888.247130,2294.638420,-10955.165621
854.514742,0.000000,740.205942,-10112.460574
854.515062,-148.041188,-962.267725,-9116.536426
854.515382,148.041188,-1850.514855,-10112.460574
854.515703,1850.514855,-1406.391290,-10035.851024
854.516023,1850.514855,888.247130,-11031.775171
854.516343,2294.638420,2886.803174,-10648.727422
854.516664,1554.432478,3256.906145,-10418.898773
854.516984,370.102971,2442.679609,-10418.898773
854.517304,-1554.432478,370.102971,-9806.022374
854.517625,-592.164754,-518.144159,-10265.679673
854.517945,-1332.370696,-1332.370696,-9652.803275
854.518265,-148.041188,-2590.720797,-9729.412825
854.518585,1406.391290,-1998.556043,-9499.584175
854.518906,0.000000,-1406.391290,-9806.022374
854.519226,-1184.329507,666.185348,-9499.584175
854.519546,-888.247130,2220.617826,-9882.631924
854.519867,148.041188,2886.803174,-10189.070123
854.520187,1110.308913,2738.761985,-10265.679673
854.520507,1850.514855,1628.453072,-9959.241474
854.520828,2220.617826,1110.308913,-9806.022374
854.521148,666.185348,888.247130,-9729.412825
854.521468,1184.329507,2220.617826,-10648.727422
854.521789,1332.370696,1258.350101,-9959.241474
854.522109,148.041188,1850.514855,-9806.022374
854.522429,-296.082377,666.185348,-9346.365076
854.522750,-444.123565,-2072.576638,-9729.412825
854.523070,148.041188,-1776.494261,-9806.022374
854.523390,592.164754,-148.041188,-10342.289223
854.523711,74.020594,888.247130,-10495.508323
854.524031,814.226536,518.144159,-10189.070123
854.524351,370.102971,148.041188,-10495.508323
854.524672,370.102971,370.102971,-10418.898773
854.524992,1628.453072,296.082377,-10112.460574
854.525312,2146.597232,740.205942,-10725.336972
854.525633,1998.556043,1406.391290,-10801.946522
854.525953,444.123565,1332.370696,-10189.070123
854.526273,1406.391290,444.123565,-11031.775171
854.526594,148.041188,-518.144159,-9806.022374
854.526914,-1924.535449,-1924.535449,-10572.117872
854.527234,-1776.494261,-1628.453072,-9576.193725
854.527555,370.102971,814.226536,-9959.241474
854.527875,814.226536,3775.050304,-10648.727422
854.528195,296.082377,888.247130,-9882.631924
854.528515,1924.535449,148.041188,-10342.289223
854.528836,1850.514855,370.102971,-9576.193725
854.529156,1628.453072,370.102971,-10648.727422
854.529476,1554.432478,1924.535449,-9882.631924
854.529797,-296.082377,1776.494261,-9729.412825
854.530117,-814.226536,1110.308913,-9269.755526
854.530437,0.000000,1036.288319,-9729.412825
854.530758,148.041188,444.123565,-9806.022374
854.531078,0.000000,1258.350101,-10801.946522
854.531398,296.082377,222.061783,-10418.898773
854.531719,296.082377,592.164754,-10495.508323
854.532039,74.020594,1406.391290,-10572.117872
854.532359,592.164754,2960.823768,-10035.851024
854.532680,2294.638420,4293.194464,-10955.165621
854.533000,2294.638420,3701.029710,-10801.946522
854.533320,2146.597232,2664.741391,-10878.556072
854.533641,1406.391290,1406.391290,-10342.289223
854.533961,1184.329507,148.041188,-10189.070123
854.534281,74.020594,-1480.411884,-10112.460574
854.534602,-148.041188,-2442.679609,-10112.460574
854.534922,-1554.432478,-2590.720797,-8963.317327
854.535242,-2220.617826,-1628.453072,-10342.289223
854.535563,-444.123565,370.102971,-9959.241474
854.535883,-296.082377,2072.576638,-10418.898773
854.536203,296.082377,2072.576638,-10418.898773
854.536524,1258.350101,-518.144159,-9039.926876
854.536844,2146.597232,-1110.308913,-9346.365076
854.537164,2812.782580,-1184.329507,-9959.241474
854.537485,1332.370696,1036.288319,-9576.193725
854.537805,1998.556043,1184.329507,-9422.974625
854.538125,1480.411884,1850.514855,-9806.022374
854.538445,0.000000,1036.288319,-9346.365076
854.538766,-888.247130,-370.102971,-9269.755526
854.539086,-666.185348,-1406.391290,-9576.193725
854.539406,-592.164754,-1258.350101,-8963.317327
854.539727,666.185348,-1036.288319,-9806.022374
854.540047,1110.308913,-370.102971,-9576.193725
854.540367,-148.041188,0.000000,-9576.193725
854.540688,814.226536,-148.041188,-9806.022374
854.541008,1628.453072,1332.370696,-9806.022374
854.541328,2442.679609,1998.556043,-10955.165621
854.541649,1850.514855,1998.556043,-10572.117872
854.541969,1406.391290,592.164754,-10342.289223
854.542289,1110.308913,-1036.288319,-10418.898773
854.542610,-518.144159,-1554.432478,-10418.898773
854.542930,-1480.411884,-1480.411884,-9882.631924
854.543250,-1554.432478,-1924.535449,-10572.117872
854.543571,222.061783,518.144159,-10035.851024
854.543891,74.020594,1406.391290,-11031.775171
854.544211,1036.288319,2072.576638,-11491.432470
854.544532,296.082377,1850.514855,-10648.727422
854.544852,1702.473667,1036.288319,-10495.508323
854.545172,1924.535449,444.123565,-10265.679673
854.545493,1406.391290,-148.041188,-10572.117872
854.545813,1184.329507,-148.041188,-10189.070123
854.546133,-296.082377,-370.102971,-10189.070123
854.546454,-74.020594,666.185348,-9346.365076
854.546774,0.000000,222.061783,-9729.412825
854.547094,-1258.350101,592.164754,-9652.803275
854.547415,-1184.329507,296.082377,-9269.755526
854.547735,-148.041188,148.041188,-10189.070123
854.548055,-518.144159,-962.267725,-9269.755526
854.548376,0.000000,-1850.514855,-9576.193725
854.548696,74.020594,-1036.288319,-9346.365076
854.549016,148.041188,518.144159,-9652.803275
854.549336,1628.453072,2146.597232,-9882.631924
854.549657,2072.576638,2220.617826,-10035.851024
854.549977,2368.659014,1406.391290,-9806.022374
854.550297,1036.288319,0.000000,-9959.241474
854.550618,1628.453072,-296.082377,-9499.584175
854.550938,-370.102971,148.041188,-10189.070123
854.551258,-1480.411884,-222.061783,-10189.070123
854.551579,-814.226536,-1776.494261,-9652.803275
854.551899,-740.205942,-444.123565,-10112.460574
854.552219,-1332.370696,518.144159,-9959.241474
854.552539,592.164754,1776.494261,-10801.946522
854.552859,1258.350101,2294.638420,-10801.946522
854.553180,1406.391290,2368.659014,-10648.727422
854.553500,666.185348,1258.350101,-10495.508323
854.553820,666.185348,74.020594,-10035.851024
854.554140,814.226536,0.000000,-10418.898773
854.554460,1184.329507,888.247130,-10572.117872
854.554780,2368.659014,1702.473667,-10648.727422
854.555100,1776.494261,1480.411884,-10342.289223
854.555421,1110.308913,1036.288319,-9959.241474
854.555741,296.082377,1184.329507,-9959.241474
854.556061,296.082377,518.144159,-9806.022374
854.556381,592.164754,74.020594,-10955.165621
854.556701,1184.329507,0.000000,-10035.851024
854.557021,1850.514855,0.000000,-9959.241474
854.557342,2368.659014,444.123565,-9806.022374
854.557662,518.144159,962.267725,-9729.412825
854.557982,148.041188,1850.514855,-9806.022374
854.558302,1406.391290,1776.494261,-9729.412825
854.558622,2146.597232,962.267725,-9806.022374
854.558942,1258.350101,-518.144159,-10189.070123
854.559263,518.144159,-1332.370696,-9729.412825
854.559583,-296.082377,-962.267725,-9652.803275
854.559903,-1036.288319,-518.144159,-9652.803275
854.560223,444.123565,0.000000,-9806.022374
854.560543,1702.473667,-592.164754,-9499.584175
854.560863,1850.514855,-296.082377,-10418.898773
854.561183,2738.761985,296.082377,-10418.898773
854.561504,1184.329507,888.247130,-10955.165621
854.561824,-148.041188,1110.308913,-10342.289223
854.562144,-1184.329507,518.144159,-9576.193725
854.562464,-148.041188,-666.185348,-10112.460574
854.562784,-518.144159,-148.041188,-10112.460574
854.563104,-1036.288319,-888.247130,-10725.336972
854.563425,-666.185348,740.205942,-10265.679673
854.563745,-370.102971,1184.329507,-10572.117872
854.564065,-370.102971,1110.308913,-10801.946522
854.564385,0.000000,296.082377,-10342.289223
854.564705,148.041188,-444.123565,-10418.898773
854.565025,370.102971,-444.123565,-9652.803275
854.565345,0.000000,740.205942,-10265.679673
854.565666,1184.329507,1258.350101,-10801.946522
854.565986,814.226536,962.267725,-10495.508323
854.566306,1110.308913,-1110.308913,-10112.460574
854.566626,666.185348,-1332.370696,-8963.317327
854.566946,814.226536,-1702.473667,-9806.022374
854.567266,444.123565,-1332.370696,-9882.631924
854.567587,-74.020594,0.000000,-10112.460574
854.567907,-296.082377,74.020594,-10265.679673
854.568227,-148.041188,74.020594,-9652.803275
854.568547,-1332.370696,-1406.391290,-9269.755526
854.568867,-296.082377,-2812.782580,-9729.412825
854.569187,1998.556043,-1850.514855,-9422.974625
854.569508,1776.494261,-370.102971,-10648.727422
854.569828,444.123565,518.144159,-10418.898773
854.570148,-1258.350101,296.082377,-10342.289223
854.570468,-1702.473667,-592.164754,-9882.631924
854.570788,-814.226536,0.000000,-9499.584175
854.571108,-296.082377,74.020594,-10265.679673
854.571428,-222.061783,0.000000,-10265.679673
854.571749,370.102971,-592.164754,-10572.117872
854.572069,2220.617826,-814.226536,-9806.022374
854.572389,1258.350101,0.000000,-10035.851024
854.572709,-1110.308913,666.185348,-10189.070123
854.573029,-1258.350101,2072.576638,-10112.460574
854.573349,-222.061783,1554.432478,-10648.727422
854.573670,592.164754,1258.350101,-10265.679673
854.573990,0.000000,814.226536,-10265.679673
854.574310,-518.144159,1036.288319,-10418.898773
854.574630,74.020594,1258.350101,-9959.241474
854.574950,1184.329507,2220.617826,-10342.289223
854.575270,2294.638420,2146.597232,-10035.851024
854.575591,1998.556043,1184.329507,-10265.679673
854.575911,1554.432478,-148.041188,-9729.412825
854.576231,1110.308913,-1554.432478,-9652.803275
854.576551,888.247130,-518.144159,-9882.631924
854.576871,1258.350101,814.226536,-10112.460574
854.577191,3182.885551,1332.370696,-10648.727422
854.577511,3552.988522,2072.576638,-10572.117872
854.577832,2294.638420,3404.947333,-10342.289223
854.578152,222.061783,3849.070898,-11031.775171
854.578472,0.000000,3627.009116,-10725.336972
854.578792,0.000000,1924.535449,-9882.631924
854.579112,1258.350101,0.000000,-8733.488677
854.579432,1702.473667,-2072.576638,-9576.193725
854.579753,2590.720797,-4515.256246,-9499.584175
854.580073,1850.514855,-3404.947333,-9116.536426
854.580393,814.226536,-1184.329507,-9729.412825
854.580713,1036.288319,1628.453072,-9346.365076
854.581033,370.102971,3552.988522,-10112.460574
854.581353,0.000000,3108.864956,-9806.022374
854.581674,-370.102971,1332.370696,-9422.974625
854.581994,444.123565,-444.123565,-10112.460574
854.582314,592.164754,-2072.576638,-9806.022374
854.582634,370.102971,-2516.700203,-9193.145976
854.582954,1850.514855,-1110.308913,-10342.289223
854.583274,1776.494261,296.082377,-9576.193725
854.583594,1036.288319,2442.679609,-9806.022374
854.583915,-888.247130,2146.597232,-10495.508323
854.584235,-1554.432478,1998.556043,-10112.460574
854.584555,-1406.391290,1036.288319,-10495.508323
854.584875,-740.205942,222.061783,-10265.679673
854.585195,-222.061783,-222.061783,-10342.289223
854.585515,0.000000,-888.247130,-9806.022374
854.585836,1110.308913,-1628.453072,-9806.022374
854.586156,1628.453072,-962.267725,-10342.289223
854.586476,74.020594,222.061783,-10035.851024
854.586796,-1332.370696,1184.329507,-10112.460574
854.587116,-740.205942,2072.576638,-10572.117872
854.587436,-370.102971,1184.329507,-10648.727422
854.587757,296.082377,222.061783,-11338.213370
854.588077,148.041188,-814.226536,-10418.898773
854.588397,518.144159,-1850.514855,-10418.898773
854.588717,814.226536,-962.267725,-10342.289223
854.589037,296.082377,518.144159,-10418.898773
854.589357,-296.082377,1776.494261,-10418.898773
854.589677,-1332.370696,1184.329507,-10112.460574
854.589998,-1184.329507,0.000000,-9882.631924
854.590318,74.020594,-1702.473667,-10189.070123
854.590638,222.061783,-3256.906145,-9499.584175
854.590958,-962.267725,-2072.576638,-10112.460574
854.591278,74.020594,-1480.411884,-9806.022374
854.591598,1776.494261,148.041188,-10189.070123
854.591919,1110.308913,814.226536,-9576.193725
854.592239,0.000000,1332.370696,-9806.022374
854.592559,-814.226536,1850.514855,-10265.679673
854.592879,-1998.556043,1998.556043,-9959.241474
854.593199,1628.453072,888.247130,-10418.898773
854.593519,1776.494261,-962.267725,-10265.679673
854.593840,2072.576638,-2442.679609,-9652.803275
854.594160,888.247130,-1480.411884,-9959.241474
854.594480,814.226536,-296.082377,-9806.022374
854.594800,0.000000,1776.494261,-10342.289223
854.595120,-962.267725,2368.659014,-10572.117872
854.595440,-814.226536,1850.514855,-10189.070123
854.595760,1110.308913,518.144159,-10112.460574
854.596081,1850.514855,74.020594,-10112.460574
854.596401,962.267725,-296.082377,-10495.508323
854.596721,2072.576638,-814.226536,-10265.679673
854.597041,2664.741391,-222.061783,-9882.631924
854.597361,1554.432478,370.102971,-9806.022374
854.597681,962.267725,518.144159,-10801.946522
854.598002,0.000000,1628.453072,-10648.727422
854.598322,148.041188,1628.453072,-10495.508323
854.598642,518.144159,1628.453072,-9959.241474
854.598962,1480.411884,740.205942,-10189.070123
854.599282,592.164754,148.041188,-10112.460574
854.599602,1332.370696,-962.267725,-10112.460574
854.599922,592.164754,-148.041188,-10572.117872
854.600243,-222.061783,222.061783,-9806.022374
854.600563,0.000000,666.185348,-9882.631924
854.600883,0.000000,1332.370696,-9882.631924
854.601203,222.061783,2146.597232,-10265.679673
854.601523,-444.123565,-222.061783,-10035.851024
854.601843,370.102971,-962.267725,-9882.631924
854.602164,1184.329507,-2146.597232,-9729.412825
854.602484,1702.473667,-1406.391290,-9806.022374
854.602804,148.041188,1332.370696,-10112.460574
854.603124,0.000000,2146.597232,-10265.679673
854.603444,740.205942,1554.432478,-9882.631924
854.603764,1184.329507,518.144159,-10265.679673
854.604085,1998.556043,-1110.308913,-9806.022374
854.604405,1628.453072,-1776.494261,-9882.631924
854.604725,666.185348,-296.082377,-9806.022374
854.605045,0.000000,592.164754,-9806.022374
854.605365,148.041188,1628.453072,-10725.336972
854.605685,148.041188,1554.432478,-10342.289223
854.606005,-296.082377,1110.308913,-10495.508323
854.606326,-740.205942,370.102971,-10189.070123
854.606646,0.000000,-370.102971,-10189.070123
854.606966,-222.061783,0.000000,-9806.022374
854.607286,-592.164754,592.164754,-9882.631924
854.607606,1628.453072,148.041188,-10112.460574
854.607926,1110.308913,-222.061783,-10189.070123
854.608247,-518.144159,-740.205942,-10112.460574
854.608567,0.000000,-1110.308913,-10342.289223
854.608887,296.082377,-814.226536,-9729.412825
854.609207,444.123565,0.000000,-9806.022374
854.609527,814.226536,74.020594,-10189.070123
854.609847,1480.411884,518.144159,-10189.070123
854.610168,296.082377,-370.102971,-10495.508323
854.610488,518.144159,-888.247130,-9882.631924
854.610808,370.102971,0.000000,-10342.289223
854.611128,74.020594,148.041188,-10189.070123
854.611448,-296.082377,-592.164754,-9882.631924
854.611768,370.102971,-1776.494261,-9729.412825
854.612088,370.102971,-2146.597232,-9806.022374
854.612409,-370.102971,-592.164754,-9959.241474
854.612729,-962.267725,1850.514855,-10189.070123
854.613049,-444.123565,2294.638420,-10265.679673
854.613369,814.226536,1406.391290,-10112.460574
854.613689,888.247130,-592.164754,-9806.022374
854.614009,1110.308913,-1850.514855,-10112.460574
854.614330,148.041188,-1850.514855,-9882.631924
854.614650,-296.082377,-518.144159,-10418.898773
854.614970,296.082377,1776.494261,-10035.851024
854.615290,444.123565,2368.659014,-10265.679673
854.615610,0.000000,962.267725,-10189.070123
854.615930,1332.370696,-814.226536,-10189.070123
854.616251,1924.535449,-1406.391290,-10342.289223
854.616571,666.185348,-1258.350101,-10035.851024
854.616891,296.082377,0.000000,-9959.241474
854.617211,888.247130,1554.432478,-10265.679673
854.617531,370.102971,2368.659014,-9806.022374
854.617851,0.000000,1850.514855,-10342.289223
854.618171,962.267725,1332.370696,-9806.022374
854.618492,740.205942,1184.329507,-10265.679673
854.618812,1036.288319,518.144159,-9806.022374
854.619132,814.226536,222.061783,-9576.193725
854.619452,1406.391290,-296.082377,-10035.851024
854.619772,1258.350101,0.000000,-9499.584175
854.620092,74.020594,74.020594,-10035.851024
854.620413,148.041188,222.061783,-9729.412825
854.620733,1110.308913,518.144159,-10265.679673
854.621053,1332.370696,1258.350101,-10725.336972
854.621373,2960.823768,1776.494261,-11031.775171
854.621693,2368.659014,2442.679609,-11108.384721
854.622013,1036.288319,3627.009116,-10955.165621
854.622334,962.267725,3256.906145,-10648.727422
854.622654,1332.370696,2812.782580,-10878.556072
854.622974,592.164754,962.267725,-10418.898773
854.623294,518.144159,-666.185348,-10035.851024
854.623614,518.144159,-814.226536,-10035.851024
854.623934,0.000000,-370.102971,-9729.412825
854.624254,148.041188,222.061783,-9806.022374
854.624575,296.082377,-444.123565,-9959.241474
854.624895,666.185348,222.061783,-9576.193725
854.625215,0.000000,-518.144159,-9269.755526
854.625535,444.123565,0.000000,-9959.241474
854.625855,1110.308913,1406.391290,-9882.631924
854.626175,74.020594,2516.700203,-9959.241474
854.626496,370.102971,592.164754,-10112.460574
854.626816,666.185348,-1332.370696,-8963.317327
854.627136,-370.102971,-3108.864956,-9269.755526
854.627456,-518.144159,-2516.700203,-9422.974625
854.627776,296.082377,-148.041188,-9959.241474
854.628096,592.164754,1998.556043,-10112.460574
854.628417,0.000000,1924.535449,-9729.412825
854.628737,-962.267725,1554.432478,-9806.022374
854.629057,-1554.432478,0.000000,-10572.117872
854.629377,0.000000,-592.164754,-10265.679673
854.629697,1110.308913,0.000000,-10342.289223
854.630017,2072.576638,740.205942,-10418.898773
854.630337,2146.597232,74.020594,-10112.460574
854.630658,74.020594,-888.247130,-10572.117872
854.630978,-1110.308913,-1036.288319,-10265.679673
854.631298,-1850.514855,-888.247130,-10035.851024
854.631618,-1480.411884,444.123565,-10725.336972
854.631938,296.082377,740.205942,-10955.165621
854.632258,1480.411884,1480.411884,-11338.213370
854.632579,444.123565,1036.288319,-10801.946522
854.632899,370.102971,592.164754,-10725.336972
854.633219,370.102971,-444.123565,-10801.946522
854.633539,74.020594,296.082377,-10572.117872
854.633859,-518.144159,0.000000,-10648.727422
854.634179,1036.288319,-296.082377,-10725.336972
854.634499,962.267725,-148.041188,-10265.679673
854.634820,-1036.288319,-1406.391290,-9806.022374
854.635140,-296.082377,-1924.535449,-9806.022374
854.635460,0.000000,-1184.329507,-9882.631924
854.635780,666.185348,-740.205942,-9806.022374
854.636100,1184.329507,-370.102971,-10112.460574
854.636420,518.144159,-370.102971,-9806.022374
854.636741,-592.164754,-444.123565,-9499.584175
854.637061,-1036.288319,-222.061783,-9422.974625
854.637381,1184.329507,0.000000,-10112.460574
854.637701,2146.597232,-592.164754,-11031.775171
854.638021,2146.597232,-1406.391290,-10112.460574
854.638341,1998.556043,-1110.308913,-9959.241474
854.638662,592.164754,296.082377,-9959.241474
854.638982,-74.020594,2812.782580,-9729.412825
854.639302,-1332.370696,2812.782580,-10648.727422
854.639622,370.102971,2072.576638,-10112.460574
854.639942,1110.308913,0.000000,-10342.289223
854.640262,1998.556043,-370.102971,-10265.679673
854.640582,2664.741391,-592.164754,-10648.727422
854.640903,1924.535449,814.226536,-10955.165621
854.641223,1776.494261,2072.576638,-10648.727422
854.641543,1110.308913,2220.617826,-10189.070123
854.641863,518.144159,518.144159,-10342.289223
854.642183,814.226536,-814.226536,-10112.460574
854.642503,444.123565,296.082377,-10265.679673
854.642824,1554.432478,2294.638420,-10648.727422
854.643144,666.185348,2886.803174,-10418.898773
854.643464,1110.308913,2368.659014,-10878.556072
854.643784,888.247130,370.102971,-9806.022374
854.644104,1110.308913,-1036.288319,-9806.022374
854.644424,666.185348,-1924.535449,-10035.851024
854.644745,1702.473667,0.000000,-9806.022374
854.645065,1702.473667,962.267725,-9652.803275
854.645385,1184.329507,1850.514855,-9499.584175
854.645705,888.247130,2442.679609,-9576.193725
854.646025,1332.370696,1332.370696,-9882.631924
854.646345,888.247130,814.226536,-9269.755526
854.646665,0.000000,0.000000,-9576.193725
854.646986,444.123565,-370.102971,-9729.412825
854.647306,592.164754,370.102971,-9422.974625
854.647626,-814.226536,666.185348,-9346.365076
854.647946,-1258.350101,1184.329507,-9652.803275
854.648266,0.000000,1184.329507,-9959.241474
854.648586,444.123565,518.144159,-10648.727422
854.648907,814.226536,-814.226536,-9959.241474
854.649227,518.144159,-518.144159,-9806.022374
854.649547,-74.020594,1184.329507,-10418.898773
854.649867,-888.247130,2072.576638,-10265.679673
854.650187,-370.102971,2812.782580,-10572.117872
854.650507,740.205942,1628.453072,-10878.556072
854.650828,1998.556043,962.267725,-10572.117872
854.651148,1258.350101,74.020594,-10955.165621
854.651468,1110.308913,-370.102971,-10725.336972
854.651788,-888.247130,0.000000,-9806.022374
854.652108,-2146.597232,-370.102971,-9959.241474
854.652428,-1480.411884,-888.247130,-9806.022374
854.652748,0.000000,-1036.288319,-10342.289223
854.653069,296.082377,-296.082377,-10878.556072
854.653389,1258.350101,814.226536,-10495.508323
854.653709,296.082377,1332.370696,-10725.336972
854.654029,-518.144159,1850.514855,-10418.898773
854.654349,-1036.288319,962.267725,-9652.803275
854.654669,444.123565,-222.061783,-9806.022374
854.654989,1184.329507,-962.267725,-9652.803275
854.655309,1184.329507,-1480.411884,-9806.022374
854.655629,2072.576638,-1036.288319,-9806.022374
854.655949,1702.473667,370.102971,-9652.803275
854.656269,444.123565,1258.350101,-10189.070123
854.656589,74.020594,1406.391290,-9806.022374
854.656909,-518.144159,370.102971,-10035.851024
854.657229,-1184.329507,-1702.473667,-9652.803275
854.657549,-148.041188,-2146.597232,-9576.193725
854.657869,666.185348,-1110.308913,-9652.803275
854.658189,0.000000,-518.144159,-9499.584175
854.658509,0.000000,148.041188,-9806.022374
854.658829,814.226536,814.226536,-9806.022374
854.659149,1628.453072,1332.370696,-11261.603821
854.659469,1184.329507,74.020594,-10035.851024
854.659789,1332.370696,-740.205942,-10035.851024
854.660108,1702.473667,-518.144159,-10342.289223
854.660428,814.226536,0.000000,-9806.022374
854.660748,-444.123565,962.267725,-10648.727422
854.661068,-592.164754,1184.329507,-9882.631924
854.661388,222.061783,1480.411884,-10265.679673
854.661708,814.226536,1184.329507,-10648.727422
854.662028,1036.288319,0.000000,-9959.241474
854.662348,814.226536,-814.226536,-10342.289223
854.662668,1258.350101,-962.267725,-10189.070123
854.662988,592.164754,296.082377,-10265.679673
854.663308,592.164754,666.185348,-10342.289223
854.663628,1480.411884,1258.350101,-10265.679673
854.663948,1406.391290,1702.473667,-10495.508323
854.664268,2294.638420,1628.453072,-10955.165621
854.664588,2072.576638,1554.432478,-10801.946522
854.664908,592.164754,1554.432478,-10189.070123
854.665228,592.164754,222.061783,-10572.117872
854.665548,1036.288319,0.000000,-9422.974625
854.665868,2146.597232,-962.267725,-10418.898773
854.666188,1332.370696,-666.185348,-9959.241474
854.666508,814.226536,740.205942,-10418.898773
854.666828,962.267725,2294.638420,-10189.070123
854.667148,1554.432478,3627.009116,-9882.631924
854.667468,1110.308913,2812.782580,-9652.803275
854.667788,1850.514855,2146.597232,-10035.851024
854.668108,2516.700203,-592.164754,-9806.022374
854.668428,2960.823768,-1998.556043,-9729.412825
854.668748,666.185348,-2072.576638,-9346.365076
854.669068,-1480.411884,-740.205942,-9116.536426
854.669388,-1110.308913,1184.329507,-9576.193725
854.669707,148.041188,2146.597232,-9652.803275
854.670027,0.000000,2590.720797,-9882.631924
854.670347,-518.144159,1036.288319,-10189.070123
854.670667,-1036.288319,-814.226536,-9806.022374
854.670987,-1332.370696,-2072.576638,-9806.022374
854.671307,-814.226536,-1628.453072,-9806.022374
854.671627,-740.205942,0.000000,-9346.365076
854.671947,740.205942,888.247130,-9039.926876
854.672267,1036.288319,1406.391290,-10342.289223
854.672587,592.164754,2294.638420,-10878.556072
854.672907,-370.102971,1998.556043,-10495.508323
854.673227,296.082377,1406.391290,-10572.117872
854.673547,814.226536,592.164754,-10342.289223
854.673867,444.123565,-740.205942,-10112.460574
854.674187,-518.144159,0.000000,-10035.851024
854.674507,-1850.514855,296.082377,-10342.289223
854.674827,-1554.432478,148.041188,-10495.508323
854.675147,-1110.308913,592.164754,-10189.070123
854.675467,-518.144159,1332.370696,-10342.289223
854.675787,-592.164754,1184.329507,-9806.022374
854.676107,222.061783,370.102971,-11184.994271
854.676427,888.247130,-592.164754,-10418.898773
854.676747,1554.432478,-814.226536,-9882.631924
854.677067,1702.473667,-222.061783,-10265.679673
854.677387,962.267725,1110.308913,-9806.022374
854.677707,-814.226536,1850.514855,-10725.336972
854.678027,-518.144159,1554.432478,-10189.070123
854.678347,962.267725,0.000000,-9806.022374
854.678667,1036.288319,-2442.679609,-9346.365076
854.678987,1480.411884,-3034.844362,-9959.241474
854.679307,1258.350101,-2664.741391,-9652.803275
854.679626,1554.432478,296.082377,-10112.460574
854.679946,1184.329507,1850.514855,-10112.460574
854.680266,1184.329507,1998.556043,-9959.241474
854.680586,1184.329507,444.123565,-9959.241474
854.680906,0.000000,-1850.514855,-9882.631924
854.681226,592.164754,-2590.720797,-9806.022374
854.681546,666.185348,-592.164754,-9882.631924
854.681866,0.000000,1258.350101,-10265.679673
854.682186,-296.082377,1998.556043,-10112.460574
854.682506,370.102971,1480.411884,-10572.117872
854.682826,1036.288319,-592.164754,-9806.022374
854.683146,740.205942,-740.205942,-9806.022374
854.683466,1332.370696,-666.185348,-10265.679673
854.683786,1554.432478,962.267725,-10418.898773
854.684106,1628.453072,1776.494261,-10418.898773
854.684426,2146.597232,1406.391290,-9806.022374
854.684746,2220.617826,740.205942,-10265.679673
854.685066,1258.350101,-666.185348,-9806.022374
854.685386,518.144159,0.000000,-10112.460574
854.685706,74.020594,1036.288319,-10495.508323
854.686026,-1332.370696,1924.535449,-9806.022374
854.686346,-1332.370696,1332.370696,-10112.460574
854.686666,-962.267725,0.000000,-9729.412825
854.686986,518.144159,-1702.473667,-10112.460574
854.687306,518.144159,-1480.411884,-10189.070123
854.687626,0.000000,-296.082377,-10495.508323
854.687946,0.000000,1036.288319,-10189.070123
854.688266,888.247130,2368.659014,-9806.022374
854.688586,814.226536,2812.782580,-10035.851024
854.688906,2516.700203,1702.473667,-10342.289223
854.689225,1776.494261,-666.185348,-10112.460574
854.689545,222.061783,-2368.659014,-9729.412825
854.689865,444.123565,-1628.453072,-10035.851024
854.690185,592.164754,0.000000,-10112.460574
854.690505,2072.576638,1924.535449,-9806.022374
854.690825,444.123565,2812.782580,-10342.289223
854.691145,-222.061783,2516.700203,-10265.679673
854.691465,0.000000,1480.411884,-10035.851024
854.691785,74.020594,-296.082377,-10189.070123
854.692105,666.185348,-1480.411884,-9729.412825
854.692425,222.061783,-1332.370696,-9806.022374
854.692745,1258.350101,0.000000,-9806.022374
854.693065,1258.350101,1184.329507,-10265.679673
854.693385,1480.411884,2368.659014,-10342.289223
854.693705,444.123565,3478.967927,-10342.289223
854.694025,592.164754,1998.556043,-10572.117872
854.694345,1332.370696,592.164754,-10648.727422
854.694665,2146.597232,-296.082377,-10495.508323
854.694985,1110.308913,-1184.329507,-9422.974625
854.695305,0.000000,-1998.556043,-9652.803275
854.695625,296.082377,-592.164754,-10035.851024
854.695945,0.000000,1332.370696,-9959.241474
854.696265,740.205942,2146.597232,-11414.822920
854.696585,0.000000,2368.659014,-10725.336972
854.696905,-296.082377,1110.308913,-10112.460574
854.697225,-888.247130,592.164754,-9806.022374
854.697545,-1480.411884,296.082377,-9499.584175
854.697865,-1406.391290,-370.102971,-9729.412825
854.698185,-1258.350101,-962.267725,-10265.679673
854.698505,222.061783,-518.144159,-10189.070123
854.698825,-222.061783,74.020594,-9806.022374
854.699144,-592.164754,74.020594,-9499.584175
854.699464,-148.041188,888.247130,-9882.631924
854.699784,0.000000,0.000000,-10035.851024
854.700104,74.020594,-296.082377,-9576.193725
854.700424,518.144159,74.020594,-10801.946522
854.700744,1332.370696,0.000000,-9729.412825
854.701064,444.123565,592.164754,-10112.460574
854.701384,0.000000,1110.308913,-10572.117872
854.701704,1258.350101,518.144159,-9806.022374
854.702024,1184.329507,296.082377,-9806.022374
854.702344,222.061783,-222.061783,-9882.631924
854.702664,222.061783,-444.123565,-9959.241474
854.702984,-444.123565,444.123565,-10189.070123
854.703304,-518.144159,1702.473667,-9882.631924
854.703624,0.000000,2220.617826,-10495.508323
854.703944,148.041188,1702.473667,-10112.460574
854.704264,740.205942,666.185348,-10495.508323
854.704584,1628.453072,74.020594,-10648.727422
854.704904,2960.823768,0.000000,-10878.556072
854.705224,3108.864956,888.247130,-10725.336972
854.705544,1924.535449,1554.432478,-10495.508323
854.705864,2146.597232,1554.432478,-10189.070123
854.706184,1554.432478,296.082377,-11184.994271
854.706504,814.226536,-888.247130,-9959.241474
854.706824,-444.123565,-1184.329507,-10112.460574
854.707144,74.020594,-1924.535449,-10035.851024
854.707464,888.247130,-1110.308913,-10265.679673
854.707784,74.020594,148.041188,-10495.508323
854.708104,-370.102971,1406.391290,-9959.241474
854.708424,-296.082377,296.082377,-10189.070123
854.708743,1258.350101,-370.102971,-10265.679673
854.709063,3182.885551,-1110.308913,-10189.070123
854.709383,1702.473667,-296.082377,-10189.070123
854.709703,1036.288319,592.164754,-9806.022374
854.710023,592.164754,222.061783,-9652.803275
854.710343,1110.308913,-222.061783,-9576.193725
854.710663,0.000000,-1110.308913,-9576.193725
854.710983,-1258.350101,-2294.638420,-9269.755526
854.711303,-888.247130,-1406.391290,-9193.145976
854.711623,-296.082377,0.000000,-9652.803275
854.711943,0.000000,1184.329507,-9499.584175
854.712263,370.102971,518.144159,-9806.022374
854.712583,2220.617826,-1110.308913,-9959.241474
854.712903,1628.453072,-2294.638420,-9729.412825
854.713223,814.226536,-1480.411884,-9652.803275
854.713543,1184.329507,0.000000,-10112.460574
854.713863,0.000000,1850.514855,-10725.336972
854.714183,-740.205942,2590.720797,-10265.679673
854.714503,-1332.370696,1036.288319,-9806.022374
854.714823,-222.061783,-962.267725,-10418.898773
854.715143,0.000000,-2294.638420,-10572.117872
854.715463,148.041188,-2072.576638,-10648.727422
854.715783,962.267725,0.000000,-10801.946522
854.716103,2072.576638,1702.473667,-10189.070123
854.716423,2294.638420,2368.659014,-10572.117872
854.716743,1850.514855,2072.576638,-11108.384721
854.717063,666.185348,1406.391290,-10801.946522
854.717383,222.061783,0.000000,-10878.556072
854.717703,1036.288319,-148.041188,-10878.556072
854.718023,962.267725,296.082377,-10955.165621
854.718343,-1110.308913,666.185348,-10572.117872
854.718662,-1332.370696,2220.617826,-9959.241474
854.718982,-1184.329507,2590.720797,-10878.556072
854.719302,-814.226536,1554.432478,-10342.289223
854.719622,-1110.308913,-148.041188,-9959.241474
854.719942,-1110.308913,-1184.329507,-9729.412825
854.720262,-1258.350101,-888.247130,-9346.365076
854.720582,518.144159,1258.350101,-9116.536426
854.720902,1480.411884,2072.576638,-10112.460574
854.721222,2368.659014,2368.659014,-9576.193725
854.721542,1406.391290,1036.288319,-9499.584175
854.721862,222.061783,-296.082377,-9039.926876
854.722182,148.041188,-1554.432478,-9422.974625
854.722502,-666.185348,-962.267725,-9499.584175
854.722822,-814.226536,-592.164754,-9269.755526
854.723142,518.144159,0.000000,-8120.612279
854.723462,666.185348,-222.061783,-10112.460574
854.723782,-222.061783,-444.123565,-10035.851024
854.724102,-518.144159,74.020594,-9882.631924
854.724422,0.000000,888.247130,-10418.898773
854.724742,740.205942,1554.432478,-9806.022374
854.725062,740.205942,1258.350101,-10189.070123
854.725382,888.247130,518.144159,-10418.898773
854.725702,2072.576638,-148.041188,-10189.070123
854.726022,1702.473667,888.247130,-10648.727422
854.726342,1628.453072,2146.597232,-10801.946522
854.726662,1924.535449,3701.029710,-10648.727422
854.726982,1406.391290,2738.761985,-10572.117872
854.727302,2294.638420,1332.370696,-10342.289223
854.727622,2220.617826,-592.164754,-10112.460574
854.727942,518.144159,-1924.535449,-10189.070123
854.728261,0.000000,-1554.432478,-9959.241474
854.728581,740.205942,1036.288319,-10418.898773
854.728901,-370.102971,3256.906145,-10572.117872
854.729221,0.000000,4145.153275,-10265.679673
854.729541,814.226536,2516.700203,-9806.022374
854.729861,1850.514855,962.267725,-9806.022374
854.730181,2294.638420,-296.082377,-9806.022374
854.730501,1850.514855,-1776.494261,-9499.584175
854.730821,2146.597232,-1776.494261,-9652.803275
854.731141,740.205942,-1850.514855,-9422.974625
854.731461,444.123565,-814.226536,-9499.584175
854.731781,370.102971,-148.041188,-9729.412825
854.732101,-370.102971,148.041188,-9959.241474
854.732421,0.000000,1258.350101,-9959.241474
854.732741,1258.350101,444.123565,-10035.851024
854.733061,1628.453072,-296.082377,-10112.460574
854.733381,814.226536,-1554.432478,-10265.679673
854.733701,0.000000,-1776.494261,-9652.803275
854.734021,0.000000,-962.267725,-9882.631924
854.734341,148.041188,74.020594,-9959.241474
854.734661,0.000000,2072.576638,-10495.508323
854.734981,0.000000,1258.350101,-10725.336972
854.735301,-518.144159,666.185348,-10725.336972
854.735621,-518.144159,0.000000,-10418.898773
854.735941,-1036.288319,-1332.370696,-11031.775171
854.736261,-962.267725,-814.226536,-10112.460574
854.736581,-1480.411884,-518.144159,-10572.117872
854.736901,-814.226536,148.041188,-10342.289223
854.737221,592.164754,888.247130,-11184.994271
854.737541,1110.308913,1184.329507,-10955.165621
854.737861,1776.494261,1332.370696,-10418.898773
854.738180,2516.700203,962.267725,-10878.556072
854.738500,1628.453072,518.144159,-10342.289223
854.738820,-370.102971,-740.205942,-10418.898773
854.739140,-1332.370696,-2442.679609,-10112.460574
854.739460,-1184.329507,-2220.617826,-9729.412825
854.739780,-814.226536,-1184.329507,-10035.851024
854.740100,-740.205942,-370.102971,-9806.022374
854.740420,222.061783,0.000000,-9806.022374
854.740740,592.164754,74.020594,-9806.022374
854.741060,296.082377,-296.082377,-10112.460574
854.741380,666.185348,-370.102971,-10112.460574
854.741700,666.185348,-444.123565,-10035.851024
854.742020,370.102971,-148.041188,-9652.803275
854.742340,74.020594,-148.041188,-9882.631924
854.742660,1406.391290,518.144159,-10035.851024
854.742980,1924.535449,592.164754,-10112.460574
854.743300,2590.720797,740.205942,-10189.070123
854.743620,962.267725,1184.329507,-10418.898773
854.743940,-296.082377,888.247130,-10189.070123
854.744260,-666.185348,962.267725,-10112.460574
854.744580,74.020594,74.020594,-8503.660028
854.744900,-518.144159,0.000000,-9806.022374
854.745220,-962.267725,222.061783,-10342.289223
854.745540,148.041188,740.205942,-10035.851024
854.745860,1850.514855,1332.370696,-10572.117872
854.746180,2442.679609,1702.473667,-9729.412825
854.746500,666.185348,2812.782580,-10418.898773
854.746820,-814.226536,2220.617826,-10265.679673
854.747140,518.144159,2812.782580,-10342.289223
854.747460,1036.288319,3256.906145,-10725.336972
854.747779,2368.659014,740.205942,-9882.631924
854.748099,1406.391290,222.061783,-10189.070123
854.748419,1776.494261,962.267725,-10112.460574
854.748739,1480.411884,2738.761985,-9806.022374
854.749059,2146.597232,3923.091493,-10801.946522
854.749379,3108.864956,2368.659014,-10112.460574
854.749699,2220.617826,222.061783,-10112.460574
854.750019,1850.514855,-888.247130,-9806.022374
854.750339,962.267725,0.000000,-9499.584175
854.750659,370.102971,1628.453072,-9806.022374
854.750979,1258.350101,2590.720797,-9882.631924
854.751299,1406.391290,2590.720797,-9882.631924
854.751619,1628.453072,222.061783,-9652.803275
854.751939,1702.473667,-1776.494261,-9882.631924
854.752259,518.144159,-2368.659014,-9422.974625
854.752579,-962.267725,-1406.391290,-9499.584175
854.752899,-444.123565,-148.041188,-9729.412825
854.753219,148.041188,666.185348,-10725.336972
854.753539,0.000000,-666.185348,-9806.022374
854.753859,0.000000,-370.102971,-9806.022374
854.754179,74.020594,-814.226536,-10342.289223
854.754499,962.267725,0.000000,-9806.022374
854.754819,1110.308913,-296.082377,-9882.631924
854.755139,666.185348,0.000000,-9806.022374
854.755459,0.000000,-1628.453072,-10112.460574
854.755779,-1258.350101,-2590.720797,-10035.851024
854.756099,-1036.288319,-2442.679609,-10342.289223
854.756419,-518.144159,-666.185348,-10342.289223
854.756739,-1332.370696,444.123565,-10572.117872
854.757059,-814.226536,444.123565,-11184.994271
854.757379,-888.247130,-222.061783,-10189.070123
854.757699,-1184.329507,0.000000,-10418.898773
854.758019,-888.247130,-1110.308913,-10418.898773
854.758339,296.082377,-666.185348,-11108.384721
854.758659,0.000000,-666.185348,-11261.603821
854.758979,-962.267725,-296.082377,-10265.679673
854.759299,296.082377,-518.144159,-10112.460574
854.759619,962.267725,-592.164754,-10112.460574
854.759939,518.144159,74.020594,-10801.946522
854.760259,-296.082377,0.000000,-10801.946522
854.760579,-222.061783,-518.144159,-10495.508323
854.760899,666.185348,-1554.432478,-9959.241474
854.761219,-148.041188,-1702.473667,-9806.022374
854.761539,-592.164754,-1036.288319,-9422.974625
854.761859,-148.041188,0.000000,-9576.193725
854.762179,962.267725,518.144159,-9729.412825
854.762499,814.226536,666.185348,-10572.117872
854.762819,1184.329507,-814.226536,-9652.803275
854.763139,1110.308913,-740.205942,-9806.022374
854.763459,1628.453072,296.082377,-9806.022374
854.763779,370.102971,1480.411884,-10189.070123
854.764099,-74.020594,1924.535449,-9882.631924
854.764419,-592.164754,1480.411884,-9882.631924
854.764739,444.123565,1406.391290,-9499.584175
854.765059,-370.102971,1036.288319,-9806.022374
854.765379,296.082377,518.144159,-10035.851024
854.765699,1850.514855,444.123565,-9806.022374
854.766019,1924.535449,-370.102971,-9729.412825
854.766339,1776.494261,-370.102971,-9576.193725
854.766659,592.164754,740.205942,-9959.241474
854.766979,1110.308913,1184.329507,-10342.289223
854.767299,2368.659014,1480.411884,-10572.117872
854.767619,1850.514855,1628.453072,-10495.508323
854.767939,1924.535449,1184.329507,-10189.070123
854.768259,296.082377,888.247130,-10495.508323
854.768580,-148.041188,1924.535449,-10418.898773
854.768900,1184.329507,518.144159,-10648.727422
854.769220,2220.617826,888.247130,-10572.117872
854.769540,2072.576638,1184.329507,-10801.946522
854.769860,-2146.597232,666.185348,-9882.631924
854.770180,-1998.556043,2072.576638,-9882.631924
854.770500,888.247130,1554.432478,-9882.631924
854.770820,2516.700203,1998.556043,-9652.803275
854.771140,3627.009116,1924.535449,-9806.022374
854.771460,2664.741391,1258.350101,-10035.851024
854.771780,1480.411884,888.247130,-9193.145976
854.772100,-666.185348,1184.329507,-9729.412825
854.772420,-1702.473667,888.247130,-9039.926876
854.772740,-518.144159,1406.391290,-9576.193725
854.773060,-1184.329507,1110.308913,-9806.022374
854.773380,74.020594,888.247130,-9576.193725
854.773700,1554.432478,0.000000,-9806.022374
854.774020,1850.514855,-592.164754,-9729.412825
854.774340,-592.164754,0.000000,-9499.584175
854.774660,-2516.700203,-370.102971,-9806.022374
854.774980,-2886.803174,0.000000,-9269.755526
854.775300,-370.102971,148.041188,-9959.241474
854.775620,1776.494261,962.267725,-10725.336972
854.775940,1554.432478,296.082377,-10495.508323
854.776260,740.205942,0.000000,-10418.898773
854.776580,814.226536,-148.041188,-10342.289223
854.776900,666.185348,-222.061783,-11031.775171
854.777220,370.102971,-518.144159,-10648.727422
854.777540,-296.082377,-518.144159,-9806.022374
854.777860,-1110.308913,222.061783,-10265.679673
854.778180,-666.185348,962.267725,-10801.946522
854.778500,296.082377,1332.370696,-10878.556072
854.778820,2072.576638,296.082377,-9652.803275
854.779140,2960.823768,-148.041188,-9959.241474
854.779460,2738.761985,-296.082377,-10265.679673
854.779780,1554.432478,-592.164754,-10725.336972
854.780100,1036.288319,-222.061783,-10725.336972
854.780420,-666.185348,148.041188,-9882.631924
854.780740,-888.247130,0.000000,-9652.803275
854.781060,1258.350101,-518.144159,-9422.974625
854.781380,1406.391290,-1406.391290,-9652.803275
854.781700,1554.432478,-962.267725,-9729.412825
854.782020,2072.576638,-1998.556043,-9652.803275
854.782340,2220.617826,74.020594,-9729.412825
854.782660,888.247130,-518.144159,-9729.412825
854.782980,-1702.473667,-518.144159,-8886.707777
854.783300,-1776.494261,-296.082377,-9729.412825
854.783620,74.020594,-592.164754,-9576.193725
854.783940,740.205942,-888.247130,-9959.241474
854.784260,1110.308913,-1702.473667,-10112.460574
854.784580,444.123565,-1702.473667,-9806.022374
854.784900,-592.164754,-1036.288319,-9959.241474
854.785220,-1184.329507,0.000000,-9806.022374
854.785540,296.082377,1036.288319,-10112.460574
854.785860,148.041188,1184.329507,-10572.117872
854.786180,-444.123565,-296.082377,-10342.289223
854.786500,222.061783,-370.102971,-10342.289223
854.786820,0.000000,-148.041188,-10495.508323
854.787140,-740.205942,370.102971,-10725.336972
854.787460,444.123565,1776.494261,-10801.946522
854.787780,1036.288319,1850.514855,-11414.822920
854.788100,666.185348,2442.679609,-10725.336972
854.788420,962.267725,1258.350101,-11108.384721
854.788740,-222.061783,888.247130,-10955.165621
854.789060,148.041188,74.020594,-10035.851024
854.789380,-222.061783,518.144159,-10572.117872
854.789700,592.164754,888.247130,-10112.460574
854.790020,-518.144159,1110.308913,-9806.022374
854.790340,148.041188,2442.679609,-10801.946522
854.790660,1628.453072,1480.411884,-9882.631924
854.790980,2442.679609,962.267725,-10189.070123
854.791300,1776.494261,74.020594,-9806.022374
854.791620,740.205942,962.267725,-10265.679673
854.791940,74.020594,1850.514855,-9882.631924
854.792260,-296.082377,2442.679609,-9882.631924
854.792580,1480.411884,2886.803174,-10035.851024
854.792900,1998.556043,2146.597232,-9806.022374
854.793220,1554.432478,666.185348,-9729.412825
854.793540,1628.453072,518.144159,-9193.145976
854.793860,2664.741391,74.020594,-9806.022374
854.794180,1998.556043,444.123565,-9499.584175
854.794500,370.102971,740.205942,-9499.584175
854.794820,-296.082377,1110.308913,-9499.584175
854.795140,-444.123565,0.000000,-9806.022374
854.795461,666.185348,74.020594,-9806.022374
854.795781,0.000000,592.164754,-9652.803275
854.796101,1628.453072,1184.329507,-10112.460574
854.796421,1480.411884,1184.329507,-10342.289223
854.796741,1776.494261,888.247130,-10418.898773
854.797061,2072.576638,888.247130,-10572.117872
854.797381,1036.288319,1258.350101,-9729.412825
854.797701,-666.185348,1184.329507,-10189.070123
854.798021,-814.226536,888.247130,-10189.070123
854.798341,888.247130,518.144159,-10801.946522
854.798661,1036.288319,-888.247130,-9959.241474
854.798981,592.164754,-888.247130,-10265.679673
854.799301,296.082377,-148.041188,-10572.117872
854.799621,0.000000,0.000000,-10418.898773
854.799941,814.226536,1036.288319,-10418.898773
854.800261,1480.411884,1036.288319,-11338.213370
854.800581,296.082377,148.041188,-10342.289223
854.800901,-222.061783,0.000000,-9729.412825
854.801221,-1554.432478,0.000000,-10265.679673
854.801541,-444.123565,0.000000,-9882.631924
854.801861,-444.123565,-1184.329507,-10572.117872
854.802181,296.082377,-1702.473667,-10035.851024
854.802501,1258.350101,-1776.494261,-9806.022374
854.802821,1554.432478,-814.226536,-9959.241474
854.803141,1406.391290,-148.041188,-10189.070123
854.803461,-888.247130,-296.082377,-9959.241474
854.803781,-1184.329507,-296.082377,-10035.851024
854.804101,222.061783,-592.164754,-10342.289223
854.804421,592.164754,0.000000,-9729.412825
854.804741,666.185348,-962.267725,-10035.851024
854.805061,0.000000,-1110.308913,-9882.631924
854.805381,370.102971,-666.185348,-10265.679673
854.805701,-370.102971,-592.164754,-10035.851024
854.806021,-1480.411884,0.000000,-10342.289223
854.806341,-1480.411884,0.000000,-10265.679673
854.806661,-888.247130,0.000000,-10572.117872
854.806981,-148.041188,962.267725,-10418.898773
854.807301,-370.102971,1110.308913,-10035.851024
854.807621,0.000000,1258.350101,-10112.460574
854.807941,518.144159,-296.082377,-10572.117872
854.808261,1480.411884,-1850.514855,-10189.070123
854.808581,666.185348,-2664.741391,-9882.631924
854.808901,296.082377,-1998.556043,-9806.022374
854.809221,74.020594,296.082377,-10418.898773
854.809541,0.000000,1776.494261,-10801.946522
854.809861,518.144159,2220.617826,-10189.070123
854.810181,814.226536,2220.617826,-9806.022374
854.810501,814.226536,370.102971,-10648.727422
854.810821,592.164754,-962.267725,-10112.460574
854.811141,222.061783,-1110.308913,-9806.022374
854.811461,740.205942,-592.164754,-9959.241474
854.811781,1406.391290,740.205942,-9499.584175
854.812101,2072.576638,370.102971,-10572.117872
854.812421,962.267725,222.061783,-9882.631924
854.812741,-148.041188,592.164754,-9806.022374
854.813061,592.164754,1776.494261,-9576.193725
854.813381,2220.617826,1776.494261,-9882.631924
854.813701,2812.782580,1110.308913,-10189.070123
854.814021,2960.823768,296.082377,-10495.508323
854.814341,2072.576638,-148.041188,-10112.460574
854.814661,1702.473667,-148.041188,-9729.412825
854.814981,888.247130,1776.494261,-9652.803275
854.815301,1332.370696,2368.659014,-10189.070123
854.815621,1998.556043,2368.659014,-9882.631924
854.815941,2664.741391,592.164754,-9499.584175
854.816261,1110.308913,148.041188,-9806.022374
854.816581,-148.041188,296.082377,-10112.460574
854.816901,0.000000,962.267725,-9806.022374
854.817221,592.164754,1554.432478,-9959.241474
854.817541,1258.350101,1776.494261,-9729.412825
854.817861,1110.308913,1258.350101,-10035.851024
854.818181,1036.288319,1628.453072,-9882.631924
854.818501,1480.411884,1628.453072,-10112.460574
854.818821,888.247130,2294.638420,-9422.974625
854.819141,740.205942,1184.329507,-10035.851024
854.819461,444.123565,814.226536,-10035.851024
854.819781,740.205942,-592.164754,-10189.070123
854.820101,666.185348,-814.226536,-9499.584175
854.820421,0.000000,1628.453072,-10265.679673
854.820741,-370.102971,3256.906145,-10878.556072
854.821061,-888.247130,4293.194464,-10189.070123
854.821381,-1332.370696,2738.761985,-10342.289223
854.821701,518.144159,-518.144159,-10342.289223
854.822021,740.205942,-2590.720797,-9806.022374
854.822342,370.102971,-2442.679609,-10265.679673
854.822662,-592.164754,0.000000,-9499.584175
854.822982,-370.102971,2886.803174,-11261.603821
854.823302,-666.185348,3478.967927,-10265.679673
854.823622,-444.123565,2294.638420,-9806.022374
854.823942,444.123565,888.247130,-10572.117872
854.824262,296.082377,-444.123565,-10112.460574
854.824582,0.000000,-1110.308913,-10801.946522
854.824902,-666.185348,-1554.432478,-10265.679673
854.825222,-666.185348,-666.185348,-9729.412825
854.825542,-1850.514855,-370.102971,-9652.803275
854.825862,-1554.432478,-222.061783,-9576.193725
854.826182,-740.205942,74.020594,-9729.412825
854.826502,-962.267725,148.041188,-9729.412825
854.826822,-666.185348,444.123565,-9882.631924
854.827142,370.102971,0.000000,-10035.851024
854.827462,1332.370696,-1332.370696,-9882.631924
854.827782,962.267725,-1110.308913,-9576.193725
854.828102,1184.329507,-444.123565,-9806.022374
854.828422,1924.535449,-1184.329507,-9806.022374
854.828742,1036.288319,-1332.370696,-10112.460574
854.829062,1036.288319,-962.267725,-9882.631924
854.829382,148.041188,-222.061783,-10572.117872
854.829702,0.000000,370.102971,-10035.851024
854.830022,-296.082377,1332.370696,-10418.898773
854.830342,666.185348,1036.288319,-10572.117872
854.830662,1628.453072,296.082377,-10265.679673
854.830982,1036.288319,0.000000,-10801.946522
854.831302,296.082377,-740.205942,-10495.508323
854.831622,740.205942,-1258.350101,-10572.117872
854.831942,1628.453072,-444.123565,-10265.679673
854.832262,1998.556043,222.061783,-10265.679673
854.832582,2072.576638,814.226536,-10725.336972
854.832902,1924.535449,1258.350101,-10495.508323
854.833222,0.000000,1184.329507,-10725.336972
854.833542,-1184.329507,666.185348,-10418.898773
854.833862,-888.247130,222.061783,-9806.022374
854.834182,1036.288319,-740.205942,-9882.631924
854.834502,2442.679609,-1776.494261,-8810.098227
854.834822,2960.823768,-1480.411884,-9806.022374
854.835142,1258.350101,-1850.514855,-9959.241474
854.835462,1110.308913,0.000000,-9959.241474
854.835782,1406.391290,1850.514855,-10265.679673
854.836102,0.000000,2590.720797,-9882.631924
854.836422,-222.061783,814.226536,-9499.584175
854.836742,1406.391290,-1110.308913,-9576.193725
854.837062,1628.453072,-2590.720797,-9729.412825
854.837382,1184.329507,-3330.926739,-9422.974625
854.837702,888.247130,-2072.576638,-9806.022374
854.838022,148.041188,370.102971,-10189.070123
854.838342,0.000000,1702.473667,-9806.022374
854.838662,-962.267725,2590.720797,-10112.460574
854.838982,370.102971,1406.391290,-10418.898773
854.839302,592.164754,444.123565,-10495.508323
854.839622,518.144159,296.082377,-10955.165621
854.839942,444.123565,0.000000,-10572.117872
854.840262,740.205942,148.041188,-10572.117872
854.840582,0.000000,370.102971,-10418.898773
854.840902,814.226536,74.020594,-10189.070123
854.841222,666.185348,888.247130,-10572.117872
854.841542,-1036.288319,1110.308913,-9576.193725
854.841862,-1332.370696,1406.391290,-10112.460574
854.842182,518.144159,1850.514855,-10418.898773
854.842502,1110.308913,1110.308913,-10265.679673
854.842822,518.144159,-518.144159,-9806.022374
854.843142,148.041188,-1184.329507,-9652.803275
854.843462,-148.041188,-1258.350101,-10112.460574
854.843782,444.123565,222.061783,-9729.412825
854.844102,1406.391290,2590.720797,-10342.289223
854.844422,1702.473667,3256.906145,-10342.289223
854.844742,1702.473667,2072.576638,-9652.803275
854.845062,370.102971,444.123565,-9806.022374
854.845382,370.102971,-888.247130,-9729.412825
854.845702,74.020594,-2072.576638,-9576.193725
854.846022,296.082377,-962.267725,-10035.851024
854.846342,666.185348,0.000000,-9499.584175
854.846662,444.123565,1406.391290,-9959.241474
854.846982,-962.267725,2368.659014,-9806.022374
854.847302,-814.226536,2220.617826,-9959.241474
854.847622,74.020594,1480.411884,-10648.727422
854.847942,370.102971,0.000000,-10112.460574
854.848262,518.144159,-1184.329507,-9959.241474
854.848582,740.205942,-1036.288319,-10112.460574
854.848902,518.144159,592.164754,-10418.898773
854.849223,444.123565,2738.761985,-10495.508323
854.849543,296.082377,3034.844362,-10495.508323
854.849863,1776.494261,2442.679609,-10418.898773
854.850183,1850.514855,1184.329507,-10801.946522
854.850503,518.144159,-888.247130,-10342.289223
854.850823,666.185348,-1776.494261,-9806.022374
854.851143,740.205942,-592.164754,-9806.022374
854.851463,0.000000,888.247130,-10342.289223
854.851783,296.082377,1184.329507,-9882.631924
854.852103,-296.082377,148.041188,-10265.679673
854.852423,962.267725,148.041188,-9806.022374
854.852743,592.164754,592.164754,-10418.898773
854.853063,-296.082377,1776.494261,-9806.022374
854.853383,-1258.350101,2368.659014,-10495.508323
854.853703,74.020594,962.267725,-9806.022374
854.854023,1628.453072,-888.247130,-10035.851024
854.854343,1184.329507,-3034.844362,-8503.660028
854.854663,592.164754,-2294.638420,-9652.803275
854.854983,1554.432478,-518.144159,-9806.022374
854.855303,1850.514855,2072.576638,-9959.241474
854.855623,1406.391290,2886.803174,-10035.851024
854.855943,370.102971,2072.576638,-9729.412825
854.856263,740.205942,-814.226536,-10035.851024
854.856583,888.247130,-2812.782580,-10112.460574
854.856903,1258.350101,-2516.700203,-9882.631924
854.857222,962.267725,-370.102971,-9882.631924
854.857542,-296.082377,1776.494261,-9959.241474
854.857862,-1332.370696,1776.494261,-10189.070123
854.858182,0.000000,0.000000,-9193.145976
854.858502,-592.164754,-1406.391290,-10265.679673
854.858822,74.020594,-592.164754,-10035.851024
854.859142,518.144159,0.000000,-10648.727422
854.859462,1332.370696,1480.411884,-10955.165621
854.859782,2072.576638,1776.494261,-10418.898773
854.860102,1036.288319,1036.288319,-11031.775171
854.860422,740.205942,0.000000,-10342.289223
854.860742,592.164754,-518.144159,-10189.070123
854.861062,1702.473667,0.000000,-10189.070123
854.861382,2220.617826,1258.350101,-10725.336972
854.861702,-148.041188,1258.350101,-10418.898773
854.862022,-1776.494261,518.144159,-9652.803275
854.862342,-1406.391290,-370.102971,-9806.022374
854.862662,444.123565,-1332.370696,-10189.070123
854.862982,1258.350101,-1998.556043,-10035.851024
854.863301,1554.432478,-444.123565,-10112.460574
854.863621,1184.329507,370.102971,-10265.679673
854.863941,-592.164754,1776.494261,-9882.631924
854.864261,-518.144159,1184.329507,-10035.851024
854.864581,1332.370696,74.020594,-9652.803275
854.864901,2072.576638,74.020594,-10112.460574
854.865221,518.144159,0.000000,-10189.070123
854.865541,666.185348,-592.164754,-9959.241474
854.865861,1924.535449,-962.267725,-9193.145976
854.866181,370.102971,0.000000,-9806.022374
854.866501,-1036.288319,444.123565,-9959.241474
854.866821,-1184.329507,296.082377,-9806.022374
854.867141,-444.123565,740.205942,-10725.336972
854.867461,0.000000,296.082377,-10495.508323
854.867781,1332.370696,-370.102971,-10035.851024
854.868101,740.205942,-148.041188,-10265.679673
854.868421,-370.102971,-222.061783,-10035.851024
854.868741,0.000000,444.123565,-10572.117872
854.869061,0.000000,1406.391290,-10648.727422
854.869380,-222.061783,962.267725,-10035.851024
854.869700,-814.226536,592.164754,-10342.289223
854.870020,-666.185348,222.061783,-9346.365076
854.870340,222.061783,1036.288319,-10265.679673
854.870660,962.267725,666.185348,-10189.070123
854.870980,0.000000,0.000000,-9576.193725
854.871300,0.000000,-1036.288319,-9576.193725
854.871620,814.226536,-518.144159,-9959.241474
854.871940,1258.350101,444.123565,-10725.336972
854.872260,74.020594,1776.494261,-10265.679673
854.872580,-518.144159,2664.741391,-10495.508323
854.872900,666.185348,2664.741391,-9959.241474
854.873220,962.267725,1036.288319,-10035.851024
854.873540,0.000000,-666.185348,-9959.241474
854.873860,0.000000,-1110.308913,-9882.631924
854.874180,444.123565,-814.226536,-9959.241474
854.874500,1554.432478,592.164754,-9729.412825
854.874820,1406.391290,2220.617826,-9652.803275
854.875140,740.205942,2886.803174,-9959.241474
854.875459,962.267725,1480.411884,-9806.022374
854.875779,1184.329507,518.144159,-9576.193725
854.876099,1406.391290,-740.205942,-10112.460574
854.876419,1850.514855,-1406.391290,-9652.803275
854.876739,962.267725,-296.082377,-10112.460574
854.877059,0.000000,222.061783,-9576.193725
854.877379,370.102971,2146.597232,-9806.022374
854.877699,-148.041188,2590.720797,-9806.022374
854.878019,0.000000,1480.411884,-10112.460574
854.878339,2072.576638,1184.329507,-10418.898773
854.878659,3552.988522,222.061783,-11644.651570
854.878979,2442.679609,-370.102971,-9959.241474
854.879299,1332.370696,740.205942,-10342.289223
854.879619,592.164754,1110.308913,-10035.851024
854.879939,1258.350101,1702.473667,-10035.851024
854.880259,592.164754,592.164754,-9882.631924
854.880579,-814.226536,-370.102971,-10418.898773
854.880899,-814.226536,-444.123565,-9806.022374
854.881219,-222.061783,222.061783,-9882.631924
854.881538,0.000000,1554.432478,-10418.898773
854.881858,0.000000,444.123565,-10189.070123
854.882178,740.205942,-370.102971,-9959.241474
854.882498,888.247130,-666.185348,-10495.508323
854.882818,2960.823768,-518.144159,-10572.117872
854.883138,2960.823768,370.102971,-10801.946522
854.883458,2442.679609,1184.329507,-10265.679673
854.883778,1776.494261,1332.370696,-9806.022374
854.884098,814.226536,148.041188,-10342.289223
854.884418,148.041188,-1702.473667,-10189.070123
854.884738,-444.123565,-1628.453072,-9882.631924
854.885058,-518.144159,74.020594,-10648.727422
854.885378,-1480.411884,1850.514855,-10112.460574
854.885698,-1406.391290,2146.597232,-10112.460574
854.886018,0.000000,1258.350101,-9806.022374
854.886338,518.144159,0.000000,-10342.289223
854.886658,148.041188,-1702.473667,-9959.241474
854.886978,148.041188,-1776.494261,-10112.460574
854.887298,518.144159,-1110.308913,-10801.946522
854.887617,222.061783,296.082377,-9959.241474
854.887937,-1184.329507,1480.411884,-9806.022374
854.888257,-1702.473667,888.247130,-9882.631924
854.888577,-1184.329507,0.000000,-8963.317327
854.888897,444.123565,-1184.329507,-9882.631924
854.889217,2516.700203,-2220.617826,-9882.631924
854.889537,2738.761985,-2146.597232,-10112.460574
854.889857,1628.453072,-518.144159,-9959.241474
854.890177,888.247130,-370.102971,-10035.851024
854.890497,296.082377,1110.308913,-10648.727422
854.890817,-814.226536,1332.370696,-10189.070123
854.891137,-2294.638420,592.164754,-10112.460574
854.891457,-1406.391290,1258.350101,-9806.022374
854.891777,74.020594,-592.164754,-10495.508323
854.892097,1406.391290,-666.185348,-10342.289223
854.892417,1110.308913,-740.205942,-10725.336972
854.892737,296.082377,0.000000,-10495.508323
854.893057,0.000000,1480.411884,-10342.289223
854.893377,592.164754,1628.453072,-10955.165621
854.893696,888.247130,1998.556043,-10801.946522
854.894016,74.020594,1554.432478,-10112.460574
854.894336,0.000000,1776.494261,-10112.460574
854.894656,1628.453072,814.226536,-9652.803275
854.894976,2368.659014,592.164754,-10418.898773
854.895296,1406.391290,0.000000,-10418.898773
854.895616,1776.494261,-518.144159,-9806.022374
854.895936,888.247130,-666.185348,-10648.727422
854.896256,-1110.308913,444.123565,-9499.584175
854.896576,-888.247130,1702.473667,-9806.022374
854.896896,-148.041188,2516.700203,-9882.631924
854.897216,1332.370696,1776.494261,-9806.022374
854.897536,2516.700203,888.247130,-9959.241474
854.897856,3182.885551,0.000000,-9882.631924
854.898176,1480.411884,-740.205942,-9806.022374
854.898496,888.247130,-740.205942,-9499.584175
854.898816,888.247130,0.000000,-9039.926876
854.899136,1258.350101,74.020594,-9806.022374
854.899456,592.164754,-148.041188,-9882.631924
854.899775,-222.061783,0.000000,-9806.022374
854.900095,1184.329507,2516.700203,-10801.946522
854.900415,1850.514855,2738.761985,-10495.508323
854.900735,814.226536,2590.720797,-10265.679673
854.901055,222.061783,1406.391290,-10495.508323
854.901375,148.041188,-740.205942,-10035.851024
854.901695,1184.329507,-2072.576638,-10265.679673
854.902015,1110.308913,-1332.370696,-10418.898773
854.902335,370.102971,666.185348,-10342.289223
854.902655,-962.267725,2590.720797,-10495.508323
854.902975,0.000000,3701.029710,-10418.898773
854.903295,1332.370696,2220.617826,-10495.508323
854.903615,592.164754,666.185348,-10265.679673
854.903935,666.185348,-666.185348,-10189.070123
854.904255,888.247130,-740.205942,-10572.117872
854.904575,0.000000,-222.061783,-9959.241474
854.904895,-1258.350101,-148.041188,-9729.412825
854.905215,-1998.556043,740.205942,-9806.022374
854.905535,-444.123565,444.123565,-9806.022374
854.905854,444.123565,-74.020594,-11568.042020
854.906174,1110.308913,-222.061783,-9882.631924
854.906494,1406.391290,74.020594,-9652.803275
854.906814,1998.556043,74.020594,-9576.193725
854.907134,1258.350101,-148.041188,-9422.974625
854.907454,1110.308913,-1110.308913,-9959.241474
854.907774,-370.102971,-740.205942,-9806.022374
854.908094,-444.123565,-1332.370696,-9806.022374
854.908414,0.000000,-814.226536,-9576.193725
854.908734,888.247130,1184.329507,-10035.851024
854.909054,592.164754,1110.308913,-9959.241474
854.909374,1184.329507,1184.329507,-10112.460574
854.909694,814.226536,370.102971,-10189.070123
854.910014,0.000000,-74.020594,-10955.165621
854.910334,-666.185348,-1480.411884,-10265.679673
854.910654,-370.102971,-1998.556043,-10112.460574
854.910974,888.247130,-370.102971,-10418.898773
854.911294,1554.432478,1776.494261,-10342.289223
854.911614,2368.659014,1998.556043,-10955.165621
854.911933,1406.391290,1110.308913,-10801.946522
854.912253,-222.061783,-296.082377,-10035.851024
854.912573,370.102971,-1036.288319,-10189.070123
854.912893,1258.350101,-814.226536,-10035.851024
854.913213,0.000000,0.000000,-10495.508323
854.913533,-1554.432478,666.185348,-10035.851024
854.913853,0.000000,1184.329507,-10418.898773
854.914173,666.185348,296.082377,-10342.289223
854.914493,666.185348,-740.205942,-10342.289223
854.914813,0.000000,-814.226536,-9882.631924
854.915133,666.185348,444.123565,-10725.336972
854.915453,1554.432478,1258.350101,-9806.022374
854.915773,1036.288319,1110.308913,-8733.488677
854.916093,1258.350101,-444.123565,-9882.631924
854.916413,-592.164754,518.144159,-9806.022374
854.916733,-1332.370696,0.000000,-9576.193725
854.917053,0.000000,-370.102971,-9576.193725
854.917373,1110.308913,740.205942,-10112.460574
854.917693,-222.061783,1110.308913,-9806.022374
854.918012,0.000000,1258.350101,-9806.022374
854.918332,1184.329507,1258.350101,-10189.070123
854.918652,74.020594,1110.308913,-10342.289223
854.918972,0.000000,-814.226536,-9806.022374
854.919292,518.144159,-740.205942,-9882.631924
854.919612,2368.659014,370.102971,-10112.460574
854.919932,2738.761985,1776.494261,-9806.022374
854.920252,2368.659014,3034.844362,-10801.946522
854.920572,1628.453072,2812.782580,-10495.508323
854.920892,518.144159,814.226536,-10265.679673
854.921212,0.000000,-518.144159,-10265.679673
854.921532,1406.391290,-1184.329507,-10725.336972
854.921852,0.000000,-666.185348,-10189.070123
854.922172,518.144159,296.082377,-10495.508323
854.922492,1628.453072,1850.514855,-10189.070123
854.922812,592.164754,2664.741391,-9882.631924
854.923132,222.061783,1110.308913,-10342.289223
854.923452,814.226536,0.000000,-10189.070123
854.923772,962.267725,-370.102971,-10035.851024
854.924091,1406.391290,-370.102971,-9806.022374
854.924411,1554.432478,296.082377,-9806.022374
854.924731,888.247130,0.000000,-10035.851024
854.925051,-518.144159,-222.061783,-10035.851024
854.925371,-1480.411884,0.000000,-9882.631924
854.925691,-444.123565,148.041188,-9882.631924
854.926011,666.185348,1036.288319,-10035.851024
854.926331,1258.350101,1110.308913,-9959.241474
854.926651,1110.308913,0.000000,-9882.631924
854.926971,1406.391290,518.144159,-10265.679673
854.927291,-444.123565,-1258.350101,-9499.584175
854.927611,-592.164754,-1480.411884,-9652.803275
854.927931,0.000000,-592.164754,-10342.289223
854.928251,0.000000,1184.329507,-9959.241474
854.928571,-1036.288319,2812.782580,-10495.508323
854.928891,-888.247130,2368.659014,-10265.679673
854.929211,-740.205942,888.247130,-9882.631924
854.929531,-740.205942,-1554.432478,-9729.412825
854.929851,296.082377,-2738.761985,-9806.022374
854.930170,1406.391290,-1998.556043,-10035.851024
854.930490,1554.432478,-1110.308913,-9806.022374
854.930810,1628.453072,296.082377,-10342.289223
854.931130,2294.638420,814.226536,-10189.070123
854.931450,1036.288319,888.247130,-10035.851024
854.931770,-814.226536,666.185348,-9806.022374
854.932090,0.000000,740.205942,-10189.070123
854.932410,0.000000,-222.061783,-10725.336972
854.932730,-370.102971,-518.144159,-9959.241474
854.933050,-1258.350101,-2516.700203,-9806.022374
854.933370,0.000000,-2442.679609,-9806.022374
854.933690,592.164754,-1332.370696,-9729.412825
854.934010,148.041188,0.000000,-10725.336972
854.934330,-518.144159,1480.411884,-10648.727422
854.934650,-1036.288319,2294.638420,-10572.117872
854.934970,-148.041188,1924.535449,-10418.898773
854.935290,592.164754,0.000000,-10648.727422
854.935610,1480.411884,-2146.597232,-10112.460574
854.935930,962.267725,-1702.473667,-10495.508323
854.936249,1776.494261,-962.267725,-10955.165621
854.936569,2664.741391,1036.288319,-10878.556072
854.936889,1036.288319,1924.535449,-10572.117872
854.937209,444.123565,2368.659014,-10878.556072
854.937529,222.061783,2664.741391,-10265.679673
854.937849,370.102971,1110.308913,-10342.289223
854.938169,-444.123565,-296.082377,-10112.460574
854.938489,222.061783,-1258.350101,-8963.317327
854.938809,222.061783,-1184.329507,-9806.022374
854.939129,-592.164754,-1258.350101,-9499.584175
854.939449,0.000000,518.144159,-9806.022374
854.939769,888.247130,1332.370696,-9882.631924
854.940089,2368.659014,2294.638420,-9269.755526
854.940409,2590.720797,2664.741391,-10035.851024
854.940729,2590.720797,1406.391290,-10112.460574
854.941049,2220.617826,518.144159,-9652.803275
854.941369,2664.741391,-666.185348,-9806.022374
854.941689,2812.782580,-1850.514855,-9499.584175
854.942008,1184.329507,-1406.391290,-9499.584175
854.942328,444.123565,814.226536,-9882.631924
854.942648,740.205942,3034.844362,-9882.631924
854.942968,1924.535449,4367.215058,-11491.432470
854.943288,1776.494261,3330.926739,-10189.070123
854.943608,666.185348,2664.741391,-10878.556072
854.943928,148.041188,888.247130,-9882.631924
854.944248,888.247130,-1036.288319,-9422.974625
854.944568,814.226536,-148.041188,-9806.022374
854.944888,0.000000,0.000000,-9422.974625
854.945208,74.020594,1628.453072,-10342.289223
854.945528,888.247130,1998.556043,-9806.022374
854.945848,1776.494261,1332.370696,-10189.070123
854.946168,2368.659014,1036.288319,-10035.851024
854.946488,1036.288319,518.144159,-9806.022374
854.946808,1036.288319,370.102971,-10342.289223
854.947128,666.185348,222.061783,-10112.460574
854.947448,666.185348,740.205942,-10342.289223
854.947768,-814.226536,222.061783,-9806.022374
854.948087,-1776.494261,0.000000,-10265.679673
854.948407,-1332.370696,0.000000,-10035.851024
854.948727,-1258.350101,296.082377,-9806.022374
854.949047,-888.247130,296.082377,-10189.070123
854.949367,-666.185348,666.185348,-10648.727422
854.949687,-1554.432478,962.267725,-10342.289223
854.950007,-740.205942,0.000000,-10035.851024
854.950327,518.144159,222.061783,-9959.241474
854.950647,1184.329507,-666.185348,-10495.508323
854.950967,0.000000,-1406.391290,-10495.508323
854.951287,444.123565,-814.226536,-10495.508323
854.951607,1258.350101,444.123565,-10955.165621
854.951927,962.267725,444.123565,-9729.412825
854.952247,-222.061783,1184.329507,-10265.679673
854.952567,-740.205942,-518.144159,-9806.022374
854.952887,-444.123565,-1924.535449,-10342.289223
854.953207,-1702.473667,-2664.741391,-9422.974625
854.953527,0.000000,-1776.494261,-9806.022374
854.953847,1036.288319,-296.082377,-9882.631924
854.954166,814.226536,0.000000,-10112.460574
854.954486,888.247130,444.123565,-10342.289223
854.954806,962.267725,-740.205942,-10112.460574
854.955126,666.185348,-962.267725,-10265.679673
854.955446,-1554.432478,-1776.494261,-10189.070123
854.955766,-888.247130,-740.205942,-10342.289223
854.956086,-1258.350101,148.041188,-9806.022374
854.956406,0.000000,-592.164754,-10112.460574
854.956726,740.205942,-1850.514855,-10572.117872
854.957046,814.226536,-592.164754,-10495.508323
854.957366,592.164754,148.041188,-10265.679673
854.957686,1332.370696,148.041188,-10495.508323
854.958006,1184.329507,1110.308913,-10725.336972
854.958326,814.226536,740.205942,-10189.070123
854.958646,1332.370696,148.041188,-10265.679673
854.958966,1628.453072,-814.226536,-10572.117872
854.959286,222.061783,-740.205942,-10189.070123
854.959605,0.000000,-370.102971,-10418.898773
854.959925,666.185348,296.082377,-10189.070123
854.960245,888.247130,518.144159,-10725.336972
854.960565,1184.329507,740.205942,-9959.241474
854.960885,148.041188,370.102971,-9729.412825
854.961205,0.000000,1480.411884,-10189.070123
854.961525,1850.514855,740.205942,-9806.022374
854.961845,2442.679609,888.247130,-10342.289223
854.962165,3108.864956,74.020594,-10112.460574
854.962485,2368.659014,74.020594,-9806.022374
854.962805,814.226536,1332.370696,-9729.412825
854.963125,1036.288319,1258.350101,-9806.022374
854.963445,1480.411884,1406.391290,-10035.851024
854.963765,1850.514855,1110.308913,-10035.851024
854.964084,1036.288319,1184.329507,-9806.022374
854.964404,740.205942,1480.411884,-9806.022374
854.964724,296.082377,1480.411884,-9729.412825
854.965044,-296.082377,1850.514855,-10112.460574
854.965364,222.061783,2072.576638,-10035.851024
854.965684,814.226536,1628.453072,-10418.898773
854.966004,1184.329507,962.267725,-9959.241474
854.966324,1406.391290,-518.144159,-9576.193725
854.966644,888.247130,666.185348,-10418.898773
854.966964,-592.164754,962.267725,-9576.193725
854.967284,0.000000,1776.494261,-10418.898773
854.967604,962.267725,1554.432478,-9806.022374
854.967924,1554.432478,962.267725,-10495.508323
854.968244,1184.329507,888.247130,-10112.460574
854.968563,148.041188,962.267725,-10495.508323
854.968883,-962.267725,1554.432478,-10265.679673
854.969203,-1332.370696,1036.288319,-10418.898773
854.969523,-1110.308913,518.144159,-9959.241474
854.969843,-370.102971,-222.061783,-10342.289223
854.970163,-222.061783,444.123565,-10648.727422
854.970483,518.144159,740.205942,-10801.946522
854.970803,2590.720797,1776.494261,-10342.289223
854.971123,1850.514855,1998.556043,-10035.851024
854.971443,0.000000,1776.494261,-10572.117872
854.971763,-370.102971,222.061783,-10035.851024
854.972083,-814.226536,-1406.391290,-9193.145976
854.972403,1480.411884,-1702.473667,-9576.193725
854.972723,2294.638420,-1036.288319,-10572.117872
854.973042,814.226536,-888.247130,-9806.022374
854.973362,518.144159,-666.185348,-9499.584175
854.973682,296.082377,-592.164754,-9346.365076
854.974002,1184.329507,-962.267725,-9729.412825
854.974322,740.205942,-444.123565,-9806.022374
854.974642,-148.041188,-148.041188,-10112.460574
854.974962,-592.164754,-370.102971,-9806.022374
854.975282,296.082377,-444.123565,-9806.022374
854.975602,-148.041188,-518.144159,-9882.631924
854.975922,370.102971,-888.247130,-9576.193725
854.976242,814.226536,-444.123565,-10418.898773
854.976562,814.226536,-666.185348,-10342.289223
854.976882,-444.123565,-740.205942,-10955.165621
854.977201,-962.267725,-222.061783,-11031.775171
854.977521,-2368.659014,-370.102971,-10265.679673
854.977841,-1332.370696,1406.391290,-10342.289223
854.978161,1110.308913,1258.350101,-10801.946522
854.978481,2812.782580,222.061783,-10878.556072
854.978801,2072.576638,-1184.329507,-10572.117872
854.979121,2072.576638,-1628.453072,-10725.336972
854.979441,1702.473667,0.000000,-10648.727422
854.979761,-370.102971,888.247130,-10342.289223
854.980081,-740.205942,1332.370696,-10342.289223
854.980401,-222.061783,888.247130,-10495.508323
854.980721,-444.123565,-222.061783,-10035.851024
854.981041,222.061783,-962.267725,-10112.460574
854.981361,1998.556043,-1332.370696,-10189.070123
854.981680,296.082377,-740.205942,-9806.022374
854.982000,0.000000,0.000000,-9576.193725
854.982320,-740.205942,-592.164754,-8963.317327
854.982640,-370.102971,518.144159,-9729.412825
854.982960,1110.308913,740.205942,-9346.365076
854.983280,2220.617826,1110.308913,-10035.851024
854.983600,2960.823768,666.185348,-9806.022374
854.983920,1924.535449,518.144159,-9729.412825
854.984240,296.082377,444.123565,-9806.022374
854.984560,444.123565,-1036.288319,-9346.365076
854.984880,518.144159,-888.247130,-10112.460574
854.985200,222.061783,-370.102971,-9959.241474
854.985520,370.102971,1332.370696,-10035.851024
854.985840,592.164754,2220.617826,-10495.508323
854.986159,296.082377,1702.473667,-9882.631924
854.986479,-370.102971,1480.411884,-10648.727422
854.986799,-370.102971,0.000000,-10265.679673
854.987119,518.144159,-518.144159,-10495.508323
854.987439,1184.329507,-148.041188,-10418.898773
854.987759,2146.597232,1998.556043,-10801.946522
854.988079,1110.308913,3330.926739,-10648.727422
854.988399,0.000000,1850.514855,-10495.508323
854.988719,0.000000,1776.494261,-10265.679673
854.989039,962.267725,1702.473667,-10648.727422
854.989359,1776.494261,2220.617826,-10112.460574
854.989679,1776.494261,2368.659014,-10878.556072
854.989999,2072.576638,666.185348,-10265.679673
854.990318,1184.329507,-148.041188,-9806.022374
854.990638,0.000000,-1480.411884,-9806.022374
854.990958,296.082377,-1924.535449,-9269.755526
854.991278,296.082377,-592.164754,-9576.193725
854.991598,0.000000,1628.453072,-9882.631924
854.991918,-74.020594,2368.659014,-10112.460574
854.992238,296.082377,2072.576638,-10035.851024
854.992558,74.020594,1850.514855,-9959.241474
854.992878,-370.102971,666.185348,-9882.631924
854.993198,666.185348,-962.267725,-9806.022374
854.993518,222.061783,-1110.308913,-9806.022374
854.993838,296.082377,-1332.370696,-9652.803275
854.994158,0.000000,-518.144159,-9729.412825
854.994478,-296.082377,740.205942,-10189.070123
854.994797,-148.041188,1998.556043,-10265.679673
854.995117,888.247130,2812.782580,-10035.851024
854.995437,1702.473667,1702.473667,-10189.070123
854.995757,1480.411884,-740.205942,-10418.898773
854.996077,0.000000,-2146.597232,-9959.241474
854.996397,-518.144159,-2072.576638,-10035.851024
854.996717,148.041188,-592.164754,-10189.070123
854.997037,-370.102971,1184.329507,-9806.022374
854.997357,0.000000,962.267725,-10495.508323
854.997677,222.061783,1406.391290,-10725.336972
854.997997,444.123565,370.102971,-10112.460574
854.998317,-222.061783,-444.123565,-10801.946522
854.998637,148.041188,-740.205942,-10112.460574
854.998957,0.000000,666.185348,-10725.336972
854.999276,-148.041188,666.185348,-10418.898773
854.999596,0.000000,-296.082377,-10112.460574
854.999916,0.000000,-1776.494261,-9806.022374
855.000236,296.082377,-1776.494261,-10112.460574
855.000556,666.185348,-1184.329507,-9806.022374
855.000876,2146.597232,1258.350101,-10572.117872
855.001196,0.000000,1480.411884,-9652.803275
855.001516,-444.123565,1702.473667,-10342.289223
855.001836,-296.082377,148.041188,-9882.631924
855.002156,962.267725,-1258.350101,-9729.412825
855.002476,1184.329507,-518.144159,-10035.851024
855.002796,-444.123565,-666.185348,-9882.631924
855.003116,370.102971,1036.288319,-10112.460574
855.003435,296.082377,888.247130,-9499.584175
855.003755,1110.308913,962.267725,-10035.851024
855.004075,666.185348,0.000000,-9882.631924
855.004395,0.000000,666.185348,-10418.898773
855.004715,740.205942,814.226536,-10035.851024
855.005035,2812.782580,1480.411884,-10648.727422
855.005355,1406.391290,2220.617826,-10189.070123
855.005675,740.205942,1554.432478,-11031.775171
855.005995,1480.411884,740.205942,-10495.508323
855.006315,1554.432478,-740.205942,-9959.241474
855.006635,2368.659014,370.102971,-10189.070123
855.006955,1110.308913,1850.514855,-9882.631924
855.007275,-296.082377,444.123565,-10265.679673
855.007595,-296.082377,1702.473667,-10342.289223
855.007914,-1036.288319,2072.576638,-10342.289223
855.008234,1036.288319,1110.308913,-10112.460574
855.008554,1480.411884,74.020594,-9959.241474
855.008874,666.185348,1332.370696,-10572.117872
855.009194,1258.350101,1332.370696,-9882.631924
855.009514,2146.597232,1702.473667,-10648.727422
855.009834,1628.453072,592.164754,-9116.536426
855.010154,1184.329507,518.144159,-9959.241474
855.010474,1776.494261,1110.308913,-10265.679673
855.010794,1480.411884,444.123565,-10189.070123
855.011114,148.041188,148.041188,-9729.412825
855.011434,1184.329507,1406.391290,-10112.460574
855.011754,518.144159,518.144159,-9499.584175
855.012074,1110.308913,370.102971,-10035.851024
855.012393,1554.432478,370.102971,-9576.193725
855.012713,148.041188,296.082377,-9499.584175
855.013033,-296.082377,-1776.494261,-9576.193725
855.013353,814.226536,-1110.308913,-9882.631924
855.013673,1850.514855,0.000000,-9652.803275
855.013993,1332.370696,-592.164754,-9729.412825
855.014313,-296.082377,0.000000,-9499.584175
855.014633,-1184.329507,-592.164754,-9959.241474
855.014953,-1332.370696,370.102971,-9959.241474
855.015273,0.000000,-1184.329507,-9959.241474
855.015593,962.267725,-814.226536,-11874.480219
855.015913,-148.041188,-444.123565,-10035.851024
855.016233,0.000000,-1480.411884,-10495.508323
855.016553,-1036.288319,-2442.679609,-10035.851024
855.016872,-148.041188,-296.082377,-10801.946522
855.017192,-1036.288319,0.000000,-10725.336972
855.017512,-444.123565,74.020594,-11031.775171
855.017832,-1110.308913,-1332.370696,-10112.460574
855.018152,-1406.391290,-222.061783,-10955.165621
855.018472,-1554.432478,-518.144159,-10265.679673
855.018792,-1850.514855,-1036.288319,-10801.946522
855.019112,-2294.638420,-1258.350101,-10342.289223
855.019432,-962.267725,-1110.308913,-10265.679673
855.019752,-1036.288319,-370.102971,-10878.556072
855.020072,1480.411884,-592.164754,-10495.508323
855.020392,1628.453072,0.000000,-10572.117872
855.020712,444.123565,0.000000,-10189.070123
855.021031,1184.329507,-888.247130,-10342.289223
855.021351,1110.308913,-518.144159,-9269.755526
855.021671,296.082377,-370.102971,-9806.022374
855.021991,74.020594,296.082377,-10495.508323
855.022311,-222.061783,1036.288319,-9959.241474
855.022631,518.144159,592.164754,-9576.193725
855.022951,1110.308913,296.082377,-9193.145976
855.023271,1406.391290,-1036.288319,-9882.631924
855.023591,1110.308913,-1628.453072,-9269.755526
855.023911,1258.350101,148.041188,-9422.974625
855.024231,1776.494261,814.226536,-9193.145976
855.024551,2072.576638,740.205942,-9729.412825
855.024871,148.041188,1702.473667,-9346.365076
855.025191,-444.123565,518.144159,-9652.803275
855.025510,666.185348,-296.082377,-9652.803275
855.025830,1332.370696,0.000000,-9806.022374
855.026150,1406.391290,592.164754,-10342.289223
855.026470,1554.432478,1924.535449,-10495.508323
855.026790,3404.947333,3627.009116,-10648.727422
855.027110,5329.482782,2146.597232,-10725.336972
855.027430,5477.523971,3108.864956,-10265.679673
855.027750,3330.926739,2368.659014,-10725.336972
855.028070,1702.473667,1184.329507,-10342.289223
855.028390,888.247130,592.164754,-10112.460574
855.028710,74.020594,0.000000,-10418.898773
855.029030,-740.205942,0.000000,-9806.022374
855.029350,-370.102971,740.205942,-10189.070123
855.029670,222.061783,2368.659014,-10648.727422
855.029989,148.041188,2368.659014,-9806.022374
855.030309,0.000000,2294.638420,-10648.727422
855.030629,-148.041188,1628.453072,-10189.070123
855.030949,74.020594,740.205942,-10112.460574
855.031269,370.102971,370.102971,-9499.584175
855.031589,148.041188,888.247130,-9959.241474
855.031909,74.020594,1554.432478,-10342.289223
855.032229,296.082377,888.247130,-9806.022374
855.032549,444.123565,1332.370696,-9806.022374
855.032869,592.164754,1332.370696,-9959.241474
855.033189,-222.061783,1110.308913,-9806.022374
855.033509,222.061783,1036.288319,-10112.460574
855.033829,666.185348,592.164754,-9269.755526
855.034148,-74.020594,444.123565,-10725.336972
855.034468,-518.144159,-370.102971,-9576.193725
855.034788,-592.164754,-518.144159,-9806.022374
855.035108,0.000000,0.000000,-9806.022374
855.035428,666.185348,888.247130,-9806.022374
855.035748,444.123565,1924.535449,-10418.898773
855.036068,518.144159,740.205942,-10648.727422
855.036388,-592.164754,296.082377,-9652.803275
855.036708,-962.267725,-740.205942,-10342.289223
855.037028,444.123565,-2072.576638,-9882.631924
855.037348,1184.329507,0.000000,-10189.070123
855.037668,962.267725,592.164754,-10418.898773
855.037988,148.041188,962.267725,-9882.631924
855.038308,962.267725,592.164754,-10495.508323
855.038627,1110.308913,-666.185348,-10112.460574
855.038947,-296.082377,-888.247130,-10648.727422
855.039267,-962.267725,-1184.329507,-10342.289223
855.039587,-222.061783,222.061783,-9806.022374
855.039907,-148.041188,2220.617826,-10342.289223
855.040227,1406.391290,-518.144159,-10648.727422
855.040547,1258.350101,-1924.535449,-9806.022374
855.040867,370.102971,-2442.679609,-9652.803275
855.041187,-666.185348,-962.267725,-10342.289223
855.041507,74.020594,74.020594,-10112.460574
855.041827,296.082377,-148.041188,-9882.631924
855.042147,-592.164754,-740.205942,-10418.898773
855.042467,0.000000,-1850.514855,-9499.584175
855.042787,-148.041188,-2072.576638,-10342.289223
855.043106,370.102971,-1258.350101,-9806.022374
855.043426,1110.308913,0.000000,-10112.460574
855.043746,1554.432478,1184.329507,-10572.117872
855.044066,1628.453072,740.205942,-9576.193725
855.044386,814.226536,296.082377,-10035.851024
855.044706,1258.350101,222.061783,-10648.727422
855.045026,2220.617826,0.000000,-10189.070123
855.045346,2738.761985,1036.288319,-10342.289223
855.045666,1406.391290,1110.308913,-9729.412825
855.045986,518.144159,444.123565,-9806.022374
855.046306,296.082377,74.020594,-9806.022374
855.046626,888.247130,-296.082377,-10112.460574
855.046946,2220.617826,1776.494261,-9882.631924
855.047265,1332.370696,1628.453072,-10572.117872
855.047585,148.041188,2220.617826,-10342.289223
855.047905,148.041188,1776.494261,-10572.117872
855.048225,444.123565,1776.494261,-9882.631924
855.048545,296.082377,1924.535449,-9729.412825
855.048865,1184.329507,592.164754,-10265.679673
855.049185,740.205942,0.000000,-10112.460574
855.049505,592.164754,-518.144159,-10189.070123
855.049825,-148.041188,-148.041188,-9652.803275
855.050145,666.185348,1110.308913,-9729.412825
855.050465,0.000000,2220.617826,-9422.974625
855.050785,-1480.411884,2368.659014,-9806.022374
855.051105,-666.185348,2072.576638,-9882.631924
855.051425,370.102971,296.082377,-9499.584175
855.051744,1332.370696,-444.123565,-9806.022374
855.052064,1406.391290,-814.226536,-9729.412825
855.052384,148.041188,0.000000,-9806.022374
855.052704,-444.123565,1036.288319,-9806.022374
855.053024,-740.205942,962.267725,-9576.193725
855.053344,-888.247130,888.247130,-9729.412825
855.053664,-814.226536,148.041188,-9652.803275
855.053984,-370.102971,222.061783,-10495.508323
855.054304,370.102971,148.041188,-10418.898773
855.054624,740.205942,74.020594,-10189.070123
855.054944,1036.288319,148.041188,-9959.241474
855.055264,1332.370696,-666.185348,-10112.460574
855.055584,-296.082377,-740.205942,-10265.679673
855.055904,-592.164754,74.020594,-9959.241474
855.056223,444.123565,518.144159,-10418.898773
855.056543,1036.288319,1036.288319,-10418.898773
855.056863,1036.288319,592.164754,-10342.289223
855.057183,666.185348,0.000000,-9882.631924
855.057503,0.000000,-1332.370696,-10035.851024
855.057823,740.205942,-666.185348,-10265.679673
855.058143,1480.411884,-666.185348,-10112.460574
855.058463,1628.453072,148.041188,-11644.651570
855.058783,1406.391290,222.061783,-10265.679673
855.059103,222.061783,592.164754,-10035.851024
855.059423,148.041188,370.102971,-10112.460574
855.059743,1628.453072,148.041188,-10189.070123
855.060063,1776.494261,-1036.288319,-10189.070123
855.060383,444.123565,-1924.535449,-9959.241474
855.060702,74.020594,-1850.514855,-9729.412825
855.061022,592.164754,-1110.308913,-9652.803275
855.061342,0.000000,814.226536,-10035.851024
855.061662,-1258.350101,370.102971,-9576.193725
855.061982,-1184.329507,0.000000,-9882.631924
855.062302,0.000000,-666.185348,-9806.022374
855.062622,962.267725,-444.123565,-9959.241474
855.062942,592.164754,-666.185348,-10035.851024
855.063262,0.000000,-1406.391290,-9499.584175
855.063582,0.000000,-1036.288319,-9576.193725
855.063902,-666.185348,74.020594,-9806.022374
855.064222,222.061783,370.102971,-10418.898773
855.064542,518.144159,0.000000,-9729.412825
855.064862,1110.308913,-1406.391290,-10342.289223
855.065182,296.082377,370.102971,-9959.241474
855.065501,-666.185348,962.267725,-9576.193725
855.065821,-814.226536,1036.288319,-10189.070123
855.066141,-888.247130,1184.329507,-10265.679673
855.066461,-1406.391290,-888.247130,-10189.070123
855.066781,-222.061783,-814.226536,-10418.898773
855.067101,1036.288319,-148.041188,-10035.851024
855.067421,518.144159,2886.803174,-10801.946522
855.067741,962.267725,5033.400406,-10648.727422
855.068061,666.185348,4441.235652,-11108.384721
855.068381,2294.638420,2812.782580,-10112.460574
855.068701,0.000000,-1332.370696,-9806.022374
855.069021,-518.144159,-2220.617826,-9959.241474
855.069341,444.123565,-370.102971,-10189.070123
855.069661,1850.514855,1110.308913,-9729.412825
855.069981,2812.782580,2146.597232,-9959.241474
855.070300,2812.782580,1554.432478,-9806.022374
855.070620,962.267725,1924.535449,-9959.241474
855.070940,-74.020594,1776.494261,-10418.898773
855.071260,1036.288319,2590.720797,-9652.803275
855.071580,2368.659014,3108.864956,-10572.117872
855.071900,1480.411884,1406.391290,-9729.412825
855.072220,1332.370696,-370.102971,-10112.460574
855.072540,592.164754,-814.226536,-9806.022374
855.072860,962.267725,-296.082377,-9806.022374
855.073180,1480.411884,592.164754,-10035.851024
855.073500,1776.494261,1332.370696,-10495.508323
855.073820,-1036.288319,2960.823768,-9882.631924
855.074140,-1258.350101,2960.823768,-9959.241474
855.074460,-888.247130,444.123565,-9729.412825
855.074780,592.164754,-370.102971,-9806.022374
855.075100,740.205942,-666.185348,-9882.631924
855.075419,888.247130,-370.102971,-10265.679673
855.075739,1702.473667,148.041188,-9959.241474
855.076059,1998.556043,1850.514855,-10495.508323
855.076379,666.185348,1924.535449,-9729.412825
855.076699,1184.329507,518.144159,-9806.022374
855.077019,1110.308913,666.185348,-10189.070123
855.077339,740.205942,-1184.329507,-9806.022374
855.077659,1110.308913,-888.247130,-10035.851024
855.077979,518.144159,-2516.700203,-9882.631924
855.078299,740.205942,-1332.370696,-8044.002729
855.078619,0.000000,-296.082377,-9499.584175
855.078939,1184.329507,1628.453072,-10572.117872
855.079259,666.185348,962.267725,-10342.289223
855.079579,-1628.453072,1406.391290,-10265.679673
855.079899,-592.164754,-1110.308913,-9959.241474
855.080218,-222.061783,-296.082377,-10342.289223
855.080538,0.000000,-740.205942,-10112.460574
855.080858,-666.185348,518.144159,-10418.898773
855.081178,666.185348,-222.061783,-10495.508323
855.081498,518.144159,-814.226536,-10648.727422
855.081818,518.144159,-1184.329507,-10265.679673
855.082138,-444.123565,-296.082377,-10035.851024
855.082458,222.061783,-666.185348,-10189.070123
855.082778,-740.205942,0.000000,-10112.460574
855.083098,444.123565,-222.061783,-10342.289223
855.083418,740.205942,-148.041188,-10572.117872
855.083738,1258.350101,-592.164754,-9959.241474
855.084058,0.000000,-962.267725,-11031.775171
855.084378,-962.267725,-370.102971,-9576.193725
855.084698,-2516.700203,222.061783,-10112.460574
855.085018,-2368.659014,592.164754,-9882.631924
855.085337,444.123565,0.000000,-10189.070123
855.085657,666.185348,-888.247130,-10572.117872
855.085977,0.000000,-2664.741391,-9959.241474
855.086297,-1184.329507,-1924.535449,-9729.412825
855.086617,-592.164754,-740.205942,-9652.803275
855.086937,148.041188,1036.288319,-10035.851024
855.087257,1036.288319,1258.350101,-10495.508323
855.087577,1776.494261,0.000000,-9806.022374
855.087897,1628.453072,-222.061783,-10112.460574
855.088217,1998.556043,0.000000,-10342.289223
855.088537,2960.823768,-148.041188,-9959.241474
855.088857,1998.556043,814.226536,-10265.679673
855.089177,592.164754,1776.494261,-10189.070123
855.089497,-518.144159,962.267725,-9959.241474
855.089817,-444.123565,-888.247130,-9882.631924
855.090136,-740.205942,-1184.329507,-10189.070123
855.090456,666.185348,-444.123565,-10112.460574
855.090776,1332.370696,1036.288319,-10495.508323
855.091096,1554.432478,2886.803174,-10265.679673
855.091416,1406.391290,2664.741391,-10418.898773
855.091736,1406.391290,1480.411884,-10572.117872
855.092056,1036.288319,1628.453072,-10495.508323
855.092376,1776.494261,1554.432478,-10495.508323
855.092696,2812.782580,1850.514855,-11184.994271
855.093016,1998.556043,1480.411884,-10418.898773
855.093336,444.123565,2072.576638,-10265.679673
855.093656,-444.123565,1554.432478,-9959.241474
855.093976,962.267725,666.185348,-10189.070123
855.094296,814.226536,740.205942,-10035.851024
855.094616,1924.535449,814.226536,-10495.508323
855.094936,3034.844362,296.082377,-9882.631924
855.095255,2812.782580,814.226536,-10265.679673
855.095575,962.267725,1998.556043,-9959.241474
855.095895,222.061783,2146.597232,-9806.022374
855.096215,888.247130,1776.494261,-9652.803275
855.096535,444.123565,-888.247130,-9652.803275
855.096855,-444.123565,-666.185348,-8963.317327
855.097175,-1258.350101,-518.144159,-9269.755526
855.097495,-592.164754,814.226536,-9346.365076
855.097815,0.000000,1184.329507,-9806.022374
855.098135,-370.102971,1480.411884,-9806.022374
855.098455,-444.123565,888.247130,-9422.974625
855.098775,-222.061783,-1110.308913,-9346.365076
855.099095,814.226536,-1702.473667,-9959.241474
855.099415,2220.617826,444.123565,-10572.117872
855.099735,1554.432478,592.164754,-9729.412825
855.100054,888.247130,1110.308913,-10035.851024
855.100374,518.144159,-222.061783,-10189.070123
855.100694,0.000000,-1332.370696,-10265.679673
855.101014,-222.061783,-370.102971,-10112.460574
855.101334,-370.102971,740.205942,-10189.070123
855.101654,-296.082377,1776.494261,-10955.165621
855.101974,-1776.494261,666.185348,-10342.289223
855.102294,-2886.803174,-444.123565,-10189.070123
855.102614,-1628.453072,-1776.494261,-9499.584175
855.102934,1110.308913,-3627.009116,-9882.631924
855.103254,1628.453072,-2368.659014,-10495.508323
855.103574,2368.659014,-592.164754,-10725.336972
855.103894,1110.308913,222.061783,-10035.851024
855.104214,148.041188,1406.391290,-10725.336972
855.104534,-666.185348,888.247130,-10189.070123
855.104854,-1110.308913,296.082377,-10572.117872
855.105173,-518.144159,-1258.350101,-10342.289223
855.105493,1258.350101,-2294.638420,-10495.508323
855.105813,1850.514855,-2368.659014,-10265.679673
855.106133,740.205942,-1850.514855,-9652.803275
855.106453,-592.164754,-1406.391290,-9806.022374
855.106773,370.102971,-444.123565,-9422.974625
855.107093,74.020594,222.061783,-9806.022374
855.107413,0.000000,888.247130,-10342.289223
855.107733,444.123565,370.102971,-10112.460574
855.108053,370.102971,-740.205942,-10265.679673
855.108373,888.247130,-740.205942,-9652.803275
855.108693,370.102971,-148.041188,-9959.241474
855.109013,962.267725,0.000000,-9806.022374
855.109333,962.267725,814.226536,-9959.241474
855.109653,814.226536,1406.391290,-9806.022374
855.109972,1998.556043,1998.556043,-10572.117872
855.110292,592.164754,666.185348,-10495.508323
855.110612,-888.247130,0.000000,-9959.241474
855.110932,-1332.370696,-518.144159,-9499.584175
855.111252,814.226536,296.082377,-9116.536426
855.111572,3182.885551,1110.308913,-9576.193725
855.111892,3552.988522,1850.514855,-10648.727422
855.112212,2368.659014,1258.350101,-10648.727422
855.112532,1184.329507,1036.288319,-9729.412825
855.112852,0.000000,962.267725,-9959.241474
855.113172,0.000000,1628.453072,-10112.460574
855.113492,-1998.556043,2072.576638,-10265.679673
855.113812,-1332.370696,1184.329507,-10648.727422
855.114132,370.102971,1110.308913,-10878.556072
855.114452,2368.659014,1332.370696,-10801.946522
855.114771,2072.576638,1776.494261,-10265.679673
855.115091,1628.453072,2590.720797,-10418.898773
855.115411,2294.638420,2664.741391,-12027.699319
855.115731,1776.494261,1776.494261,-10418.898773
855.116051,1332.370696,666.185348,-10265.679673
855.116371,2072.576638,-444.123565,-10189.070123
855.116691,2442.679609,148.041188,-9193.145976
855.117011,2442.679609,1258.350101,-9806.022374
855.117331,814.226536,2368.659014,-10112.460574
855.117651,-740.205942,2294.638420,-9652.803275
855.117971,-1850.514855,962.267725,-9806.022374
855.118291,-814.226536,-222.061783,-9729.412825
855.118611,-666.185348,-1332.370696,-9806.022374
855.118931,-1702.473667,-2146.597232,-9422.974625
855.119251,-2368.659014,-444.123565,-9039.926876
855.119571,-1406.391290,962.267725,-9806.022374
855.119890,518.144159,2368.659014,-10112.460574
855.120210,1480.411884,1554.432478,-9806.022374
855.120530,1554.432478,0.000000,-9652.803275
855.120850,1924.535449,-1332.370696,-9806.022374
855.121170,1406.391290,-1554.432478,-9346.365076
855.121490,-222.061783,-740.205942,-9806.022374
855.121810,-2442.679609,-666.185348,-9652.803275
855.122130,-2886.803174,-592.164754,-9499.584175
855.122450,-1998.556043,814.226536,-9959.241474
855.122770,0.000000,1702.473667,-10572.117872
855.123090,740.205942,1554.432478,-11031.775171
855.123410,888.247130,1332.370696,-10265.679673
855.123730,1110.308913,148.041188,-10648.727422
855.124050,962.267725,0.000000,-10572.117872
855.124370,444.123565,-1554.432478,-10572.117872
855.124689,-222.061783,-1332.370696,-10418.898773
855.125009,0.000000,0.000000,-10495.508323
855.125329,1628.453072,1258.350101,-11184.994271
855.125649,1924.535449,2738.761985,-11568.042020
855.125969,1554.432478,2368.659014,-11184.994271
855.126289,1332.370696,296.082377,-10572.117872
855.126609,518.144159,-1184.329507,-10572.117872
855.126929,-370.102971,-2442.679609,-10342.289223
855.127249,-666.185348,-2442.679609,-10112.460574
855.127569,-1036.288319,-1480.411884,-9806.022374
855.127889,-222.061783,222.061783,-9882.631924
855.128209,2072.576638,1258.350101,-10035.851024
855.128529,2072.576638,1184.329507,-10189.070123
855.128849,1184.329507,518.144159,-9959.241474
855.129169,1628.453072,74.020594,-9959.241474
855.129489,2294.638420,-592.164754,-9959.241474
855.129808,2294.638420,-1406.391290,-9346.365076
855.130128,962.267725,-2368.659014,-9576.193725
855.130448,222.061783,-1554.432478,-9346.365076
855.130768,592.164754,-222.061783,-9346.365076
855.131088,1332.370696,1406.391290,-10265.679673
855.131408,740.205942,2072.576638,-9882.631924
855.131728,370.102971,1628.453072,-10265.679673
855.132048,74.020594,888.247130,-9729.412825
855.132368,370.102971,0.000000,-9729.412825
855.132688,-444.123565,-1332.370696,-9882.631924
855.133008,-740.205942,-1332.370696,-9806.022374
855.133328,592.164754,-592.164754,-10112.460574
855.133648,1554.432478,518.144159,-10189.070123
855.133968,2886.803174,592.164754,-9959.241474
855.134288,2072.576638,2516.700203,-10495.508323
855.134607,1554.432478,2294.638420,-11108.384721
855.134927,1554.432478,1998.556043,-10035.851024
855.135247,2516.700203,888.247130,-10342.289223
855.135567,1036.288319,1776.494261,-10725.336972
855.135887,-592.164754,1850.514855,-11108.384721
855.136207,-2146.597232,1480.411884,-10265.679673
855.136527,-1406.391290,2072.576638,-10112.460574
855.136847,296.082377,2072.576638,-10265.679673
855.137167,888.247130,1258.350101,-10418.898773
855.137487,0.000000,740.205942,-9882.631924
855.137807,-296.082377,1406.391290,-10572.117872
855.138127,0.000000,2220.617826,-9576.193725
855.138447,740.205942,2072.576638,-9652.803275
855.138767,666.185348,1628.453072,-9959.241474
855.139087,888.247130,1184.329507,-9882.631924
855.139407,1258.350101,518.144159,-9652.803275
855.139726,888.247130,1258.350101,-9576.193725
855.140046,1406.391290,370.102971,-9729.412825
855.140366,1258.350101,222.061783,-9422.974625
855.140686,222.061783,518.144159,-9576.193725
855.141006,962.267725,740.205942,-10265.679673
855.141326,0.000000,0.000000,-9422.974625
855.141646,-962.267725,-1036.288319,-9422.974625
855.141966,0.000000,-222.061783,-9729.412825
855.142286,444.123565,296.082377,-9652.803275
855.142606,-296.082377,1036.288319,-9652.803275
855.142926,518.144159,0.000000,-9882.631924
855.143246,3182.885551,74.020594,-10495.508323
855.143566,1036.288319,370.102971,-9576.193725
855.143886,-370.102971,-518.144159,-9959.241474
855.144206,814.226536,148.041188,-9882.631924
855.144525,2146.597232,-296.082377,-10189.070123
855.144845,666.185348,-962.267725,-9729.412825
855.145165,518.144159,-1702.473667,-10112.460574
855.145485,0.000000,-1702.473667,-10572.117872
855.145805,-592.164754,-740.205942,-10112.460574
855.146125,-1332.370696,370.102971,-10801.946522
855.146445,-1184.329507,740.205942,-10955.165621
855.146765,0.000000,222.061783,-10878.556072
855.147085,444.123565,-1480.411884,-10189.070123
855.147405,888.247130,-2590.720797,-10418.898773
855.147725,518.144159,-2960.823768,-9882.631924
855.148045,-296.082377,-2146.597232,-9882.631924
855.148365,-740.205942,-1036.288319,-10189.070123
855.148685,-962.267725,0.000000,-10265.679673
855.149005,-444.123565,74.020594,-10342.289223
855.149325,518.144159,-592.164754,-10342.289223
855.149644,740.205942,-1998.556043,-10112.460574
855.149964,-370.102971,-3478.967927,-9499.584175
855.150284,-888.247130,-2516.700203,-9806.022374
855.150604,-518.144159,-1554.432478,-9806.022374
855.150924,-666.185348,-814.226536,-11414.822920
855.151244,-296.082377,-1184.329507,-9882.631924
855.151564,0.000000,-1776.494261,-9806.022374
855.151884,888.247130,-1406.391290,-10112.460574
855.152204,2072.576638,0.000000,-10265.679673
855.152524,1628.453072,2220.617826,-10572.117872
855.152844,444.123565,2368.659014,-10648.727422
855.153164,-666.185348,1406.391290,-10265.679673
855.153484,-962.267725,0.000000,-9806.022374
855.153804,0.000000,-2220.617826,-10112.460574
855.154124,296.082377,-1702.473667,-10495.508323
855.154443,2738.761985,-296.082377,-10112.460574
855.154763,2738.761985,2146.597232,-10572.117872
855.155083,2368.659014,4811.338623,-11184.994271
855.155403,1258.350101,4589.276840,-10801.946522
855.155723,1036.288319,3552.988522,-10418.898773
855.156043,888.247130,740.205942,-10265.679673
855.156363,222.061783,-814.226536,-10035.851024
855.156683,1258.350101,-370.102971,-9959.241474
855.157003,1184.329507,-666.185348,-9806.022374
855.157323,1776.494261,444.123565,-10112.460574
855.157643,1184.329507,1998.556043,-9499.584175
855.157963,962.267725,3108.864956,-10035.851024
855.158283,1332.370696,2886.803174,-10035.851024
855.158603,-592.164754,1332.370696,-9806.022374
855.158923,-1110.308913,888.247130,-9576.193725
855.159242,-518.144159,0.000000,-9576.193725
855.159562,1184.329507,-148.041188,-9576.193725
855.159882,2146.597232,0.000000,-9422.974625
855.160202,1480.411884,1628.453072,-9652.803275
855.160522,740.205942,2886.803174,-9959.241474
855.160842,2072.576638,3034.844362,-9806.022374
855.161162,2368.659014,3330.926739,-10035.851024
855.161482,1702.473667,2294.638420,-10035.851024
855.161802,-814.226536,1480.411884,-9729.412825
855.162122,-666.185348,74.020594,-9806.022374
855.162442,666.185348,148.041188,-9422.974625
855.162762,962.267725,1036.288319,-10265.679673
855.163082,222.061783,1554.432478,-10112.460574
855.163402,2072.576638,2368.659014,-10035.851024
855.163722,2146.597232,3923.091493,-10418.898773
855.164042,370.102971,4515.256246,-10189.070123
855.164362,-296.082377,4145.153275,-10418.898773
855.164682,518.144159,2368.659014,-10572.117872
855.165002,1776.494261,1110.308913,-10112.460574
855.165322,1332.370696,222.061783,-9806.022374
855.165642,1258.350101,518.144159,-10112.460574
855.165962,3552.988522,1406.391290,-10418.898773
855.166282,3108.864956,2220.617826,-10112.460574
855.166602,888.247130,3849.070898,-10265.679673
855.166922,74.020594,3182.885551,-10418.898773
855.167242,1850.514855,1480.411884,-10265.679673
855.167562,3404.947333,740.205942,-10112.460574
855.167882,3478.967927,814.226536,-10035.851024
855.168201,3478.967927,2294.638420,-11951.089769
855.168521,2516.700203,2664.741391,-10112.460574
855.168841,2516.700203,2960.823768,-9806.022374
855.169161,2738.761985,2664.741391,-9959.241474
855.169481,2590.720797,2738.761985,-9806.022374
855.169801,1036.288319,1924.535449,-10418.898773
855.170121,0.000000,740.205942,-9269.755526
855.170441,1332.370696,148.041188,-9882.631924
855.170761,2146.597232,370.102971,-9652.803275
855.171081,0.000000,1332.370696,-9422.974625
855.171401,-370.102971,962.267725,-9422.974625
855.171721,2368.659014,2072.576638,-9806.022374
855.172041,4145.153275,2812.782580,-10189.070123
855.172361,3182.885551,3552.988522,-10418.898773
855.172681,888.247130,1924.535449,-9806.022374
855.173001,888.247130,814.226536,-10035.851024
855.173321,2664.741391,1702.473667,-9882.631924
855.173641,2886.803174,2220.617826,-11108.384721
855.173961,2368.659014,2516.700203,-10265.679673
855.174281,2442.679609,1036.288319,-10418.898773
855.174601,3923.091493,-222.061783,-9959.241474
855.174921,3923.091493,-518.144159,-10112.460574
855.175241,3034.844362,370.102971,-9806.022374
855.175561,3627.009116,2294.638420,-10265.679673
855.175881,3701.029710,3552.988522,-10648.727422
855.176201,2442.679609,5329.482782,-10801.946522
855.176521,1406.391290,3849.070898,-10495.508323
855.176841,1332.370696,2812.782580,-10725.336972
855.177160,2294.638420,962.267725,-10572.117872
855.177480,2812.782580,1110.308913,-10342.289223
855.177800,1332.370696,2442.679609,-10495.508323
855.178120,1406.391290,3627.009116,-10112.460574
855.178440,3034.844362,4441.235652,-10189.070123
855.178760,4737.318029,3923.091493,-10801.946522
855.179080,4293.194464,4071.132681,-10878.556072
855.179400,2368.659014,3478.967927,-10418.898773
855.179720,2072.576638,3182.885551,-10112.460574
855.180040,3108.864956,2516.700203,-10112.460574
855.180360,4219.173869,2886.803174,-10495.508323
855.180680,3256.906145,2368.659014,-10035.851024
855.181000,962.267725,2960.823768,-9116.536426
855.181320,74.020594,3330.926739,-9729.412825
855.181640,1110.308913,3923.091493,-9729.412825
855.181960,2960.823768,3404.947333,-10725.336972
855.182280,3256.906145,2738.761985,-10112.460574
855.182600,1554.432478,2220.617826,-9806.022374
855.182920,222.061783,1776.494261,-9729.412825
855.183240,1258.350101,2368.659014,-9499.584175
855.183560,3108.864956,2886.803174,-10342.289223
855.183880,4293.194464,3182.885551,-10035.851024
855.184200,3182.885551,3627.009116,-9806.022374
855.184520,1628.453072,3330.926739,-10418.898773
855.184840,962.267725,3997.112087,-9729.412825
855.185160,1998.556043,4663.297435,-10342.289223
855.185480,3404.947333,3775.050304,-10342.289223
855.185800,3923.091493,2368.659014,-9806.022374
855.186120,1998.556043,1480.411884,-10572.117872
855.186439,-592.164754,1406.391290,-8810.098227
855.186759,-1258.350101,1702.473667,-9576.193725
855.187079,370.102971,2368.659014,-10035.851024
855.187399,3478.967927,2368.659014,-10035.851024
855.187719,4663.297435,2294.638420,-9959.241474
855.188039,4663.297435,2516.700203,-10112.460574
855.188359,3997.112087,3256.906145,-10342.289223
855.188679,2812.782580,3997.112087,-10265.679673
855.188999,1776.494261,3330.926739,-9806.022374
855.189319,1998.556043,888.247130,-9576.193725
855.189639,2738.761985,-962.267725,-9806.022374
855.189959,2590.720797,-1554.432478,-9729.412825
855.190279,1184.329507,222.061783,-9806.022374
855.190599,962.267725,2812.782580,-10189.070123
855.190919,1776.494261,4441.235652,-9346.365076
855.191239,2146.597232,3997.112087,-10265.679673
855.191559,2146.597232,2368.659014,-9882.631924
855.191879,3108.864956,-148.041188,-10112.460574
855.192199,4071.132681,-888.247130,-10035.851024
855.192519,4145.153275,222.061783,-10035.851024
855.192839,3923.091493,2368.659014,-10495.508323
855.193159,4145.153275,4219.173869,-10418.898773
855.193479,3775.050304,4959.379811,-10648.727422
855.193799,1924.535449,5107.421000,-11951.089769
855.194119,-962.267725,3256.906145,-10265.679673
855.194439,-1406.391290,1258.350101,-10112.460574
855.194759,370.102971,-962.267725,-10035.851024
855.195079,2442.679609,-1628.453072,-9882.631924
855.195398,2960.823768,-814.226536,-10189.070123
855.195718,2886.803174,1776.494261,-9882.631924
855.196038,3849.070898,4811.338623,-10418.898773
855.196358,5625.565159,7105.977043,-10801.946522
855.196678,6661.853478,6957.935855,-10878.556072
855.196998,4959.379811,4737.318029,-10801.946522
