#time,accel_x,accel_y,accel_z
940.565126,444.123565,296.082377,-9806.022374
940.565446,740.205942,0.000000,-9652.803275
940.565766,740.205942,0.000000,-9959.241474
940.566086,370.102971,296.082377,-9806.022374
940.566406,518.144159,444.123565,-10035.851024
940.566726,592.164754,666.185348,-9959.241474
940.567046,666.185348,222.061783,-10035.851024
940.567367,592.164754,148.041188,-10265.679673
940.567687,518.144159,0.000000,-10189.070123
940.568007,74.020594,370.102971,-9806.022374
940.568327,1184.329507,74.020594,-10189.070123
940.568647,962.267725,444.123565,-10112.460574
940.568967,0.000000,0.000000,-10035.851024
940.569287,-370.102971,148.041188,-9806.022374
940.569607,370.102971,-148.041188,-10112.460574
940.569927,888.247130,0.000000,-10342.289223
940.570248,148.041188,74.020594,-10035.851024
940.570568,0.000000,74.020594,-10112.460574
940.570888,666.185348,1332.370696,-9729.412825
940.571208,962.267725,592.164754,-10418.898773
940.571528,666.185348,222.061783,-10265.679673
940.571848,0.000000,0.000000,-10342.289223
940.572168,-222.061783,0.000000,-10112.460574
940.572488,740.205942,-222.061783,-10035.851024
940.572809,592.164754,0.000000,-10189.070123
940.573129,-592.164754,-370.102971,-10112.460574
940.573449,-888.247130,-740.205942,-9959.241474
940.573769,0.000000,-518.144159,-10035.851024
940.574089,0.000000,-444.123565,-10342.289223
940.574409,-962.267725,-370.102971,-10035.851024
940.574729,-592.164754,-222.061783,-10342.289223
940.575049,0.000000,-222.061783,-10112.460574
940.575370,-518.144159,-592.164754,-9882.631924
940.575690,-962.267725,-888.247130,-9959.241474
940.576010,-1036.288319,-1258.350101,-9882.631924
940.576330,-592.164754,-1184.329507,-9729.412825
940.576650,-1036.288319,-814.226536,-9193.145976
940.576970,-1702.473667,-1628.453072,-9959.241474
940.577290,-2294.638420,-2146.597232,-9806.022374
940.577610,-1480.411884,-2294.638420,-9806.022374
940.577931,-592.164754,-1924.535449,-9422.974625
940.578251,-1184.329507,-1406.391290,-9729.412825
940.578571,-1184.329507,-1702.473667,-9959.241474
940.578891,-592.164754,-1554.432478,-9882.631924
940.579211,0.000000,-1110.308913,-10342.289223
940.579531,-222.061783,-740.205942,-9806.022374
940.579851,-1702.473667,-2146.597232,-10418.898773
940.580171,-2516.700203,-2960.823768,-9806.022374
940.580491,-2294.638420,-4071.132681,-9729.412825
940.580812,-1924.535449,-2664.741391,-10418.898773
940.581132,-1998.556043,-3256.906145,-9806.022374
940.581452,-2516.700203,-3478.967927,-10035.851024
940.581772,-2146.597232,-2886.803174,-9959.241474
940.582092,-296.082377,-2368.659014,-10265.679673
940.582412,1184.329507,-1184.329507,-10495.508323
940.582732,740.205942,-1184.329507,-10648.727422
940.583052,-740.205942,-1258.350101,-10801.946522
940.583373,-2220.617826,-1702.473667,-10495.508323
940.583693,-3182.885551,-2368.659014,-9729.412825
940.584013,-4441.235652,-3182.885551,-10035.851024
940.584333,-5625.565159,-4737.318029,-9806.022374
940.584653,-4663.297435,-5255.462188,-9576.193725
940.584973,-2368.659014,-5477.523971,-9806.022374
940.585293,-148.041188,-4219.173869,-9806.022374
940.585613,518.144159,-1850.514855,-10189.070123
940.585934,592.164754,74.020594,-10342.289223
940.586254,1480.411884,1258.350101,-10648.727422
940.586574,2220.617826,962.267725,-10265.679673
940.586894,1406.391290,-222.061783,-10495.508323
940.587214,0.000000,-1480.411884,-10112.460574
940.587534,-2146.597232,-3108.864956,-10035.851024
940.587854,-4071.132681,-3849.070898,-9806.022374
940.588174,-5181.441594,-4737.318029,-9269.755526
940.588494,-5477.523971,-5033.400406,-8886.707777
940.588815,-3478.967927,-5329.482782,-9193.145976
940.589135,-592.164754,-4811.338623,-9652.803275
940.589455,1554.432478,-2664.741391,-9576.193725
940.589775,2294.638420,-444.123565,-9806.022374
940.590095,3034.844362,1924.535449,-10418.898773
940.590415,4145.153275,3701.029710,-10878.556072
940.590735,2812.782580,3849.070898,-10955.165621
940.591055,-518.144159,1998.556043,-10725.336972
940.591376,-4885.359217,-814.226536,-10342.289223
940.591696,-6365.771101,-3849.070898,-9806.022374
940.592016,-5107.421000,-6587.832884,-9806.022374
940.592336,-4293.194464,-7328.038826,-9346.365076
940.592656,-4071.132681,-5847.626942,-9422.974625
940.592976,-2812.782580,-2442.679609,-9729.412825
940.593296,0.000000,1332.370696,-10495.508323
940.593616,2146.597232,4885.359217,-10955.165621
940.593937,2442.679609,4885.359217,-11184.994271
940.594257,2664.741391,2886.803174,-10572.117872
940.594577,2886.803174,666.185348,-11031.775171
940.594897,1184.329507,-962.267725,-10878.556072
940.595217,-1406.391290,-1850.514855,-9806.022374
940.595537,-4367.215058,-2294.638420,-10112.460574
940.595857,-5107.421000,-2442.679609,-9959.241474
940.596177,-6365.771101,-3627.009116,-9806.022374
940.596498,-6883.915261,-4515.256246,-8656.879127
940.596818,-5995.668130,-5921.647536,-8733.488677
940.597138,-1998.556043,-5033.400406,-9269.755526
940.597458,2590.720797,-2294.638420,-9882.631924
940.597778,4071.132681,814.226536,-10265.679673
940.598098,3034.844362,2960.823768,-10648.727422
940.598418,1406.391290,3701.029710,-10648.727422
940.598738,2294.638420,2516.700203,-10572.117872
940.599058,1998.556043,74.020594,-10265.679673
940.599379,0.000000,-2738.761985,-10572.117872
940.599699,-4071.132681,-5329.482782,-9806.022374
940.600019,-7031.956449,-5847.626942,-9499.584175
940.600339,-8660.409521,-5403.503377,-9039.926876
940.600659,-7772.162391,-4367.215058,-8733.488677
940.600979,-4293.194464,-4367.215058,-9193.145976
940.601299,592.164754,-4811.338623,-9499.584175
940.601619,3330.926739,-2738.761985,-10418.898773
940.601940,2812.782580,-1184.329507,-10725.336972
940.602260,2664.741391,2072.576638,-9806.022374
940.602580,3775.050304,3849.070898,-11184.994271
940.602900,3404.947333,3849.070898,-11414.822920
940.603220,666.185348,2960.823768,-11568.042020
940.603540,-3108.864956,-666.185348,-10342.289223
940.603860,-5847.626942,-4145.153275,-10112.460574
940.604180,-6883.915261,-7550.100608,-9652.803275
940.604501,-7105.977043,-9252.574275,-9346.365076
940.604821,-6291.750507,-9030.512492,-9346.365076
940.605141,-5329.482782,-6513.812290,-8733.488677
940.605461,-3182.885551,-3701.029710,-9576.193725
940.605781,1258.350101,518.144159,-10112.460574
940.606101,5107.421000,2738.761985,-10878.556072
940.606421,6513.812290,3923.091493,-11797.870669
940.606741,4293.194464,2368.659014,-11184.994271
940.607062,-592.164754,-518.144159,-10572.117872
940.607382,-3478.967927,-2812.782580,-10112.460574
940.607702,-4219.173869,-4367.215058,-9652.803275
940.608022,-3997.112087,-5033.400406,-9652.803275
940.608342,-6809.894666,-6513.812290,-9422.974625
940.608662,-6735.874072,-8068.244768,-8963.317327
940.608982,-4293.194464,-6365.771101,-9422.974625
940.609302,-1702.473667,-3923.091493,-9346.365076
940.609622,-1480.411884,-962.267725,-9959.241474
940.609943,-2294.638420,0.000000,-9882.631924
940.610263,148.041188,1110.308913,-10035.851024
940.610583,3552.988522,1184.329507,-10418.898773
940.610903,4885.359217,888.247130,-10418.898773
940.611223,2960.823768,-814.226536,-11031.775171
940.611543,0.000000,-2664.741391,-10189.070123
940.611863,-2812.782580,-3997.112087,-10112.460574
940.612183,-5329.482782,-3849.070898,-9499.584175
940.612504,-7105.977043,-3627.009116,-9576.193725
940.612824,-4663.297435,-3034.844362,-9729.412825
940.613144,-2960.823768,-2294.638420,-10035.851024
940.613464,-1628.453072,-2886.803174,-9806.022374
940.613784,296.082377,-2960.823768,-9576.193725
940.614104,3256.906145,-2294.638420,-10265.679673
940.614424,4293.194464,-222.061783,-10418.898773
940.614744,1850.514855,1924.535449,-10801.946522
940.615065,370.102971,2368.659014,-10265.679673
940.615385,888.247130,1036.288319,-10572.117872
940.615705,888.247130,0.000000,-10495.508323
940.616025,-1406.391290,-2368.659014,-10112.460574
940.616345,-3404.947333,-3997.112087,-10112.460574
940.616665,-5255.462188,-3923.091493,-9806.022374
940.616985,-4589.276840,-4441.235652,-10112.460574
940.617305,-3256.906145,-2146.597232,-9499.584175
940.617625,-2294.638420,-1406.391290,-9806.022374
940.617946,-962.267725,-1480.411884,-9959.241474
940.618266,148.041188,-3034.844362,-9882.631924
940.618586,2146.597232,-740.205942,-9806.022374
940.618906,2812.782580,2220.617826,-10265.679673
940.619226,740.205942,2442.679609,-10112.460574
940.619546,-370.102971,2146.597232,-10112.460574
940.619866,-444.123565,148.041188,-10112.460574
940.620187,-2664.741391,-2664.741391,-9729.412825
940.620507,-4885.359217,-4589.276840,-9806.022374
940.620827,-5847.626942,-5255.462188,-9499.584175
940.621147,-5847.626942,-4293.194464,-9806.022374
940.621467,-3775.050304,-2516.700203,-9193.145976
940.621787,-814.226536,-1480.411884,-9729.412825
940.622107,1776.494261,-592.164754,-9882.631924
940.622428,2294.638420,-592.164754,-10342.289223
940.622748,1554.432478,-1036.288319,-11184.994271
940.623068,962.267725,-518.144159,-10342.289223
940.623388,0.000000,1184.329507,-9806.022374
940.623708,-740.205942,1110.308913,-10725.336972
940.624028,-592.164754,-296.082377,-10265.679673
940.624349,-1406.391290,-814.226536,-11261.603821
940.624669,-4219.173869,-2664.741391,-10495.508323
940.624989,-4441.235652,-5107.421000,-9499.584175
940.625309,-4293.194464,-5329.482782,-9806.022374
940.625629,-4219.173869,-3404.947333,-9882.631924
940.625949,-4737.318029,-2886.803174,-9499.584175
940.626269,-592.164754,-2368.659014,-9882.631924
940.626590,2812.782580,-1924.535449,-10342.289223
940.626910,3330.926739,-1110.308913,-10878.556072
940.627230,2442.679609,296.082377,-10418.898773
940.627550,2220.617826,370.102971,-10648.727422
940.627870,2220.617826,-518.144159,-10112.460574
940.628190,-1702.473667,-2590.720797,-10189.070123
940.628511,-4367.215058,-5329.482782,-9576.193725
940.628831,-6661.853478,-4441.235652,-9729.412825
940.629151,-7328.038826,-4515.256246,-9193.145976
940.629471,-5773.606348,-4589.276840,-9116.536426
940.629791,-2886.803174,-4737.318029,-9269.755526
940.630111,-1258.350101,-3627.009116,-10035.851024
940.630431,-296.082377,-3108.864956,-9499.584175
940.630752,-2442.679609,-2368.659014,-10342.289223
940.631072,-1924.535449,-2294.638420,-9806.022374
940.631392,296.082377,-1480.411884,-9806.022374
940.631712,3256.906145,-222.061783,-10572.117872
940.632032,2146.597232,370.102971,-11031.775171
940.632352,-1406.391290,740.205942,-10725.336972
940.632673,-4441.235652,74.020594,-10648.727422
940.632993,-4145.153275,-1628.453072,-9959.241474
940.633313,-2146.597232,-3330.926739,-10189.070123
940.633633,-2368.659014,-5255.462188,-10725.336972
940.633953,-3478.967927,-6365.771101,-9499.584175
940.634273,-2146.597232,-3330.926739,-9806.022374
940.634593,-592.164754,-518.144159,-10878.556072
940.634914,1406.391290,0.000000,-10725.336972
940.635234,0.000000,444.123565,-11261.603821
940.635554,-962.267725,0.000000,-9729.412825
940.635874,-1332.370696,370.102971,-10035.851024
940.636194,74.020594,-740.205942,-10265.679673
940.636514,3256.906145,-888.247130,-10342.289223
940.636835,4145.153275,-1406.391290,-10725.336972
940.637155,444.123565,-1406.391290,-10112.460574
940.637475,-2886.803174,-2738.761985,-9422.974625
940.637795,-3330.926739,-3997.112087,-9039.926876
940.638115,-592.164754,-1702.473667,-9499.584175
940.638435,-666.185348,-2294.638420,-9346.365076
940.638755,1998.556043,-2220.617826,-8886.707777
940.639076,2146.597232,-3849.070898,-9269.755526
940.639396,3701.029710,-4737.318029,-9346.365076
940.639716,4515.256246,-1924.535449,-10265.679673
940.640036,3404.947333,1184.329507,-9959.241474
940.640356,1332.370696,4071.132681,-10112.460574
940.640676,296.082377,4589.276840,-10725.336972
940.640997,1776.494261,5107.421000,-11031.775171
940.641317,1554.432478,1776.494261,-11184.994271
940.641637,1036.288319,-1702.473667,-10955.165621
940.641957,-1850.514855,-2294.638420,-9806.022374
940.642277,-1554.432478,-1480.411884,-10572.117872
940.642597,1184.329507,-962.267725,-9729.412825
940.642917,1110.308913,-444.123565,-10035.851024
940.643238,296.082377,2072.576638,-11414.822920
940.643558,-962.267725,2442.679609,-10418.898773
940.643878,1110.308913,2886.803174,-11568.042020
940.644198,2516.700203,2664.741391,-11031.775171
940.644518,2664.741391,1406.391290,-10495.508323
940.644838,-444.123565,1406.391290,-10878.556072
940.645159,-3404.947333,1036.288319,-9959.241474
940.645479,-2886.803174,-962.267725,-9882.631924
940.645799,-370.102971,-518.144159,-10418.898773
940.646119,444.123565,74.020594,-10189.070123
940.646439,-814.226536,518.144159,-10418.898773
940.646759,-2368.659014,-148.041188,-9882.631924
940.647079,-444.123565,-148.041188,-9652.803275
940.647400,2294.638420,1332.370696,-9806.022374
940.647720,1998.556043,3478.967927,-9806.022374
940.648040,1480.411884,3108.864956,-10189.070123
940.648360,444.123565,2738.761985,-10189.070123
940.648680,-518.144159,1036.288319,-9959.241474
940.649000,1332.370696,222.061783,-8810.098227
940.649321,1924.535449,962.267725,-10035.851024
940.649641,1332.370696,-814.226536,-9806.022374
940.649961,-1110.308913,-518.144159,-9806.022374
940.650281,-2368.659014,444.123565,-9422.974625
940.650601,-962.267725,1702.473667,-9959.241474
940.650921,1702.473667,2072.576638,-9576.193725
940.651241,1924.535449,-888.247130,-10112.460574
940.651562,1702.473667,0.000000,-9499.584175
940.651882,1554.432478,-592.164754,-10265.679673
940.652202,1554.432478,-148.041188,-9346.365076
940.652522,1924.535449,1850.514855,-10418.898773
940.652842,1850.514855,3108.864956,-10189.070123
940.653162,1258.350101,1184.329507,-10342.289223
940.653483,2220.617826,-740.205942,-9959.241474
940.653803,2442.679609,-814.226536,-10189.070123
940.654123,3182.885551,-518.144159,-10801.946522
940.654443,3256.906145,-296.082377,-10265.679673
940.654763,962.267725,-1110.308913,-10342.289223
940.655083,962.267725,2294.638420,-9882.631924
940.655403,-296.082377,1850.514855,-10418.898773
940.655724,1036.288319,1036.288319,-10955.165621
940.656044,1258.350101,518.144159,-9882.631924
940.656364,962.267725,592.164754,-9116.536426
940.656684,2812.782580,888.247130,-9959.241474
940.657004,3849.070898,370.102971,-11261.603821
940.657324,2812.782580,-444.123565,-10112.460574
940.657645,-1406.391290,-1850.514855,-9193.145976
940.657965,-2368.659014,-2664.741391,-9269.755526
940.658285,-2442.679609,-2664.741391,-9652.803275
940.658605,-2294.638420,-1480.411884,-10112.460574
940.658925,-962.267725,-222.061783,-9806.022374
940.659245,-518.144159,-2516.700203,-9499.584175
940.659565,-370.102971,-2368.659014,-9806.022374
940.659886,-148.041188,-888.247130,-9269.755526
940.660206,-740.205942,-740.205942,-9806.022374
940.660526,1258.350101,74.020594,-11951.089769
940.660846,-370.102971,-296.082377,-10112.460574
940.661166,-2664.741391,-1110.308913,-10265.679673
940.661486,-3478.967927,-1184.329507,-10189.070123
940.661807,-1258.350101,-1406.391290,-9806.022374
940.662127,-1406.391290,-1554.432478,-11261.603821
940.662447,-1480.411884,-370.102971,-10189.070123
940.662767,-1776.494261,-296.082377,-9806.022374
940.663087,-2220.617826,-518.144159,-11644.651570
940.663407,444.123565,-1332.370696,-9806.022374
940.663727,-296.082377,-1184.329507,-10189.070123
940.664048,1036.288319,592.164754,-10572.117872
940.664368,222.061783,814.226536,-10265.679673
940.664688,296.082377,1406.391290,-10878.556072
940.665008,2368.659014,1036.288319,-10418.898773
940.665328,2738.761985,1850.514855,-10648.727422
940.665648,2886.803174,0.000000,-10725.336972
940.665968,1554.432478,-1554.432478,-9806.022374
940.666289,-444.123565,-962.267725,-9959.241474
940.666609,-1554.432478,0.000000,-9959.241474
940.666929,-518.144159,-148.041188,-9806.022374
940.667249,740.205942,-444.123565,-9576.193725
940.667569,1184.329507,-518.144159,-9806.022374
940.667889,3108.864956,-962.267725,-10112.460574
940.668210,3108.864956,-444.123565,-9576.193725
940.668530,3923.091493,1258.350101,-9806.022374
940.668850,4737.318029,2072.576638,-10418.898773
940.669170,3034.844362,1406.391290,-10418.898773
940.669490,1332.370696,0.000000,-9806.022374
940.669810,-592.164754,-1258.350101,-9422.974625
940.670130,222.061783,0.000000,-9499.584175
940.670451,2812.782580,814.226536,-10112.460574
940.670771,3404.947333,2368.659014,-10189.070123
940.671091,3108.864956,518.144159,-9652.803275
940.671411,2072.576638,-296.082377,-9882.631924
940.671731,2664.741391,-1628.453072,-9422.974625
940.672051,1036.288319,1332.370696,-10495.508323
940.672372,1480.411884,3034.844362,-10648.727422
940.672692,1110.308913,3256.906145,-9729.412825
940.673012,1702.473667,2886.803174,-10878.556072
940.673332,1110.308913,1480.411884,-9422.974625
940.673652,-888.247130,-2146.597232,-10265.679673
940.673972,-1110.308913,-2886.803174,-9806.022374
940.674292,-1406.391290,-592.164754,-10035.851024
940.674613,-888.247130,2294.638420,-10265.679673
940.674933,-1628.453072,2590.720797,-9882.631924
940.675253,-148.041188,2146.597232,-10418.898773
940.675573,-2146.597232,296.082377,-9882.631924
940.675893,-2368.659014,222.061783,-11031.775171
940.676213,-962.267725,518.144159,-9806.022374
940.676534,814.226536,1554.432478,-10955.165621
940.676854,1184.329507,3330.926739,-11108.384721
940.677174,740.205942,2294.638420,-10725.336972
940.677494,-592.164754,2368.659014,-10418.898773
940.677814,-2516.700203,2220.617826,-10801.946522
940.678134,-1184.329507,3182.885551,-10495.508323
940.678454,0.000000,4219.173869,-10725.336972
940.678775,-592.164754,4515.256246,-10112.460574
940.679095,-1480.411884,1554.432478,-10112.460574
940.679415,-666.185348,-1554.432478,-9193.145976
940.679735,1480.411884,-2442.679609,-9806.022374
940.680055,666.185348,-1554.432478,-9193.145976
940.680375,666.185348,370.102971,-9652.803275
940.680696,1184.329507,296.082377,-9499.584175
940.681016,592.164754,1776.494261,-9652.803275
940.681336,444.123565,2220.617826,-9806.022374
940.681656,1258.350101,666.185348,-9806.022374
940.681976,2220.617826,-740.205942,-8503.660028
940.682296,2146.597232,-1702.473667,-9269.755526
940.682616,666.185348,-1702.473667,-9346.365076
940.682937,518.144159,-2294.638420,-9116.536426
940.683257,1184.329507,-888.247130,-9806.022374
940.683577,1628.453072,-518.144159,-9499.584175
940.683897,296.082377,444.123565,-9959.241474
940.684217,74.020594,1628.453072,-10725.336972
940.684537,1406.391290,1332.370696,-10418.898773
940.684858,3034.844362,1554.432478,-10648.727422
940.685178,1998.556043,444.123565,-10648.727422
940.685498,3034.844362,-1110.308913,-10418.898773
940.685818,3627.009116,-740.205942,-10725.336972
940.686138,1776.494261,-666.185348,-10418.898773
940.686458,1554.432478,2516.700203,-10342.289223
940.686778,2590.720797,2294.638420,-11031.775171
940.687099,3478.967927,444.123565,-10572.117872
940.687419,1110.308913,-1406.391290,-10189.070123
940.687739,-2368.659014,-2368.659014,-9499.584175
940.688059,-1480.411884,-2368.659014,-9499.584175
940.688379,1406.391290,-1332.370696,-10265.679673
940.688699,3256.906145,0.000000,-10189.070123
940.689020,3034.844362,666.185348,-10648.727422
940.689340,2294.638420,1702.473667,-10265.679673
940.689660,1332.370696,2516.700203,-10112.460574
940.689980,148.041188,2590.720797,-9882.631924
940.690300,0.000000,1776.494261,-10112.460574
940.690620,370.102971,-444.123565,-10035.851024
940.690940,0.000000,-4589.276840,-9422.974625
940.691261,-2368.659014,-5329.482782,-9422.974625
940.691581,-3775.050304,-3478.967927,-9346.365076
940.691901,-2590.720797,0.000000,-8733.488677
940.692221,-592.164754,3701.029710,-10878.556072
940.692541,-148.041188,4737.318029,-10035.851024
940.692861,-888.247130,3330.926739,-10495.508323
940.693182,-962.267725,962.267725,-10572.117872
940.693502,-1332.370696,-2220.617826,-9576.193725
940.693822,-1998.556043,-2886.803174,-9959.241474
940.694142,-2516.700203,-1554.432478,-9882.631924
940.694462,-1406.391290,222.061783,-9576.193725
940.694782,148.041188,2960.823768,-11644.651570
940.695102,-592.164754,3404.947333,-11031.775171
940.695423,-1332.370696,3182.885551,-10801.946522
940.695743,-2590.720797,1332.370696,-10265.679673
940.696063,-1110.308913,222.061783,-9193.145976
940.696383,222.061783,-1036.288319,-10035.851024
940.696703,222.061783,-888.247130,-9729.412825
940.697023,-592.164754,-222.061783,-9269.755526
940.697344,370.102971,0.000000,-10035.851024
940.697664,3034.844362,1850.514855,-9346.365076
940.697984,2220.617826,2368.659014,-10801.946522
940.698304,2368.659014,2072.576638,-10035.851024
940.698624,0.000000,-222.061783,-9959.241474
940.698944,148.041188,-2442.679609,-9269.755526
940.699264,0.000000,-1776.494261,-9806.022374
940.699585,1036.288319,-1258.350101,-11184.994271
940.699905,1184.329507,-222.061783,-9806.022374
940.700225,2220.617826,1184.329507,-9652.803275
940.700545,4071.132681,4737.318029,-10801.946522
940.700865,3182.885551,8956.491898,-10801.946522
940.701185,2886.803174,7476.080014,-12257.527968
940.701506,444.123565,1406.391290,-9882.631924
940.701826,-444.123565,-5107.421000,-9729.412825
940.702146,814.226536,-7254.018232,-8350.440928
940.702466,0.000000,-4811.338623,-9422.974625
940.702786,-1258.350101,-962.267725,-9652.803275
940.703106,-666.185348,2886.803174,-10495.508323
940.703426,3404.947333,4219.173869,-10418.898773
940.703747,5773.606348,3701.029710,-10495.508323
940.704067,3775.050304,592.164754,-10572.117872
940.704387,2368.659014,-2146.597232,-9729.412825
940.704707,1850.514855,-2294.638420,-10495.508323
940.705027,3775.050304,-1036.288319,-9806.022374
940.705347,3330.926739,666.185348,-10265.679673
940.705668,-962.267725,-148.041188,-10112.460574
940.705988,-1480.411884,-148.041188,-10112.460574
940.706308,-1406.391290,-148.041188,-10572.117872
940.706628,296.082377,740.205942,-10035.851024
940.706948,-370.102971,1258.350101,-10495.508323
940.707268,-2220.617826,1036.288319,-9729.412825
940.707588,-1850.514855,1036.288319,-9652.803275
940.707909,-1036.288319,74.020594,-9806.022374
940.708229,592.164754,-1702.473667,-10342.289223
940.708549,-518.144159,666.185348,-9882.631924
940.708869,-1184.329507,2220.617826,-10189.070123
940.709189,1850.514855,3849.070898,-10265.679673
940.709509,2738.761985,3256.906145,-10648.727422
940.709830,2960.823768,1702.473667,-9959.241474
940.710150,0.000000,-666.185348,-10189.070123
940.710470,-1702.473667,-814.226536,-10265.679673
940.710790,-2294.638420,-1776.494261,-9806.022374
940.711110,444.123565,-296.082377,-10112.460574
940.711430,2442.679609,2960.823768,-9959.241474
940.711750,1184.329507,3108.864956,-10572.117872
940.712071,222.061783,3849.070898,-10342.289223
940.712391,74.020594,3108.864956,-10572.117872
940.712711,-1184.329507,0.000000,-9652.803275
940.713031,-1110.308913,-1480.411884,-9499.584175
940.713351,592.164754,-4219.173869,-9422.974625
940.713671,1258.350101,-4441.235652,-9499.584175
940.713992,1702.473667,-3627.009116,-9499.584175
940.714312,1110.308913,222.061783,-9729.412825
940.714632,2294.638420,3997.112087,-10112.460574
940.714952,2442.679609,5551.544565,-10265.679673
940.715272,962.267725,3256.906145,-10035.851024
940.715592,-222.061783,814.226536,-9806.022374
940.715912,222.061783,-1924.535449,-9806.022374
940.716233,666.185348,-4663.297435,-9729.412825
940.716553,2368.659014,-2886.803174,-9652.803275
940.716873,1110.308913,0.000000,-9499.584175
940.717193,1406.391290,2886.803174,-9652.803275
940.717513,2294.638420,4145.153275,-10648.727422
940.717833,1184.329507,2886.803174,-10035.851024
940.718153,592.164754,1702.473667,-10189.070123
940.718474,1332.370696,666.185348,-10955.165621
940.718794,1332.370696,-962.267725,-9882.631924
940.719114,0.000000,-1850.514855,-10189.070123
940.719434,296.082377,-518.144159,-10648.727422
940.719754,888.247130,-148.041188,-9959.241474
940.720074,1036.288319,1184.329507,-11261.603821
940.720394,-3034.844362,3552.988522,-10418.898773
940.720714,-1702.473667,4441.235652,-10801.946522
940.721034,592.164754,4145.153275,-11491.432470
940.721354,592.164754,2368.659014,-10342.289223
940.721674,-1110.308913,-1776.494261,-10495.508323
940.721994,888.247130,-4293.194464,-9882.631924
940.722314,-740.205942,-4293.194464,-8963.317327
940.722634,888.247130,-2072.576638,-9806.022374
940.722954,1850.514855,2220.617826,-10342.289223
940.723274,740.205942,4071.132681,-10495.508323
940.723594,814.226536,4441.235652,-10878.556072
940.723914,888.247130,2664.741391,-9806.022374
940.724234,370.102971,1332.370696,-10495.508323
940.724554,74.020594,-962.267725,-9806.022374
940.724874,-1110.308913,-296.082377,-9422.974625
940.725194,-3478.967927,444.123565,-9576.193725
940.725514,-1776.494261,444.123565,-9806.022374
940.725834,-666.185348,-296.082377,-10112.460574
940.726155,592.164754,-518.144159,-8656.879127
940.726475,74.020594,370.102971,-9576.193725
940.726795,-1998.556043,2294.638420,-9959.241474
940.727115,-592.164754,2368.659014,-9959.241474
940.727435,592.164754,1554.432478,-9959.241474
940.727755,1480.411884,-1406.391290,-9346.365076
940.728075,1850.514855,-1406.391290,-9959.241474
940.728395,1036.288319,-1480.411884,-11031.775171
940.728715,0.000000,-666.185348,-9959.241474
940.729035,0.000000,1554.432478,-10112.460574
940.729355,148.041188,740.205942,-10418.898773
940.729675,1406.391290,-518.144159,-9882.631924
940.729995,444.123565,-962.267725,-11491.432470
940.730315,-296.082377,-1332.370696,-10648.727422
940.730635,-148.041188,0.000000,-10878.556072
940.730955,148.041188,1480.411884,-11108.384721
940.731275,74.020594,3923.091493,-10955.165621
940.731595,740.205942,5107.421000,-11491.432470
940.731915,666.185348,4885.359217,-11644.651570
940.732235,3108.864956,-518.144159,-10648.727422
940.732555,4959.379811,-2442.679609,-10189.070123
940.732875,3701.029710,-4071.132681,-9959.241474
940.733195,1776.494261,-3330.926739,-9116.536426
940.733515,-222.061783,-1110.308913,-9806.022374
940.733835,-1480.411884,-370.102971,-9806.022374
940.734155,-518.144159,1480.411884,-9499.584175
940.734475,962.267725,2368.659014,-10189.070123
940.734796,2590.720797,1628.453072,-9269.755526
940.735116,1184.329507,-740.205942,-9806.022374
940.735436,148.041188,-4367.215058,-8886.707777
940.735756,518.144159,-5847.626942,-8886.707777
940.736076,592.164754,-3627.009116,-9193.145976
940.736396,-370.102971,-296.082377,-9346.365076
940.736716,-1036.288319,4145.153275,-10342.289223
940.737036,-2442.679609,4515.256246,-9806.022374
940.737356,-1702.473667,1924.535449,-9806.022374
940.737676,74.020594,-370.102971,-9422.974625
940.737996,1850.514855,-2516.700203,-10112.460574
940.738316,1036.288319,-2812.782580,-10189.070123
940.738636,740.205942,-1332.370696,-10189.070123
940.738956,1702.473667,2294.638420,-10572.117872
940.739276,2590.720797,5107.421000,-11414.822920
940.739596,1406.391290,5181.441594,-11031.775171
940.739916,222.061783,3404.947333,-11338.213370
940.740236,-888.247130,1258.350101,-10801.946522
940.740556,518.144159,1332.370696,-10955.165621
940.740876,444.123565,-296.082377,-10801.946522
940.741196,-1924.535449,-1332.370696,-10648.727422
940.741516,-2516.700203,-2146.597232,-10418.898773
940.741836,-148.041188,296.082377,-10189.070123
940.742156,1628.453072,2442.679609,-10955.165621
940.742476,1258.350101,5107.421000,-10725.336972
940.742796,-370.102971,4811.338623,-10878.556072
940.743116,740.205942,3330.926739,-10495.508323
940.743437,2368.659014,-444.123565,-10495.508323
940.743757,3034.844362,-2886.803174,-9576.193725
940.744077,1406.391290,-3478.967927,-9039.926876
940.744397,740.205942,-3627.009116,-9729.412825
940.744717,1998.556043,-1850.514855,-9882.631924
940.745037,2442.679609,1406.391290,-9422.974625
940.745357,1184.329507,3182.885551,-9959.241474
940.745677,0.000000,4441.235652,-9193.145976
940.745997,592.164754,2664.741391,-10725.336972
940.746317,1554.432478,370.102971,-8963.317327
940.746637,0.000000,-1258.350101,-9499.584175
940.746957,0.000000,-3478.967927,-9193.145976
940.747277,888.247130,-4145.153275,-8886.707777
940.747597,1406.391290,-3330.926739,-9652.803275
940.747917,740.205942,444.123565,-9806.022374
940.748237,-1480.411884,3627.009116,-9959.241474
940.748557,-1702.473667,5033.400406,-10648.727422
940.748877,74.020594,3552.988522,-11031.775171
940.749197,1776.494261,592.164754,-11031.775171
940.749517,1036.288319,-2960.823768,-10112.460574
940.749837,74.020594,-4219.173869,-10265.679673
940.750157,-222.061783,-2368.659014,-10572.117872
940.750477,740.205942,666.185348,-11184.994271
940.750797,1110.308913,4293.194464,-11338.213370
940.751117,-1110.308913,4959.379811,-11951.089769
940.751437,-3478.967927,3034.844362,-11261.603821
940.751757,-3256.906145,-1480.411884,-10265.679673
940.752078,-592.164754,-3923.091493,-10035.851024
940.752398,-370.102971,-3923.091493,-9806.022374
940.752718,-296.082377,-2368.659014,-10418.898773
940.753038,444.123565,-444.123565,-10648.727422
940.753358,-370.102971,1702.473667,-10725.336972
940.753678,-1036.288319,3997.112087,-11031.775171
940.753998,444.123565,4515.256246,-9959.241474
940.754318,-1110.308913,3034.844362,-10572.117872
940.754638,-1480.411884,-222.061783,-9806.022374
940.754958,-1776.494261,-3701.029710,-8580.269578
940.755278,444.123565,-6439.791695,-9039.926876
940.755598,888.247130,-4811.338623,-7967.393179
940.755918,1628.453072,-2072.576638,-9576.193725
940.756238,3997.112087,2294.638420,-9652.803275
940.756558,2368.659014,3849.070898,-10112.460574
940.756878,2516.700203,3552.988522,-9806.022374
940.757198,888.247130,1258.350101,-9269.755526
940.757518,1110.308913,-1998.556043,-9576.193725
940.757838,3552.988522,-2146.597232,-9422.974625
940.758158,2960.823768,-1258.350101,-9652.803275
940.758478,2368.659014,1332.370696,-10418.898773
940.758798,0.000000,1702.473667,-10725.336972
940.759118,-1628.453072,1184.329507,-9806.022374
940.759438,-2442.679609,0.000000,-9959.241474
940.759758,-2220.617826,-962.267725,-10189.070123
940.760078,1702.473667,-666.185348,-10418.898773
940.760398,5107.421000,148.041188,-11108.384721
940.760719,6217.729913,2072.576638,-11491.432470
940.761039,4219.173869,2886.803174,-11797.870669
940.761359,3404.947333,2146.597232,-11414.822920
940.761679,2960.823768,1702.473667,-11568.042020
940.761999,666.185348,1184.329507,-11031.775171
940.762319,-370.102971,740.205942,-10189.070123
940.762639,-296.082377,0.000000,-10878.556072
940.762959,3849.070898,-148.041188,-10878.556072
940.763279,0.000000,592.164754,-10648.727422
940.763599,-1924.535449,-1258.350101,-9576.193725
940.763919,-1998.556043,-1406.391290,-8963.317327
940.764239,444.123565,-1924.535449,-9729.412825
940.764559,518.144159,-592.164754,-9116.536426
940.764879,-1184.329507,370.102971,-9729.412825
940.765199,-2368.659014,296.082377,-9193.145976
940.765519,-296.082377,370.102971,-9499.584175
940.765839,666.185348,0.000000,-9882.631924
940.766159,148.041188,222.061783,-8886.707777
940.766479,-592.164754,-592.164754,-9806.022374
940.766799,518.144159,0.000000,-9269.755526
940.767119,-296.082377,740.205942,-10035.851024
940.767439,74.020594,1776.494261,-10112.460574
940.767759,-1702.473667,666.185348,-9729.412825
940.768079,-1924.535449,-592.164754,-9576.193725
940.768399,-3701.029710,-888.247130,-8733.488677
940.768719,-2516.700203,0.000000,-9806.022374
940.769039,-592.164754,74.020594,-10495.508323
940.769360,1110.308913,888.247130,-11031.775171
940.769680,962.267725,1850.514855,-10572.117872
940.770000,148.041188,2590.720797,-10342.289223
940.770320,814.226536,2590.720797,-10955.165621
940.770640,666.185348,2220.617826,-10801.946522
940.770960,-1332.370696,1998.556043,-10801.946522
940.771280,-814.226536,740.205942,-10418.898773
940.771600,-1332.370696,296.082377,-10418.898773
940.771920,1110.308913,-1998.556043,-11031.775171
940.772240,2812.782580,-592.164754,-10035.851024
940.772560,2738.761985,74.020594,-10572.117872
940.772880,2516.700203,592.164754,-9959.241474
940.773200,2738.761985,2664.741391,-9806.022374
940.773520,4293.194464,3997.112087,-10648.727422
940.773840,5181.441594,4293.194464,-10495.508323
940.774160,2960.823768,1924.535449,-10112.460574
940.774480,1332.370696,-1110.308913,-9806.022374
940.774800,1776.494261,-3256.906145,-9499.584175
940.775120,1480.411884,-4145.153275,-9346.365076
940.775440,-1110.308913,-1406.391290,-9652.803275
940.775760,-2368.659014,1036.288319,-8963.317327
940.776080,-1554.432478,3627.009116,-9652.803275
940.776400,2886.803174,2368.659014,-10265.679673
940.776720,5477.523971,-444.123565,-9806.022374
940.777040,2812.782580,-1924.535449,-9882.631924
940.777360,2960.823768,-2146.597232,-9269.755526
940.777680,3552.988522,-1110.308913,-9882.631924
940.778001,4589.276840,666.185348,-10495.508323
940.778321,3108.864956,1702.473667,-9729.412825
940.778641,444.123565,2294.638420,-10418.898773
940.778961,-1332.370696,74.020594,-10112.460574
940.779281,-888.247130,-2220.617826,-10342.289223
940.779601,-1110.308913,-2960.823768,-10342.289223
940.779921,-1998.556043,-3478.967927,-10265.679673
940.780241,-3478.967927,-666.185348,-10342.289223
940.780561,-3256.906145,222.061783,-9806.022374
940.780881,-296.082377,1258.350101,-10648.727422
940.781201,2368.659014,1110.308913,-11568.042020
940.781521,1406.391290,1924.535449,-10878.556072
940.781841,-2146.597232,1480.411884,-10801.946522
940.782161,-1998.556043,888.247130,-9576.193725
940.782481,-666.185348,-962.267725,-10572.117872
940.782801,-148.041188,-2146.597232,-10035.851024
940.783121,-2812.782580,-1702.473667,-10342.289223
940.783441,-4293.194464,-1480.411884,-10112.460574
940.783761,-3182.885551,-444.123565,-10035.851024
940.784081,-962.267725,666.185348,-10572.117872
940.784401,-296.082377,1850.514855,-9959.241474
940.784721,-518.144159,2368.659014,-11031.775171
940.785041,-2072.576638,1036.288319,-9499.584175
940.785361,-1480.411884,-1406.391290,-9729.412825
940.785681,1332.370696,-1702.473667,-9652.803275
940.786001,1924.535449,-2220.617826,-10572.117872
940.786321,1480.411884,-1776.494261,-9806.022374
940.786642,1332.370696,-1184.329507,-9422.974625
940.786962,1332.370696,666.185348,-10112.460574
940.787282,1702.473667,2960.823768,-9959.241474
940.787602,-148.041188,3034.844362,-9959.241474
940.787922,-888.247130,592.164754,-9806.022374
940.788242,222.061783,-2738.761985,-9346.365076
940.788562,2368.659014,-4737.318029,-9652.803275
940.788882,1924.535449,-4219.173869,-8963.317327
940.789202,2368.659014,-444.123565,-10035.851024
940.789522,2516.700203,3923.091493,-10342.289223
940.789842,4885.359217,5773.606348,-10265.679673
940.790162,4293.194464,4737.318029,-11951.089769
940.790482,5033.400406,1480.411884,-10418.898773
940.790802,3552.988522,-1332.370696,-10342.289223
940.791122,1924.535449,-2368.659014,-9882.631924
940.791442,1406.391290,-518.144159,-11338.213370
940.791762,888.247130,814.226536,-10648.727422
940.792082,740.205942,1776.494261,-10955.165621
940.792402,518.144159,2886.803174,-11031.775171
940.792722,888.247130,2960.823768,-10495.508323
940.793042,592.164754,2812.782580,-10955.165621
940.793362,74.020594,1628.453072,-10801.946522
940.793682,0.000000,1258.350101,-10112.460574
940.794002,-740.205942,0.000000,-10495.508323
940.794322,-444.123565,-2368.659014,-9039.926876
940.794642,1184.329507,-3034.844362,-10801.946522
940.794962,3404.947333,-1480.411884,-9729.412825
940.795282,2368.659014,1998.556043,-9882.631924
940.795603,1036.288319,3404.947333,-10418.898773
940.795923,-1332.370696,2072.576638,-8656.879127
940.796243,-2886.803174,-592.164754,-9576.193725
940.796563,-2368.659014,-3182.885551,-9039.926876
940.796883,-2220.617826,-2590.720797,-9422.974625
940.797203,-1036.288319,-1258.350101,-9039.926876
940.797523,74.020594,74.020594,-9499.584175
940.797843,-740.205942,1776.494261,-9959.241474
940.798163,-296.082377,2294.638420,-9576.193725
940.798483,-1184.329507,740.205942,-9959.241474
940.798803,-592.164754,1036.288319,-9193.145976
940.799123,222.061783,-666.185348,-10035.851024
940.799443,592.164754,74.020594,-10265.679673
940.799763,370.102971,1184.329507,-10418.898773
940.800083,-2072.576638,1036.288319,-10342.289223
940.800403,-2738.761985,1258.350101,-9959.241474
940.800723,-1036.288319,74.020594,-10418.898773
940.801043,1702.473667,-222.061783,-10801.946522
940.801363,592.164754,666.185348,-10955.165621
940.801683,-1110.308913,888.247130,-11031.775171
940.802003,-1702.473667,2072.576638,-10112.460574
940.802323,-222.061783,1998.556043,-11031.775171
940.802643,3034.844362,1258.350101,-11108.384721
940.802963,3404.947333,814.226536,-10112.460574
940.803283,3108.864956,0.000000,-10648.727422
940.803603,2368.659014,0.000000,-10495.508323
940.803923,3182.885551,370.102971,-9959.241474
940.804244,2664.741391,518.144159,-9806.022374
940.804564,-444.123565,2146.597232,-8810.098227
940.804884,-1110.308913,1258.350101,-9576.193725
940.805204,740.205942,-592.164754,-9882.631924
940.805524,2664.741391,-2294.638420,-9116.536426
940.805844,4367.215058,-1776.494261,-9346.365076
940.806164,3108.864956,-1332.370696,-9039.926876
940.806484,2812.782580,222.061783,-9346.365076
940.806804,1406.391290,1406.391290,-9729.412825
940.807124,1554.432478,2516.700203,-9422.974625
940.807444,2590.720797,4293.194464,-10265.679673
940.807764,888.247130,592.164754,-9422.974625
940.808084,740.205942,-2072.576638,-9576.193725
940.808404,1406.391290,-3775.050304,-10035.851024
940.808724,2960.823768,-3997.112087,-10572.117872
940.809044,2220.617826,-1110.308913,-10418.898773
940.809364,0.000000,1924.535449,-10495.508323
940.809684,-1258.350101,3404.947333,-10648.727422
940.810004,1036.288319,3627.009116,-11491.432470
940.810324,444.123565,2072.576638,-11491.432470
940.810644,296.082377,-1184.329507,-10495.508323
940.810964,-814.226536,-1924.535449,-10112.460574
940.811284,-1406.391290,-2368.659014,-10648.727422
940.811604,74.020594,-1998.556043,-10495.508323
940.811924,592.164754,1332.370696,-9959.241474
940.812244,-1998.556043,2368.659014,-10801.946522
940.812564,-3701.029710,2368.659014,-9959.241474
940.812885,-2590.720797,1554.432478,-10035.851024
940.813205,1110.308913,222.061783,-10342.289223
940.813525,740.205942,-222.061783,-9806.022374
940.813845,-1036.288319,-2294.638420,-8886.707777
940.814165,-222.061783,-3775.050304,-9729.412825
940.814485,370.102971,-2220.617826,-9346.365076
940.814805,0.000000,1480.411884,-10418.898773
940.815125,-2886.803174,4441.235652,-10418.898773
940.815445,-3627.009116,5107.421000,-9346.365076
940.815765,-2072.576638,2886.803174,-10495.508323
940.816085,1110.308913,-592.164754,-9806.022374
940.816405,-222.061783,-3627.009116,-9499.584175
940.816725,-2516.700203,-5329.482782,-9039.926876
940.817045,-1184.329507,-4367.215058,-8963.317327
940.817365,1702.473667,-1480.411884,-10801.946522
940.817685,2590.720797,1332.370696,-10265.679673
940.818005,1184.329507,2738.761985,-10495.508323
940.818325,-148.041188,2590.720797,-10035.851024
940.818645,-888.247130,2368.659014,-9959.241474
940.818965,518.144159,962.267725,-11184.994271
940.819285,888.247130,-888.247130,-9806.022374
940.819605,2590.720797,-1924.535449,-10648.727422
940.819925,4071.132681,-2886.803174,-9576.193725
940.820245,3775.050304,-2738.761985,-10035.851024
940.820565,962.267725,1850.514855,-10725.336972
940.820885,-814.226536,4737.318029,-10878.556072
940.821205,-592.164754,5699.585753,-11031.775171
940.821525,1850.514855,4145.153275,-9882.631924
940.821846,2886.803174,148.041188,-10801.946522
940.822166,3552.988522,-2368.659014,-10495.508323
940.822486,2664.741391,-2442.679609,-10418.898773
940.822806,1480.411884,-740.205942,-10342.289223
940.823126,2590.720797,2886.803174,-10189.070123
940.823446,2812.782580,4441.235652,-10725.336972
940.823766,2960.823768,2516.700203,-10265.679673
940.824086,1702.473667,1110.308913,-9959.241474
940.824406,1036.288319,-444.123565,-10342.289223
940.824726,1850.514855,-1110.308913,-9806.022374
940.825046,2368.659014,-1554.432478,-10112.460574
940.825366,592.164754,-592.164754,-9422.974625
940.825686,-1406.391290,-370.102971,-9422.974625
940.826006,-888.247130,-666.185348,-9729.412825
940.826326,-370.102971,1036.288319,-9959.241474
940.826646,-370.102971,1036.288319,-9959.241474
940.826966,-2072.576638,1332.370696,-9806.022374
940.827286,-2516.700203,888.247130,-8810.098227
940.827606,-1702.473667,-740.205942,-9499.584175
940.827926,-1110.308913,-1110.308913,-9576.193725
940.828246,-666.185348,-1406.391290,-9882.631924
940.828566,-444.123565,148.041188,-9729.412825
940.828886,-444.123565,1850.514855,-9959.241474
940.829206,-518.144159,2590.720797,-10035.851024
940.829526,-740.205942,2368.659014,-10725.336972
940.829846,592.164754,814.226536,-10648.727422
940.830166,1332.370696,518.144159,-10572.117872
940.830486,-444.123565,148.041188,-10648.727422
940.830806,-2664.741391,370.102971,-10189.070123
940.831126,-2442.679609,1924.535449,-9959.241474
940.831446,1184.329507,2294.638420,-10189.070123
940.831766,370.102971,1406.391290,-11184.994271
940.832086,-444.123565,592.164754,-9806.022374
940.832406,-444.123565,0.000000,-10495.508323
940.832726,1406.391290,148.041188,-10418.898773
940.833046,1998.556043,1480.411884,-12104.308868
940.833366,-888.247130,814.226536,-10189.070123
940.833686,-962.267725,0.000000,-9346.365076
940.834006,1850.514855,0.000000,-9959.241474
940.834326,5033.400406,-148.041188,-9806.022374
940.834646,5033.400406,740.205942,-10648.727422
940.834966,1036.288319,1110.308913,-9806.022374
940.835286,-666.185348,1184.329507,-9422.974625
940.835606,1406.391290,296.082377,-9959.241474
940.835926,5107.421000,-1332.370696,-9576.193725
940.836246,3256.906145,-1036.288319,-9652.803275
940.836566,-370.102971,0.000000,-9576.193725
940.836886,1110.308913,1702.473667,-9806.022374
940.837206,3627.009116,2146.597232,-9729.412825
940.837526,4071.132681,814.226536,-9806.022374
940.837847,2368.659014,0.000000,-10189.070123
940.838167,2146.597232,-1406.391290,-9039.926876
940.838487,2664.741391,-1036.288319,-9959.241474
940.838807,2220.617826,370.102971,-10572.117872
940.839127,-148.041188,666.185348,-10342.289223
940.839447,-2738.761985,370.102971,-10418.898773
940.839767,-1258.350101,74.020594,-9652.803275
940.840087,-296.082377,-1184.329507,-11108.384721
940.840407,962.267725,-1480.411884,-10801.946522
940.840727,370.102971,-2368.659014,-10189.070123
940.841047,-814.226536,-2146.597232,-10189.070123
940.841367,-296.082377,148.041188,-10725.336972
940.841687,0.000000,592.164754,-11108.384721
940.842007,-1480.411884,1628.453072,-11108.384721
940.842327,-962.267725,1924.535449,-11568.042020
940.842647,148.041188,2220.617826,-10342.289223
940.842967,-1332.370696,2738.761985,-10112.460574
940.843287,-1184.329507,1776.494261,-9959.241474
940.843607,-1258.350101,962.267725,-10035.851024
940.843927,-888.247130,-1554.432478,-10189.070123
940.844247,0.000000,-2220.617826,-9652.803275
940.844567,-1406.391290,-3330.926739,-8503.660028
940.844887,-1332.370696,-2516.700203,-9116.536426
940.845207,444.123565,-1776.494261,-9576.193725
940.845527,370.102971,-148.041188,-10189.070123
940.845847,740.205942,962.267725,-9499.584175
940.846167,-1480.411884,2812.782580,-9652.803275
940.846487,-740.205942,3552.988522,-10189.070123
940.846807,-370.102971,2368.659014,-9806.022374
940.847127,444.123565,-740.205942,-9729.412825
940.847447,148.041188,-3775.050304,-8733.488677
940.847767,-148.041188,-4885.359217,-8733.488677
940.848087,1702.473667,-2590.720797,-9116.536426
940.848407,888.247130,370.102971,-10648.727422
940.848727,-444.123565,3256.906145,-10342.289223
940.849047,-1036.288319,4145.153275,-9806.022374
940.849367,-148.041188,1332.370696,-9806.022374
940.849687,444.123565,-1258.350101,-9652.803275
940.850007,666.185348,-3849.070898,-10265.679673
940.850327,2146.597232,-3849.070898,-9652.803275
940.850647,3849.070898,-1924.535449,-9729.412825
940.850967,4071.132681,1702.473667,-10955.165621
940.851287,1406.391290,3775.050304,-10648.727422
940.851607,666.185348,4737.318029,-10572.117872
940.851927,-222.061783,4663.297435,-10495.508323
940.852247,444.123565,2368.659014,-10801.946522
940.852567,1850.514855,-1110.308913,-10342.289223
940.852887,3849.070898,-2368.659014,-10265.679673
940.853207,1850.514855,-3034.844362,-9806.022374
940.853528,0.000000,-370.102971,-9882.631924
940.853848,592.164754,1776.494261,-10495.508323
940.854168,1406.391290,2664.741391,-10418.898773
940.854488,1702.473667,4811.338623,-10878.556072
940.854808,3034.844362,3627.009116,-10265.679673
940.855128,3182.885551,1702.473667,-10189.070123
940.855448,2812.782580,-1554.432478,-9806.022374
940.855768,2294.638420,-1850.514855,-10495.508323
940.856088,1406.391290,-1110.308913,-10342.289223
940.856408,1406.391290,-740.205942,-9806.022374
940.856728,888.247130,148.041188,-10035.851024
940.857048,-1184.329507,1258.350101,-10112.460574
940.857368,-2294.638420,888.247130,-10495.508323
940.857688,-740.205942,2664.741391,-10035.851024
940.858008,-222.061783,1480.411884,-10035.851024
940.858328,-592.164754,0.000000,-9346.365076
940.858648,74.020594,-1998.556043,-9729.412825
940.858968,1554.432478,-1850.514855,-9193.145976
940.859288,2220.617826,-370.102971,-9959.241474
940.859608,148.041188,1776.494261,-10801.946522
940.859928,-740.205942,2812.782580,-10035.851024
940.860248,-222.061783,2368.659014,-9806.022374
940.860568,1406.391290,2960.823768,-10035.851024
940.860888,1998.556043,1776.494261,-10495.508323
940.861208,-740.205942,1332.370696,-10189.070123
940.861528,-3256.906145,-518.144159,-10265.679673
940.861848,-1628.453072,-444.123565,-9806.022374
940.862168,74.020594,148.041188,-10189.070123
940.862488,-740.205942,888.247130,-10112.460574
940.862808,-3849.070898,2146.597232,-10112.460574
940.863128,-3775.050304,1776.494261,-11261.603821
940.863448,-370.102971,1332.370696,-9882.631924
940.863768,2072.576638,1110.308913,-10572.117872
940.864088,3182.885551,814.226536,-10189.070123
940.864408,1480.411884,444.123565,-10035.851024
940.864728,0.000000,-444.123565,-10495.508323
940.865048,-962.267725,-592.164754,-9729.412825
940.865368,-222.061783,74.020594,-9959.241474
940.865688,666.185348,444.123565,-10265.679673
940.866008,3701.029710,296.082377,-10342.289223
940.866328,3775.050304,1332.370696,-10495.508323
940.866648,3034.844362,1554.432478,-9959.241474
940.866968,3108.864956,1036.288319,-9806.022374
940.867288,3627.009116,-1110.308913,-9729.412825
940.867608,1036.288319,-1554.432478,-9806.022374
940.867928,666.185348,-740.205942,-9346.365076
940.868248,296.082377,-222.061783,-9269.755526
940.868568,2812.782580,1110.308913,-9193.145976
940.868888,3701.029710,74.020594,-10189.070123
940.869208,2812.782580,-592.164754,-10189.070123
940.869529,962.267725,148.041188,-10265.679673
940.869849,74.020594,518.144159,-9652.803275
940.870169,-370.102971,518.144159,-9269.755526
940.870489,740.205942,-1036.288319,-10342.289223
940.870809,1406.391290,-1110.308913,-10342.289223
940.871129,962.267725,-2812.782580,-10572.117872
940.871449,-518.144159,-1332.370696,-9269.755526
940.871769,-1184.329507,-666.185348,-10418.898773
940.872089,-1036.288319,-1258.350101,-10189.070123
940.872409,-222.061783,-1554.432478,-10189.070123
940.872729,962.267725,-1332.370696,-10878.556072
940.873049,-1332.370696,-592.164754,-10112.460574
940.873369,-1850.514855,1184.329507,-10878.556072
940.873689,-3330.926739,3923.091493,-11721.261119
940.874009,-3701.029710,3923.091493,-10035.851024
940.874329,-4145.153275,3775.050304,-10342.289223
940.874649,-2368.659014,888.247130,-10342.289223
940.874969,-1036.288319,-2738.761985,-10112.460574
940.875289,-222.061783,-3552.988522,-10342.289223
940.875609,-1776.494261,-3182.885551,-10265.679673
940.875929,-1924.535449,-1702.473667,-9576.193725
940.876249,-1332.370696,0.000000,-10189.070123
940.876569,-1258.350101,888.247130,-9422.974625
940.876889,962.267725,1628.453072,-10801.946522
940.877209,2368.659014,1998.556043,-10648.727422
940.877529,296.082377,1628.453072,-10112.460574
940.877849,-1998.556043,666.185348,-9806.022374
940.878169,-518.144159,-888.247130,-9882.631924
940.878489,2812.782580,-3256.906145,-9806.022374
940.878809,2516.700203,-3552.988522,-9729.412825
940.879129,-1332.370696,-2294.638420,-9422.974625
940.879449,-1406.391290,0.000000,-9269.755526
940.879769,3552.988522,2368.659014,-10189.070123
940.880089,7254.018232,4367.215058,-10648.727422
940.880409,4663.297435,4071.132681,-10572.117872
940.880729,2220.617826,2442.679609,-10495.508323
940.881049,2146.597232,1036.288319,-9882.631924
940.881369,3034.844362,-1702.473667,-10112.460574
940.881689,2590.720797,-1406.391290,-9729.412825
940.882009,1554.432478,-1554.432478,-9806.022374
940.882329,2220.617826,0.000000,-9806.022374
940.882649,2368.659014,1850.514855,-10495.508323
940.882969,1332.370696,2516.700203,-10572.117872
940.883289,888.247130,3627.009116,-10418.898773
940.883609,3849.070898,4441.235652,-9882.631924
940.883929,5847.626942,2442.679609,-10495.508323
940.884249,4071.132681,592.164754,-10725.336972
940.884569,296.082377,-740.205942,-10035.851024
940.884889,-2220.617826,-1850.514855,-10035.851024
940.885209,-814.226536,-370.102971,-9346.365076
940.885530,-1036.288319,1628.453072,-9806.022374
940.885850,-962.267725,2516.700203,-10265.679673
940.886170,-740.205942,1406.391290,-9959.241474
940.886490,-1110.308913,-518.144159,-10418.898773
940.886810,-222.061783,-1776.494261,-10265.679673
940.887130,74.020594,-1480.411884,-9806.022374
940.887450,-444.123565,74.020594,-10035.851024
940.887770,-1628.453072,1480.411884,-10035.851024
940.888090,-2294.638420,2220.617826,-9806.022374
940.888410,-2664.741391,2368.659014,-10418.898773
940.888730,-2886.803174,370.102971,-10265.679673
940.889050,-2294.638420,0.000000,-10189.070123
940.889370,-222.061783,148.041188,-10189.070123
940.889690,-740.205942,1110.308913,-9959.241474
940.890010,-1406.391290,1184.329507,-9882.631924
940.890330,-518.144159,592.164754,-10189.070123
940.890650,888.247130,814.226536,-10572.117872
940.890970,-740.205942,2516.700203,-10648.727422
940.891290,-370.102971,2960.823768,-9576.193725
940.891610,-296.082377,2442.679609,-9422.974625
940.891930,-1406.391290,74.020594,-10112.460574
940.892250,518.144159,-888.247130,-9116.536426
940.892570,0.000000,-2738.761985,-9806.022374
940.892890,2368.659014,-3627.009116,-9499.584175
940.893210,1406.391290,-1628.453072,-10112.460574
940.893530,444.123565,1036.288319,-9806.022374
940.893850,0.000000,2146.597232,-9959.241474
940.894170,888.247130,2886.803174,-10189.070123
940.894490,1480.411884,0.000000,-9959.241474
940.894810,2146.597232,-1924.535449,-9576.193725
940.895130,2294.638420,-2368.659014,-9959.241474
940.895450,1776.494261,-1406.391290,-9806.022374
940.895770,518.144159,-518.144159,-10035.851024
940.896090,148.041188,0.000000,-9959.241474
940.896410,-518.144159,0.000000,-9959.241474
940.896730,1258.350101,888.247130,-10342.289223
940.897050,1702.473667,888.247130,-10265.679673
940.897370,3478.967927,740.205942,-10342.289223
940.897690,3849.070898,-444.123565,-10189.070123
940.898010,4811.338623,-1702.473667,-10495.508323
940.898330,4515.256246,-444.123565,-10265.679673
940.898650,2368.659014,1184.329507,-10342.289223
940.898970,-222.061783,2886.803174,-10189.070123
940.899290,-518.144159,2442.679609,-10955.165621
940.899610,1850.514855,-74.020594,-10801.946522
940.899930,2294.638420,-3552.988522,-9959.241474
940.900250,370.102971,-2368.659014,-10418.898773
940.900570,-1184.329507,-1332.370696,-9882.631924
940.900890,518.144159,1480.411884,-10265.679673
940.901211,2294.638420,2738.761985,-11031.775171
940.901531,2442.679609,2368.659014,-10572.117872
940.901851,1924.535449,-370.102971,-11031.775171
940.902171,962.267725,-3256.906145,-10112.460574
940.902491,-740.205942,-3775.050304,-9806.022374
940.902811,-3330.926739,-1036.288319,-9882.631924
940.903131,-2368.659014,1036.288319,-8810.098227
940.903451,370.102971,1184.329507,-10725.336972
940.903771,1480.411884,222.061783,-10265.679673
940.904091,370.102971,-2072.576638,-10878.556072
940.904411,-1036.288319,-148.041188,-9882.631924
940.904731,-1480.411884,2886.803174,-9882.631924
940.905051,-666.185348,5329.482782,-10342.289223
940.905371,-740.205942,4589.276840,-10801.946522
940.905691,-962.267725,74.020594,-9959.241474
940.906011,-740.205942,-2072.576638,-9422.974625
940.906331,-2294.638420,-3552.988522,-9652.803275
940.906651,-1924.535449,-3775.050304,-8886.707777
940.906971,-444.123565,-1776.494261,-9422.974625
940.907291,0.000000,888.247130,-10035.851024
940.907611,296.082377,1480.411884,-10342.289223
940.907931,-666.185348,1776.494261,-10342.289223
940.908251,-962.267725,1998.556043,-10725.336972
940.908571,148.041188,814.226536,-10342.289223
940.908891,666.185348,1258.350101,-10648.727422
940.909211,962.267725,1036.288319,-10495.508323
940.909531,1036.288319,-666.185348,-10342.289223
940.909851,0.000000,-444.123565,-11108.384721
940.910171,148.041188,0.000000,-10265.679673
940.910491,-222.061783,888.247130,-10878.556072
940.910811,-740.205942,1776.494261,-9959.241474
940.911131,-666.185348,888.247130,-9882.631924
940.911451,1406.391290,-1184.329507,-10112.460574
940.911771,1776.494261,-666.185348,-9729.412825
940.912091,4515.256246,0.000000,-10648.727422
940.912411,4663.297435,592.164754,-10572.117872
940.912731,3552.988522,2516.700203,-9576.193725
940.913051,2960.823768,3478.967927,-10495.508323
940.913371,4293.194464,3330.926739,-10189.070123
940.913691,4071.132681,1184.329507,-9959.241474
940.914011,1998.556043,666.185348,-9806.022374
940.914331,0.000000,-962.267725,-9039.926876
940.914651,222.061783,-1480.411884,-10035.851024
940.914971,888.247130,-740.205942,-9806.022374
940.915291,-1332.370696,74.020594,-9193.145976
940.915611,-1406.391290,814.226536,-9806.022374
940.915931,-1406.391290,1850.514855,-9806.022374
940.916251,1628.453072,-666.185348,-10035.851024
940.916571,4293.194464,-1776.494261,-9422.974625
940.916891,2368.659014,-1184.329507,-9882.631924
940.917212,740.205942,-1110.308913,-9806.022374
940.917532,1184.329507,148.041188,-9959.241474
940.917852,666.185348,1702.473667,-10725.336972
940.918172,74.020594,1998.556043,-10189.070123
940.918492,74.020594,1998.556043,-9959.241474
940.918812,-814.226536,-444.123565,-10801.946522
940.919132,-1258.350101,-2738.761985,-9806.022374
940.919452,-1702.473667,-2664.741391,-10878.556072
940.919772,-2442.679609,-1110.308913,-10572.117872
940.920092,-2886.803174,1036.288319,-10725.336972
940.920412,-3701.029710,2960.823768,-10112.460574
940.920732,-1184.329507,3256.906145,-10955.165621
940.921052,444.123565,3256.906145,-10878.556072
940.921372,962.267725,1332.370696,-10572.117872
940.921692,1406.391290,-592.164754,-10189.070123
940.922012,1924.535449,-1998.556043,-9652.803275
940.922332,-370.102971,-2146.597232,-9729.412825
940.922652,-1332.370696,518.144159,-10035.851024
940.922972,-1998.556043,3330.926739,-9806.022374
940.923292,-2886.803174,2812.782580,-10035.851024
940.923612,-962.267725,1184.329507,-9422.974625
940.923932,1924.535449,-962.267725,-10035.851024
940.924252,2220.617826,-2738.761985,-9576.193725
940.924572,2516.700203,-2368.659014,-9882.631924
940.924892,370.102971,-814.226536,-9652.803275
940.925212,0.000000,0.000000,-9652.803275
940.925532,2664.741391,2072.576638,-9422.974625
940.925852,3182.885551,2146.597232,-10265.679673
940.926172,2516.700203,1406.391290,-10112.460574
940.926492,1776.494261,370.102971,-9576.193725
940.926812,2738.761985,-1332.370696,-9806.022374
940.927132,4589.276840,-740.205942,-10265.679673
940.927452,2072.576638,222.061783,-10495.508323
940.927772,-518.144159,444.123565,-10342.289223
940.928092,-1110.308913,888.247130,-9576.193725
940.928412,666.185348,1850.514855,-11644.651570
940.928732,1998.556043,2220.617826,-10572.117872
940.929052,1628.453072,1258.350101,-10342.289223
940.929372,296.082377,592.164754,-10418.898773
940.929692,592.164754,518.144159,-10418.898773
940.930012,1850.514855,444.123565,-10801.946522
940.930332,3775.050304,444.123565,-10725.336972
940.930652,3627.009116,814.226536,-10725.336972
940.930972,1998.556043,296.082377,-10035.851024
940.931292,0.000000,1110.308913,-10189.070123
940.931612,-1702.473667,962.267725,-10495.508323
940.931932,-518.144159,-518.144159,-10342.289223
940.932252,-814.226536,-888.247130,-10572.117872
940.932572,222.061783,-1850.514855,-10418.898773
940.932892,0.000000,-2072.576638,-10495.508323
940.933212,-1184.329507,-666.185348,-9959.241474
940.933532,-2368.659014,2146.597232,-10112.460574
940.933852,-1258.350101,4145.153275,-11184.994271
940.934172,-1332.370696,2886.803174,-10725.336972
940.934492,-1406.391290,-518.144159,-10495.508323
940.934812,-518.144159,-2294.638420,-9576.193725
940.935132,1406.391290,-1924.535449,-9576.193725
940.935452,444.123565,1924.535449,-10189.070123
940.935772,-222.061783,3775.050304,-9652.803275
940.936092,0.000000,4589.276840,-10955.165621
940.936412,2072.576638,1850.514855,-9882.631924
940.936732,2146.597232,-2294.638420,-9652.803275
940.937052,444.123565,-3552.988522,-8656.879127
940.937372,-1702.473667,-3256.906145,-8580.269578
940.937692,962.267725,-1036.288319,-9652.803275
940.938012,2590.720797,148.041188,-9806.022374
940.938332,444.123565,1258.350101,-9193.145976
940.938652,-2294.638420,1554.432478,-9499.584175
940.938972,-2220.617826,-148.041188,-9576.193725
940.939292,888.247130,296.082377,-10495.508323
940.939612,1850.514855,74.020594,-9193.145976
940.939932,0.000000,592.164754,-9806.022374
940.940252,1184.329507,-1258.350101,-10035.851024
940.940572,2590.720797,-1702.473667,-10342.289223
940.940892,2146.597232,-1036.288319,-10495.508323
940.941212,148.041188,1924.535449,-10725.336972
940.941532,740.205942,3701.029710,-11261.603821
940.941852,-222.061783,3627.009116,-10801.946522
940.942172,-740.205942,1258.350101,-10572.117872
940.942492,444.123565,-296.082377,-10725.336972
940.942812,1776.494261,-1702.473667,-10418.898773
940.943132,-444.123565,-1554.432478,-10648.727422
940.943452,-666.185348,962.267725,-10342.289223
940.943772,-592.164754,3552.988522,-10801.946522
940.944092,3034.844362,3108.864956,-11031.775171
940.944412,3775.050304,1628.453072,-10801.946522
940.944732,1258.350101,-444.123565,-10189.070123
940.945052,74.020594,-296.082377,-10189.070123
940.945372,1258.350101,-296.082377,-9882.631924
940.945692,518.144159,444.123565,-10265.679673
940.946012,-666.185348,444.123565,-9882.631924
940.946332,-1406.391290,-518.144159,-9346.365076
940.946652,-1702.473667,-1480.411884,-9269.755526
940.946972,666.185348,-1480.411884,-10495.508323
940.947292,1850.514855,-740.205942,-9576.193725
940.947612,1184.329507,-740.205942,-9806.022374
940.947932,0.000000,-296.082377,-9652.803275
940.948252,1628.453072,-1850.514855,-9499.584175
940.948572,962.267725,-740.205942,-9882.631924
940.948892,0.000000,0.000000,-9882.631924
940.949212,-296.082377,888.247130,-9729.412825
940.949532,962.267725,962.267725,-10189.070123
940.949852,2294.638420,1258.350101,-10189.070123
940.950172,1258.350101,1554.432478,-10495.508323
940.950492,0.000000,592.164754,-10035.851024
940.950812,-444.123565,0.000000,-9652.803275
940.951132,-1776.494261,-814.226536,-10112.460574
940.951452,-2072.576638,-740.205942,-9422.974625
940.951772,962.267725,-518.144159,-10418.898773
940.952092,1628.453072,1850.514855,-10955.165621
940.952412,-296.082377,3775.050304,-10801.946522
940.952732,-444.123565,3923.091493,-9882.631924
940.953052,1554.432478,2738.761985,-10572.117872
940.953372,3108.864956,1036.288319,-10342.289223
940.953692,2146.597232,296.082377,-10572.117872
940.954012,1332.370696,-3034.844362,-9806.022374
940.954332,1406.391290,-2664.741391,-10418.898773
940.954652,74.020594,74.020594,-10189.070123
940.954972,-444.123565,2368.659014,-10265.679673
940.955292,-1036.288319,2516.700203,-9806.022374
940.955612,-592.164754,2220.617826,-9806.022374
940.955932,1258.350101,-1110.308913,-9652.803275
940.956252,2812.782580,-2738.761985,-10112.460574
940.956572,1850.514855,-1924.535449,-9576.193725
940.956892,-888.247130,-962.267725,-9806.022374
940.957212,-1628.453072,0.000000,-8810.098227
940.957532,370.102971,1702.473667,-9806.022374
940.957852,1036.288319,1554.432478,-10572.117872
940.958172,1628.453072,518.144159,-9806.022374
940.958492,2886.803174,888.247130,-9959.241474
940.958812,4367.215058,1258.350101,-10648.727422
940.959132,2516.700203,2294.638420,-10035.851024
940.959452,518.144159,2146.597232,-10878.556072
940.959772,-2146.597232,-444.123565,-9806.022374
940.960092,-2368.659014,222.061783,-9346.365076
940.960412,-1924.535449,-370.102971,-9882.631924
940.960732,518.144159,-1406.391290,-10112.460574
940.961052,2368.659014,-444.123565,-10418.898773
940.961372,2886.803174,-370.102971,-10112.460574
940.961692,888.247130,222.061783,-9882.631924
940.962012,-2220.617826,1850.514855,-10265.679673
940.962332,-962.267725,3034.844362,-11338.213370
940.962652,148.041188,1776.494261,-11644.651570
940.962972,592.164754,-814.226536,-11414.822920
940.963292,-222.061783,-2516.700203,-10342.289223
940.963612,-1258.350101,-2516.700203,-10418.898773
940.963932,-2146.597232,-814.226536,-10189.070123
940.964252,-3849.070898,1998.556043,-10495.508323
940.964572,-2812.782580,2812.782580,-10035.851024
940.964892,-296.082377,888.247130,-10648.727422
940.965212,3108.864956,-1480.411884,-10189.070123
940.965532,4293.194464,-2146.597232,-9959.241474
940.965852,1036.288319,-2072.576638,-9499.584175
940.966172,-518.144159,370.102971,-9959.241474
940.966492,-2368.659014,1184.329507,-8503.660028
940.966812,-814.226536,2146.597232,-10418.898773
940.967132,444.123565,1924.535449,-9193.145976
940.967452,1332.370696,-370.102971,-9652.803275
940.967772,1702.473667,-1406.391290,-9193.145976
940.968092,296.082377,-1258.350101,-9499.584175
940.968412,444.123565,0.000000,-10035.851024
940.968732,-592.164754,444.123565,-9116.536426
940.969052,0.000000,1998.556043,-10189.070123
940.969372,-444.123565,296.082377,-9193.145976
940.969692,1554.432478,-518.144159,-10342.289223
940.970012,4811.338623,-888.247130,-10035.851024
940.970332,4959.379811,444.123565,-10112.460574
940.970652,2960.823768,3478.967927,-10495.508323
940.970972,2738.761985,3552.988522,-11031.775171
940.971292,2886.803174,2146.597232,-9576.193725
940.971612,2664.741391,-1110.308913,-10648.727422
940.971932,1850.514855,-3627.009116,-9576.193725
940.972252,592.164754,-3330.926739,-9652.803275
940.972572,74.020594,-1110.308913,-10189.070123
940.972892,2072.576638,2590.720797,-10265.679673
940.973212,2664.741391,5107.421000,-11644.651570
940.973532,1702.473667,4737.318029,-10955.165621
940.973852,-1258.350101,2664.741391,-10112.460574
940.974172,-592.164754,444.123565,-10801.946522
940.974492,1184.329507,-444.123565,-10418.898773
940.974812,1184.329507,-888.247130,-9806.022374
940.975132,2146.597232,0.000000,-10648.727422
940.975452,2220.617826,1184.329507,-10112.460574
940.975772,740.205942,1480.411884,-10955.165621
940.976092,-1184.329507,2146.597232,-10725.336972
940.976412,592.164754,5255.462188,-10648.727422
940.976732,-888.247130,5181.441594,-10342.289223
940.977052,-592.164754,-518.144159,-11184.994271
940.977372,-1036.288319,-3108.864956,-9116.536426
940.977692,-1776.494261,-6365.771101,-8733.488677
940.978012,518.144159,-7105.977043,-9193.145976
940.978332,-2368.659014,-2294.638420,-8656.879127
940.978652,-4737.318029,1036.288319,-10035.851024
940.978972,-370.102971,4071.132681,-9422.974625
940.979292,2294.638420,4885.359217,-10572.117872
940.979612,888.247130,1332.370696,-10112.460574
940.979932,-1480.411884,-1850.514855,-9422.974625
940.980252,-962.267725,-3923.091493,-10648.727422
940.980572,-1480.411884,-3404.947333,-9269.755526
940.980892,-3182.885551,-2294.638420,-9729.412825
940.981212,-3330.926739,148.041188,-9729.412825
940.981532,-1998.556043,-74.020594,-8733.488677
940.981852,962.267725,1480.411884,-11261.603821
940.982172,1110.308913,1554.432478,-10572.117872
940.982492,1184.329507,1554.432478,-10801.946522
940.982812,-148.041188,1258.350101,-10495.508323
940.983132,444.123565,148.041188,-9806.022374
940.983452,1480.411884,666.185348,-10495.508323
940.983772,962.267725,1406.391290,-10418.898773
940.984092,1406.391290,1184.329507,-9882.631924
940.984412,1924.535449,1036.288319,-10648.727422
940.984733,1776.494261,0.000000,-10189.070123
940.985053,962.267725,-740.205942,-10495.508323
940.985373,888.247130,-814.226536,-9882.631924
940.985693,1554.432478,-370.102971,-10878.556072
940.986013,3256.906145,-370.102971,-9806.022374
940.986333,2294.638420,-1258.350101,-10035.851024
940.986653,2590.720797,222.061783,-10418.898773
940.986973,2960.823768,962.267725,-9039.926876
940.987293,4441.235652,1406.391290,-10725.336972
940.987613,4737.318029,1702.473667,-10112.460574
940.987933,3108.864956,1924.535449,-10342.289223
940.988253,2664.741391,666.185348,-9959.241474
940.988573,1776.494261,-740.205942,-9116.536426
940.988893,518.144159,-2442.679609,-9729.412825
940.989213,-592.164754,-2886.803174,-9882.631924
940.989533,222.061783,-1480.411884,-9652.803275
940.989853,814.226536,2220.617826,-9806.022374
940.990173,814.226536,3552.988522,-9576.193725
940.990493,518.144159,3923.091493,-10189.070123
940.990813,1480.411884,1110.308913,-10112.460574
940.991133,3108.864956,-370.102971,-10342.289223
940.991453,2072.576638,-592.164754,-9499.584175
940.991773,666.185348,-1480.411884,-9729.412825
940.992093,-1554.432478,-740.205942,-9652.803275
940.992413,-1406.391290,1406.391290,-10572.117872
940.992733,-518.144159,3404.947333,-10495.508323
940.993053,-2220.617826,3108.864956,-10878.556072
940.993373,-3034.844362,814.226536,-10342.289223
940.993693,-1628.453072,-962.267725,-10418.898773
940.994013,1258.350101,-444.123565,-11261.603821
940.994333,518.144159,74.020594,-11184.994271
940.994653,-3256.906145,74.020594,-10265.679673
940.994973,-4515.256246,1036.288319,-9806.022374
940.995293,-3108.864956,1924.535449,-9959.241474
940.995613,888.247130,666.185348,-10342.289223
940.995933,1776.494261,-1406.391290,-10418.898773
940.996253,0.000000,-1258.350101,-9039.926876
940.996573,-1332.370696,148.041188,-10265.679673
940.996893,-1924.535449,888.247130,-9729.412825
940.997213,-518.144159,1850.514855,-9959.241474
940.997533,-2812.782580,1480.411884,-9346.365076
940.997853,0.000000,2590.720797,-9959.241474
940.998173,-1628.453072,-666.185348,-8810.098227
940.998493,-1924.535449,-3627.009116,-9346.365076
940.998813,0.000000,-3701.029710,-8886.707777
940.999133,888.247130,-1702.473667,-9729.412825
940.999453,2442.679609,2072.576638,-9806.022374
940.999773,3330.926739,3923.091493,-11568.042020
941.000093,3256.906145,4737.318029,-10725.336972
941.000413,2368.659014,2146.597232,-10955.165621
941.000733,1110.308913,-888.247130,-9576.193725
941.001053,-148.041188,-1850.514855,-9652.803275
941.001373,0.000000,-1332.370696,-10955.165621
941.001693,3256.906145,518.144159,-10955.165621
941.002013,3330.926739,1554.432478,-9959.241474
941.002333,3034.844362,1110.308913,-11108.384721
941.002653,-518.144159,888.247130,-10342.289223
941.002973,-444.123565,0.000000,-10495.508323
941.003293,2368.659014,74.020594,-10265.679673
941.003613,2664.741391,1184.329507,-9882.631924
941.003933,2886.803174,962.267725,-10495.508323
941.004253,2072.576638,0.000000,-10495.508323
941.004573,3849.070898,-2368.659014,-10418.898773
941.004893,7031.956449,-2664.741391,-10035.851024
941.005213,3923.091493,0.000000,-9806.022374
941.005533,1628.453072,2960.823768,-10265.679673
941.005853,-2294.638420,4589.276840,-10035.851024
941.006173,-1184.329507,1480.411884,-10648.727422
941.006493,-370.102971,296.082377,-9959.241474
941.006813,-296.082377,-2590.720797,-9806.022374
941.007133,-888.247130,-3923.091493,-9269.755526
941.007453,-1184.329507,-3256.906145,-8733.488677
941.007773,2368.659014,-962.267725,-9806.022374
941.008093,1628.453072,2368.659014,-10189.070123
941.008413,-370.102971,2886.803174,-10112.460574
941.008733,-2442.679609,1776.494261,-9882.631924
941.009053,-2812.782580,740.205942,-9806.022374
941.009373,666.185348,296.082377,-10265.679673
941.009693,2220.617826,-370.102971,-9729.412825
941.010013,-222.061783,-2368.659014,-9422.974625
941.010333,-1702.473667,-2368.659014,-10112.460574
941.010653,-1628.453072,-1702.473667,-10418.898773
941.010973,-1480.411884,0.000000,-10112.460574
941.011293,-1332.370696,1406.391290,-10495.508323
941.011613,-2738.761985,2590.720797,-10572.117872
941.011933,-2368.659014,2738.761985,-10495.508323
941.012253,-814.226536,1332.370696,-10955.165621
941.012573,-666.185348,-814.226536,-9193.145976
941.012893,0.000000,-2368.659014,-10495.508323
941.013213,-666.185348,0.000000,-10725.336972
941.013533,-814.226536,296.082377,-10112.460574
941.013853,1924.535449,1332.370696,-10495.508323
941.014173,888.247130,2516.700203,-9422.974625
941.014493,1110.308913,2738.761985,-10648.727422
941.014813,1406.391290,2368.659014,-10801.946522
941.015133,1184.329507,2220.617826,-10955.165621
941.015453,1554.432478,1036.288319,-9882.631924
941.015773,3108.864956,148.041188,-10189.070123
941.016093,1850.514855,-2072.576638,-9576.193725
941.016413,2368.659014,-1184.329507,-9729.412825
941.016733,2960.823768,2590.720797,-10418.898773
941.017053,1702.473667,2072.576638,-9806.022374
941.017373,74.020594,814.226536,-9729.412825
941.017693,-2294.638420,1776.494261,-9422.974625
941.018013,-1702.473667,962.267725,-9806.022374
941.018333,2812.782580,-1036.288319,-9422.974625
941.018653,4885.359217,-1776.494261,-9959.241474
941.018973,4145.153275,-1036.288319,-9806.022374
941.019293,3256.906145,814.226536,-9806.022374
941.019613,2220.617826,2146.597232,-9959.241474
941.019933,4219.173869,3997.112087,-10189.070123
941.020253,3034.844362,3034.844362,-10572.117872
941.020573,3182.885551,0.000000,-10112.460574
941.020893,4219.173869,-74.020594,-10189.070123
941.021213,1702.473667,-1480.411884,-10035.851024
941.021533,518.144159,1406.391290,-10725.336972
941.021853,-1554.432478,2072.576638,-9806.022374
941.022173,962.267725,1702.473667,-10801.946522
941.022493,592.164754,296.082377,-9269.755526
941.022813,0.000000,74.020594,-10418.898773
941.023133,-2368.659014,-1332.370696,-9806.022374
941.023453,-2368.659014,-148.041188,-9806.022374
941.023773,-1184.329507,-222.061783,-9806.022374
941.024093,-2590.720797,-1036.288319,-10265.679673
941.024413,-3701.029710,-3552.988522,-8886.707777
941.024734,-1332.370696,-1110.308913,-9959.241474
941.025054,-1258.350101,296.082377,-9729.412825
941.025374,0.000000,2812.782580,-11261.603821
941.025694,-1924.535449,74.020594,-10495.508323
941.026014,-1628.453072,-740.205942,-10725.336972
941.026334,-814.226536,-1480.411884,-9959.241474
941.026654,-1184.329507,-1628.453072,-10418.898773
941.026974,-2146.597232,-518.144159,-9652.803275
941.027294,-2516.700203,1406.391290,-10725.336972
941.027614,-1184.329507,2442.679609,-10572.117872
941.027935,-666.185348,1332.370696,-10725.336972
941.028255,-1850.514855,-518.144159,-9959.241474
941.028575,-888.247130,-1110.308913,-9576.193725
941.028895,222.061783,-2072.576638,-9806.022374
941.029215,2072.576638,-1998.556043,-9806.022374
941.029535,2442.679609,-1554.432478,-9116.536426
941.029855,1998.556043,-592.164754,-10035.851024
941.030175,0.000000,-222.061783,-9576.193725
941.030495,1258.350101,1332.370696,-9806.022374
941.030815,2664.741391,2294.638420,-10495.508323
941.031136,2294.638420,2294.638420,-9806.022374
941.031456,-148.041188,1258.350101,-9959.241474
941.031776,-592.164754,-2146.597232,-9806.022374
941.032096,148.041188,-2294.638420,-9499.584175
941.032416,666.185348,-888.247130,-10495.508323
941.032736,1406.391290,0.000000,-9729.412825
941.033056,1628.453072,444.123565,-10648.727422
941.033376,2886.803174,1480.411884,-10572.117872
941.033696,6513.812290,2368.659014,-11031.775171
941.034016,7105.977043,2072.576638,-10342.289223
941.034336,5033.400406,1258.350101,-11108.384721
941.034657,2146.597232,888.247130,-10342.289223
941.034977,888.247130,888.247130,-10878.556072
941.035297,1184.329507,518.144159,-10189.070123
941.035617,1924.535449,0.000000,-10112.460574
941.035937,1332.370696,518.144159,-10495.508323
941.036257,1554.432478,1850.514855,-11108.384721
941.036577,1258.350101,444.123565,-10495.508323
941.036897,2294.638420,2368.659014,-11031.775171
941.037217,370.102971,1850.514855,-9882.631924
941.037537,-740.205942,2220.617826,-9499.584175
941.037858,-2294.638420,-444.123565,-9729.412825
941.038178,-296.082377,-888.247130,-9422.974625
941.038498,-1110.308913,0.000000,-9039.926876
941.038818,962.267725,962.267725,-9422.974625
941.039138,1184.329507,1332.370696,-9499.584175
941.039458,2220.617826,-666.185348,-9499.584175
941.039778,1406.391290,-3404.947333,-8427.050478
941.040098,-518.144159,-3330.926739,-8810.098227
941.040418,-2886.803174,-2072.576638,-8656.879127
941.040738,-3404.947333,518.144159,-9576.193725
941.041059,-2886.803174,3552.988522,-10189.070123
941.041379,-2960.823768,4737.318029,-11184.994271
941.041699,-2294.638420,2812.782580,-10035.851024
941.042019,-2294.638420,-74.020594,-9959.241474
941.042339,-2738.761985,-1554.432478,-10342.289223
941.042659,-2738.761985,-1184.329507,-9499.584175
941.042979,-444.123565,-222.061783,-10189.070123
941.043299,1554.432478,888.247130,-10265.679673
941.043619,2590.720797,2516.700203,-11184.994271
941.043939,1850.514855,3775.050304,-11568.042020
941.044260,1702.473667,4589.276840,-11644.651570
941.044580,888.247130,5477.523971,-11644.651570
941.044900,962.267725,3108.864956,-11568.042020
941.045220,814.226536,888.247130,-10572.117872
941.045540,1184.329507,-1998.556043,-10572.117872
941.045860,222.061783,-2072.576638,-10189.070123
941.046180,-2812.782580,-888.247130,-10265.679673
941.046500,-2072.576638,1554.432478,-10342.289223
941.046820,296.082377,2220.617826,-9959.241474
941.047140,1554.432478,3182.885551,-10801.946522
941.047460,3923.091493,2664.741391,-10189.070123
941.047781,3775.050304,1184.329507,-10265.679673
941.048101,3182.885551,74.020594,-9652.803275
941.048421,3108.864956,-1850.514855,-8810.098227
941.048741,1776.494261,-1258.350101,-9116.536426
941.049061,1184.329507,-814.226536,-8963.317327
941.049381,1998.556043,-222.061783,-9346.365076
941.049701,3182.885551,-222.061783,-9422.974625
941.050021,3256.906145,1184.329507,-9576.193725
941.050341,2516.700203,888.247130,-9729.412825
941.050661,1998.556043,296.082377,-9193.145976
941.050982,888.247130,-1258.350101,-9193.145976
941.051302,1258.350101,-1480.411884,-9346.365076
941.051622,1036.288319,-1776.494261,-9576.193725
941.051942,1554.432478,-1258.350101,-10035.851024
941.052262,1554.432478,74.020594,-9959.241474
941.052582,2072.576638,-148.041188,-10418.898773
941.052902,888.247130,148.041188,-9806.022374
941.053222,0.000000,-444.123565,-10418.898773
941.053542,-592.164754,-518.144159,-11261.603821
941.053862,-3552.988522,-1036.288319,-10878.556072
941.054183,-3478.967927,-888.247130,-11644.651570
941.054503,-4071.132681,-1850.514855,-10189.070123
941.054823,-2664.741391,-2146.597232,-10342.289223
941.055143,-1036.288319,-1628.453072,-11031.775171
941.055463,-1258.350101,-1628.453072,-10418.898773
941.055783,888.247130,0.000000,-11414.822920
941.056103,1924.535449,1110.308913,-10955.165621
941.056423,1332.370696,2146.597232,-11184.994271
941.056743,-1554.432478,1258.350101,-10648.727422
941.057063,-3923.091493,-740.205942,-10342.289223
941.057383,-3330.926739,-1554.432478,-10112.460574
941.057704,-962.267725,-4071.132681,-9806.022374
941.058024,0.000000,-3849.070898,-9806.022374
941.058344,-2220.617826,-2220.617826,-8963.317327
941.058664,-1036.288319,-444.123565,-9652.803275
941.058984,-1406.391290,3478.967927,-9959.241474
941.059304,370.102971,3997.112087,-10572.117872
941.059624,-296.082377,2516.700203,-9806.022374
941.059944,962.267725,-888.247130,-9039.926876
941.060264,2220.617826,-2368.659014,-9499.584175
941.060584,1924.535449,-2294.638420,-8886.707777
941.060905,3330.926739,444.123565,-9882.631924
941.061225,2072.576638,2738.761985,-10035.851024
941.061545,1850.514855,1998.556043,-9193.145976
941.061865,1406.391290,444.123565,-9039.926876
941.062185,888.247130,370.102971,-10265.679673
941.062505,518.144159,-666.185348,-10189.070123
941.062825,2220.617826,370.102971,-10112.460574
941.063145,2294.638420,1776.494261,-10035.851024
941.063465,3552.988522,3034.844362,-10035.851024
941.063785,3923.091493,1850.514855,-10955.165621
941.064106,5255.462188,1184.329507,-11031.775171
941.064426,4811.338623,1998.556043,-10801.946522
941.064746,2294.638420,2960.823768,-10955.165621
941.065066,148.041188,3997.112087,-10265.679673
941.065386,-444.123565,2886.803174,-10648.727422
941.065706,962.267725,1406.391290,-10648.727422
941.066026,518.144159,-1628.453072,-10189.070123
941.066346,-2294.638420,-1036.288319,-9499.584175
941.066666,-2442.679609,666.185348,-9729.412825
941.066986,148.041188,3552.988522,-11108.384721
941.067307,888.247130,3256.906145,-10648.727422
941.067627,148.041188,1776.494261,-9729.412825
941.067947,1554.432478,-1036.288319,-9269.755526
941.068267,3404.947333,-666.185348,-10112.460574
941.068587,4811.338623,1036.288319,-11184.994271
941.068907,2220.617826,2738.761985,-10112.460574
941.069227,-1702.473667,1924.535449,-9576.193725
941.069547,-4737.318029,1480.411884,-9806.022374
941.069867,-3552.988522,-1036.288319,-9346.365076
941.070187,-2590.720797,-1036.288319,-9576.193725
941.070507,-1036.288319,-666.185348,-9959.241474
941.070828,-1480.411884,-1184.329507,-9346.365076
941.071148,-1258.350101,-1110.308913,-9039.926876
941.071468,-222.061783,-1554.432478,-9959.241474
941.071788,592.164754,666.185348,-10035.851024
941.072108,-148.041188,2812.782580,-10418.898773
941.072428,-1258.350101,3775.050304,-9806.022374
941.072748,-518.144159,2664.741391,-9882.631924
941.073068,-222.061783,370.102971,-10342.289223
941.073388,1628.453072,-1702.473667,-10418.898773
941.073708,-222.061783,-4145.153275,-9652.803275
941.074029,-2220.617826,-3849.070898,-9576.193725
941.074349,-2886.803174,-2368.659014,-9346.365076
941.074669,-518.144159,-296.082377,-10878.556072
941.074989,1554.432478,3034.844362,-10878.556072
941.075309,2220.617826,3627.009116,-10801.946522
941.075629,1850.514855,3182.885551,-11414.822920
941.075949,1480.411884,74.020594,-10035.851024
941.076269,2812.782580,74.020594,-10572.117872
941.076589,2072.576638,1110.308913,-10725.336972
941.076909,1480.411884,1776.494261,-10418.898773
941.077230,740.205942,0.000000,-11338.213370
941.077550,1998.556043,-2220.617826,-10418.898773
941.077870,666.185348,-2442.679609,-10189.070123
941.078190,-1258.350101,-1924.535449,-10189.070123
941.078510,-1924.535449,-1258.350101,-9499.584175
941.078830,814.226536,1406.391290,-10878.556072
941.079150,3997.112087,74.020594,-9882.631924
941.079470,6069.688724,-1036.288319,-10265.679673
941.079790,4737.318029,-1110.308913,-9729.412825
941.080110,2664.741391,0.000000,-10572.117872
941.080431,1036.288319,370.102971,-9806.022374
941.080751,3701.029710,1332.370696,-9959.241474
941.081071,3478.967927,1776.494261,-10955.165621
941.081391,1628.453072,-444.123565,-10265.679673
941.081711,-370.102971,-2960.823768,-9882.631924
941.082031,1702.473667,-2886.803174,-9882.631924
941.082351,3034.844362,-1924.535449,-9729.412825
941.082671,518.144159,1184.329507,-9806.022374
941.082991,-1702.473667,444.123565,-9269.755526
941.083311,-1332.370696,592.164754,-10112.460574
941.083631,370.102971,-666.185348,-10112.460574
941.083952,3330.926739,148.041188,-10572.117872
941.084272,1998.556043,0.000000,-9882.631924
941.084592,370.102971,2146.597232,-10418.898773
941.084912,0.000000,1628.453072,-10648.727422
941.085232,0.000000,444.123565,-9729.412825
941.085552,-148.041188,-740.205942,-10112.460574
941.085872,-2960.823768,-1332.370696,-9806.022374
941.086192,-3552.988522,-518.144159,-9499.584175
941.086512,-1776.494261,-592.164754,-10265.679673
941.086832,-370.102971,296.082377,-9959.241474
941.087153,-1332.370696,1406.391290,-9806.022374
941.087473,-2516.700203,-814.226536,-10342.289223
941.087793,-1628.453072,-1110.308913,-9729.412825
941.088113,888.247130,-1332.370696,-10572.117872
941.088433,666.185348,1480.411884,-10189.070123
941.088753,-1184.329507,2072.576638,-10112.460574
941.089073,-2442.679609,2738.761985,-10418.898773
941.089393,-1110.308913,222.061783,-10112.460574
941.089713,222.061783,666.185348,-10189.070123
941.090033,-1110.308913,1480.411884,-10112.460574
941.090354,-4589.276840,1554.432478,-9882.631924
941.090674,-3997.112087,1110.308913,-9576.193725
941.090994,444.123565,-296.082377,-9422.974625
941.091314,3849.070898,-1406.391290,-9882.631924
941.091634,7328.038826,74.020594,-9422.974625
941.091954,2738.761985,444.123565,-11338.213370
941.092274,740.205942,2590.720797,-9346.365076
941.092594,74.020594,4071.132681,-10189.070123
941.092914,1776.494261,2960.823768,-10035.851024
941.093234,3701.029710,2442.679609,-10648.727422
941.093555,962.267725,-1036.288319,-10112.460574
941.093875,0.000000,-2072.576638,-9116.536426
941.094195,2146.597232,-1850.514855,-9882.631924
941.094515,3849.070898,148.041188,-10418.898773
941.094835,1776.494261,2960.823768,-10648.727422
941.095155,0.000000,4145.153275,-11568.042020
941.095475,1332.370696,3849.070898,-9959.241474
941.095795,2146.597232,2664.741391,-11031.775171
941.096115,5033.400406,2146.597232,-10495.508323
941.096435,3701.029710,518.144159,-10648.727422
941.096755,2146.597232,-1184.329507,-10342.289223
941.097076,2442.679609,-888.247130,-9499.584175
941.097396,4293.194464,444.123565,-10342.289223
941.097716,4071.132681,2220.617826,-10495.508323
941.098036,2664.741391,2442.679609,-10418.898773
941.098356,0.000000,2738.761985,-10495.508323
941.098676,-2516.700203,1480.411884,-9346.365076
941.098996,-2442.679609,0.000000,-9499.584175
941.099316,296.082377,-2220.617826,-9806.022374
941.099636,1924.535449,-2960.823768,-8963.317327
941.099956,666.185348,-3478.967927,-9116.536426
941.100277,-2738.761985,-1702.473667,-9116.536426
941.100597,-3256.906145,888.247130,-9346.365076
941.100917,-2368.659014,1924.535449,-9576.193725
941.101237,-1554.432478,2738.761985,-9346.365076
941.101557,-2368.659014,296.082377,-9806.022374
941.101877,-1998.556043,-1702.473667,-9959.241474
941.102197,-666.185348,-3627.009116,-10112.460574
941.102517,-370.102971,-1924.535449,-9806.022374
941.102837,-1258.350101,-370.102971,-10112.460574
941.103157,-2516.700203,-370.102971,-9806.022374
941.103478,-2220.617826,444.123565,-10265.679673
941.103798,-444.123565,518.144159,-10495.508323
941.104118,1628.453072,740.205942,-11184.994271
941.104438,1924.535449,444.123565,-10955.165621
941.104758,1554.432478,740.205942,-10112.460574
941.105078,592.164754,1554.432478,-10955.165621
941.105398,1480.411884,1702.473667,-11644.651570
941.105718,1332.370696,814.226536,-10572.117872
941.106038,-962.267725,0.000000,-10035.851024
941.106358,-2146.597232,-1036.288319,-10418.898773
941.106679,-814.226536,-370.102971,-10265.679673
941.106999,-296.082377,1850.514855,-10342.289223
941.107319,-740.205942,3849.070898,-10265.679673
941.107639,0.000000,3552.988522,-10418.898773
941.107959,2368.659014,2072.576638,-10495.508323
941.108279,4145.153275,592.164754,-10189.070123
941.108599,3108.864956,-592.164754,-9806.022374
941.108919,2368.659014,-1332.370696,-9422.974625
941.109239,3256.906145,-740.205942,-9652.803275
941.109559,4737.318029,296.082377,-9346.365076
941.109879,5107.421000,1480.411884,-9882.631924
941.110200,3404.947333,2368.659014,-10572.117872
941.110520,2220.617826,1924.535449,-9499.584175
941.110840,1850.514855,2146.597232,-9959.241474
941.111160,518.144159,1998.556043,-9882.631924
941.111480,1110.308913,888.247130,-9576.193725
941.111800,2368.659014,-222.061783,-9882.631924
941.112120,3330.926739,-1628.453072,-9882.631924
941.112440,1628.453072,-1110.308913,-9346.365076
941.112760,666.185348,1036.288319,-9882.631924
941.113080,3552.988522,2738.761985,-10495.508323
941.113401,4663.297435,5033.400406,-10418.898773
941.113721,2886.803174,5033.400406,-10955.165621
941.114041,1480.411884,2960.823768,-9882.631924
941.114361,1850.514855,1406.391290,-10495.508323
941.114681,2812.782580,518.144159,-10112.460574
941.115001,148.041188,1110.308913,-10265.679673
941.115321,-2294.638420,1850.514855,-10189.070123
941.115641,-2072.576638,1480.411884,-9882.631924
941.115961,296.082377,2294.638420,-11184.994271
941.116281,2738.761985,2812.782580,-10418.898773
941.116602,1998.556043,2220.617826,-9882.631924
941.116922,-1332.370696,2146.597232,-9959.241474
941.117242,-592.164754,814.226536,-9959.241474
941.117562,1258.350101,1258.350101,-9959.241474
941.117882,2220.617826,2442.679609,-10418.898773
941.118202,888.247130,3256.906145,-10035.851024
941.118522,888.247130,3330.926739,-10725.336972
941.118842,2072.576638,2590.720797,-9729.412825
941.119162,2664.741391,2886.803174,-10112.460574
941.119482,2738.761985,2368.659014,-10035.851024
941.119803,-370.102971,1036.288319,-10189.070123
941.120123,-2220.617826,148.041188,-9806.022374
941.120443,-1480.411884,148.041188,-8733.488677
941.120763,592.164754,2664.741391,-9729.412825
941.121083,4293.194464,2960.823768,-9959.241474
941.121403,5699.585753,4811.338623,-9882.631924
941.121723,5847.626942,4145.153275,-10878.556072
941.122043,5477.523971,2812.782580,-9806.022374
941.122363,3256.906145,3701.029710,-9729.412825
941.122683,2516.700203,2886.803174,-10725.336972
941.123003,2146.597232,3256.906145,-9882.631924
941.123324,1998.556043,2960.823768,-9959.241474
941.123644,2664.741391,1628.453072,-10801.946522
941.123964,3627.009116,1702.473667,-9882.631924
941.124284,2664.741391,2664.741391,-10801.946522
941.124604,3108.864956,3775.050304,-11184.994271
941.124924,3552.988522,5403.503377,-9806.022374
941.125244,3034.844362,5477.523971,-11338.213370
941.125564,3552.988522,4145.153275,-10112.460574
941.125884,3849.070898,1924.535449,-9806.022374
941.126204,5403.503377,-444.123565,-10955.165621
941.126524,7624.121203,-888.247130,-9576.193725
941.126844,7698.141797,814.226536,-10265.679673
941.127164,4441.235652,3404.947333,-10725.336972
941.127484,2368.659014,4737.318029,-10189.070123
941.127804,1628.453072,4959.379811,-10265.679673
941.128124,1110.308913,3256.906145,-10418.898773
941.128444,592.164754,2368.659014,-9269.755526
941.128764,296.082377,1332.370696,-10112.460574
941.129084,2072.576638,1258.350101,-9269.755526
941.129404,2960.823768,1776.494261,-9576.193725
941.129724,2368.659014,2960.823768,-9806.022374
941.130044,2590.720797,3849.070898,-10112.460574
941.130363,3330.926739,2294.638420,-10112.460574
941.130683,3478.967927,2368.659014,-9346.365076
941.131003,1850.514855,2664.741391,-9652.803275
941.131323,1406.391290,2368.659014,-10112.460574
941.131643,740.205942,1702.473667,-9729.412825
941.131963,962.267725,1702.473667,-9576.193725
941.132283,1110.308913,1702.473667,-9806.022374
941.132603,2442.679609,2368.659014,-10112.460574
941.132923,1554.432478,2590.720797,-10189.070123
941.133243,148.041188,3034.844362,-9882.631924
941.133563,0.000000,2516.700203,-10112.460574
941.133883,444.123565,1702.473667,-10112.460574
941.134203,370.102971,1184.329507,-9806.022374
941.134523,222.061783,1332.370696,-10035.851024
941.134843,1554.432478,2442.679609,-10801.946522
941.135163,2960.823768,3256.906145,-10725.336972
941.135483,3627.009116,4589.276840,-10265.679673
941.135803,3034.844362,3923.091493,-11338.213370
941.136123,2146.597232,3923.091493,-10418.898773
941.136443,444.123565,3034.844362,-10801.946522
941.136763,222.061783,2442.679609,-9269.755526
941.137083,814.226536,2072.576638,-10035.851024
941.137403,1258.350101,1850.514855,-10265.679673
941.137723,1184.329507,1480.411884,-9882.631924
941.138043,1332.370696,1702.473667,-9882.631924
941.138363,3849.070898,2738.761985,-9652.803275
941.138683,3478.967927,3849.070898,-10189.070123
941.139003,2072.576638,3701.029710,-10035.851024
941.139323,888.247130,3478.967927,-9806.022374
941.139642,2738.761985,1110.308913,-9806.022374
941.139962,4219.173869,1184.329507,-9729.412825
941.140282,4145.153275,518.144159,-9882.631924
941.140602,3627.009116,1480.411884,-9422.974625
941.140922,4145.153275,2220.617826,-9806.022374
941.141242,3997.112087,3478.967927,-10035.851024
941.141562,2590.720797,3478.967927,-10265.679673
941.141882,1776.494261,2812.782580,-9576.193725
941.142202,1776.494261,1628.453072,-9882.631924
941.142522,3552.988522,1184.329507,-9346.365076
941.142842,4145.153275,1258.350101,-9806.022374
941.143162,3034.844362,1998.556043,-10112.460574
941.143482,2516.700203,3330.926739,-10035.851024
941.143802,4071.132681,4737.318029,-9882.631924
941.144122,4959.379811,4663.297435,-10572.117872
941.144442,2886.803174,3997.112087,-10801.946522
941.144762,370.102971,3108.864956,-10189.070123
941.145082,0.000000,1554.432478,-9729.412825
941.145402,2146.597232,1036.288319,-9806.022374
941.145722,4145.153275,1406.391290,-10035.851024
941.146042,3923.091493,2368.659014,-9806.022374
941.146362,3034.844362,3256.906145,-10342.289223
941.146682,3256.906145,3775.050304,-11491.432470
941.147002,3997.112087,4515.256246,-10342.289223
941.147322,4589.276840,4515.256246,-10572.117872
941.147642,4145.153275,4367.215058,-10495.508323
941.147962,1776.494261,4071.132681,-10495.508323
941.148282,0.000000,3108.864956,-10878.556072
941.148602,-296.082377,2368.659014,-10035.851024
941.148921,740.205942,1480.411884,-10112.460574
941.149241,1628.453072,1110.308913,-9806.022374
941.149561,1850.514855,1184.329507,-10265.679673
941.149881,-148.041188,1850.514855,-10418.898773
941.150201,296.082377,3034.844362,-9422.974625
941.150521,1998.556043,3552.988522,-10342.289223
941.150841,4737.318029,3256.906145,-9806.022374
941.151161,5181.441594,2294.638420,-9959.241474
941.151481,3182.885551,2442.679609,-10648.727422
941.151801,666.185348,2368.659014,-9806.022374
941.152121,-222.061783,2738.761985,-9499.584175
941.152441,370.102971,2590.720797,-9959.241474
941.152761,1998.556043,740.205942,-9576.193725
941.153081,2072.576638,0.000000,-9729.412825
941.153401,1406.391290,1332.370696,-10035.851024
941.153721,1628.453072,2516.700203,-9729.412825
941.154041,148.041188,4589.276840,-10189.070123
941.154361,592.164754,4885.359217,-10112.460574
941.154681,2146.597232,3182.885551,-9806.022374
941.155001,3182.885551,1110.308913,-10418.898773
941.155321,4071.132681,-518.144159,-10955.165621
941.155641,1998.556043,666.185348,-10112.460574
941.155961,1258.350101,2146.597232,-10648.727422
941.156281,1480.411884,3701.029710,-10342.289223
941.156601,1258.350101,3997.112087,-9422.974625
941.156921,1406.391290,2812.782580,-10112.460574
941.157241,2812.782580,1332.370696,-10342.289223
941.157561,4145.153275,814.226536,-10725.336972
941.157881,4293.194464,1554.432478,-10265.679673
941.158200,4367.215058,2812.782580,-9729.412825
941.158520,4589.276840,3923.091493,-10418.898773
941.158840,4811.338623,4441.235652,-10342.289223
941.159160,2960.823768,4589.276840,-10648.727422
941.159480,370.102971,4145.153275,-10342.289223
941.159800,-296.082377,2294.638420,-9959.241474
941.160120,1850.514855,370.102971,-10112.460574
941.160440,3552.988522,-592.164754,-9652.803275
941.160760,3552.988522,-148.041188,-9499.584175
941.161080,3256.906145,2442.679609,-10342.289223
941.161400,4367.215058,4219.173869,-9806.022374
941.161720,5847.626942,5847.626942,-10265.679673
941.162040,6365.771101,6069.688724,-10418.898773
941.162360,5181.441594,4441.235652,-10189.070123
941.162680,2368.659014,2294.638420,-10189.070123
941.163000,370.102971,666.185348,-9422.974625
941.163320,-444.123565,-148.041188,-9422.974625
941.163640,-370.102971,0.000000,-9116.536426
941.163960,444.123565,148.041188,-9346.365076
941.164280,1036.288319,888.247130,-9576.193725
941.164600,1554.432478,2442.679609,-9882.631924
941.164920,2738.761985,4441.235652,-10112.460574
941.165240,4515.256246,6143.709319,-10495.508323
941.165560,5551.544565,6217.729913,-10572.117872
941.165880,4959.379811,5033.400406,-10572.117872
941.166200,3108.864956,3552.988522,-10801.946522
941.166520,1628.453072,2294.638420,-10572.117872
941.166840,740.205942,2220.617826,-10572.117872
941.167160,-518.144159,2738.761985,-10418.898773
941.167479,-1258.350101,2590.720797,-10418.898773
941.167799,-2294.638420,1850.514855,-10112.460574
941.168119,-2146.597232,444.123565,-9806.022374
941.168439,-296.082377,888.247130,-9806.022374
941.168759,2294.638420,1776.494261,-9959.241474
941.169079,4811.338623,3182.885551,-10495.508323
941.169399,6513.812290,4663.297435,-10725.336972
941.169719,6291.750507,5699.585753,-10801.946522
941.170039,4663.297435,5995.668130,-10648.727422
941.170359,3108.864956,5329.482782,-10418.898773
941.170679,1480.411884,3997.112087,-10265.679673
941.170999,666.185348,2442.679609,-9806.022374
941.171319,0.000000,592.164754,-9499.584175
941.171639,-592.164754,-370.102971,-8886.707777
941.171959,-1036.288319,-296.082377,-9193.145976
941.172279,-592.164754,740.205942,-9193.145976
941.172599,1480.411884,1998.556043,-9422.974625
941.172919,3627.009116,3404.947333,-9729.412825
941.173239,5403.503377,3997.112087,-9806.022374
941.173559,6809.894666,3627.009116,-9959.241474
941.173879,7254.018232,2886.803174,-9729.412825
941.174199,4515.256246,2368.659014,-10418.898773
941.174519,1850.514855,1702.473667,-9806.022374
941.174839,-444.123565,814.226536,-9806.022374
941.175159,-1184.329507,370.102971,-9729.412825
941.175479,-1184.329507,74.020594,-10189.070123
941.175799,-1480.411884,0.000000,-10035.851024
941.176119,-296.082377,0.000000,-9959.241474
941.176439,1258.350101,888.247130,-9882.631924
941.176759,2368.659014,2516.700203,-10112.460574
941.177078,3997.112087,3775.050304,-10648.727422
941.177398,4737.318029,4589.276840,-10955.165621
941.177718,4219.173869,4737.318029,-11108.384721
941.178038,3923.091493,4367.215058,-10955.165621
941.178358,2590.720797,3034.844362,-10725.336972
941.178678,1628.453072,1702.473667,-10572.117872
941.178998,666.185348,1110.308913,-10572.117872
941.179318,148.041188,592.164754,-9882.631924
941.179638,592.164754,814.226536,-10035.851024
941.179958,1702.473667,1258.350101,-10342.289223
941.180278,2886.803174,2072.576638,-10495.508323
941.180598,3701.029710,2590.720797,-10035.851024
941.180918,4441.235652,3849.070898,-10265.679673
941.181238,6365.771101,4293.194464,-10112.460574
941.181558,7328.038826,4737.318029,-10189.070123
941.181878,7254.018232,5033.400406,-10342.289223
941.182198,5403.503377,5255.462188,-10265.679673
941.182518,2812.782580,4367.215058,-9882.631924
941.182838,148.041188,2886.803174,-9806.022374
941.183158,-1184.329507,1258.350101,-9499.584175
941.183478,-592.164754,-296.082377,-9346.365076
941.183798,222.061783,-1110.308913,-9193.145976
941.184118,1702.473667,-814.226536,-9193.145976
941.184438,3182.885551,1480.411884,-9422.974625
941.184758,4737.318029,3997.112087,-9806.022374
941.185078,6143.709319,6365.771101,-9806.022374
941.185398,6513.812290,7772.162391,-11108.384721
941.185718,5551.544565,7254.018232,-10725.336972
941.186038,4441.235652,5107.421000,-10418.898773
941.186357,3627.009116,3108.864956,-10572.117872
941.186677,2812.782580,1776.494261,-9652.803275
941.186997,666.185348,1998.556043,-10342.289223
941.187317,-2294.638420,2664.741391,-10035.851024
941.187637,-3627.009116,2960.823768,-9806.022374
941.187957,-2220.617826,3552.988522,-9882.631924
941.188277,518.144159,2368.659014,-9959.241474
941.188597,2146.597232,2220.617826,-10342.289223
941.188917,2664.741391,2368.659014,-10265.679673
941.189237,3034.844362,3701.029710,-10189.070123
941.189557,4071.132681,5403.503377,-9882.631924
941.189877,5403.503377,5921.647536,-10112.460574
941.190197,5625.565159,5773.606348,-10572.117872
941.190517,3701.029710,4515.256246,-10648.727422
941.190837,592.164754,2516.700203,-10342.289223
941.191157,-2220.617826,1702.473667,-9652.803275
941.191477,-2220.617826,444.123565,-9652.803275
941.191797,-1036.288319,-370.102971,-9269.755526
941.192117,-296.082377,-666.185348,-9039.926876
941.192437,370.102971,0.000000,-9039.926876
941.192757,2368.659014,1924.535449,-9499.584175
941.193077,5255.462188,4441.235652,-10265.679673
941.193397,6735.874072,6143.709319,-10418.898773
941.193717,5921.647536,7105.977043,-9806.022374
941.194037,4737.318029,5403.503377,-10035.851024
941.194357,3404.947333,3108.864956,-10189.070123
941.194677,2072.576638,1036.288319,-9652.803275
941.194997,1110.308913,-740.205942,-9576.193725
941.195317,1036.288319,-1110.308913,-9576.193725
941.195636,814.226536,-370.102971,-9882.631924
941.195956,-222.061783,1480.411884,-9806.022374
941.196276,370.102971,3478.967927,-10189.070123
941.196596,2886.803174,4145.153275,-10265.679673
941.196916,5625.565159,3552.988522,-10725.336972
941.197236,7179.997637,2590.720797,-10572.117872
941.197556,7550.100608,2590.720797,-10648.727422
941.197876,6957.935855,3182.885551,-11031.775171
941.198196,4589.276840,4367.215058,-10878.556072
941.198516,1924.535449,4737.318029,-10725.336972
941.198836,0.000000,3404.947333,-10648.727422
941.199156,-148.041188,888.247130,-9959.241474
941.199476,0.000000,-1628.453072,-10265.679673
941.199796,-444.123565,-1628.453072,-10035.851024
941.200116,-444.123565,-666.185348,-9499.584175
941.200436,814.226536,962.267725,-10112.460574
941.200756,3404.947333,1998.556043,-9959.241474
941.201076,5033.400406,2960.823768,-9576.193725
941.201396,5773.606348,3775.050304,-10572.117872
941.201716,6143.709319,4367.215058,-10418.898773
941.202036,4959.379811,4885.359217,-10495.508323
941.202356,3404.947333,4885.359217,-10725.336972
941.202676,2072.576638,2812.782580,-9806.022374
941.202996,0.000000,740.205942,-9652.803275
941.203316,-2886.803174,-740.205942,-9959.241474
941.203636,-4885.359217,-1258.350101,-9193.145976
941.203956,-5847.626942,-1110.308913,-9422.974625
941.204276,-2516.700203,-370.102971,-9269.755526
941.204596,2886.803174,370.102971,-9193.145976
941.204915,5255.462188,1776.494261,-10189.070123
941.205235,5625.565159,3034.844362,-9882.631924
941.205555,4515.256246,4737.318029,-9806.022374
941.205875,5477.523971,5773.606348,-10878.556072
941.206195,6809.894666,6217.729913,-10801.946522
941.206515,5773.606348,4367.215058,-11031.775171
941.206835,2072.576638,1628.453072,-10495.508323
941.207155,-1332.370696,0.000000,-9729.412825
941.207475,-2072.576638,-518.144159,-9959.241474
941.207795,-2072.576638,74.020594,-9806.022374
941.208115,-1554.432478,666.185348,-9346.365076
941.208435,-1184.329507,1628.453072,-9806.022374
941.208755,2664.741391,1480.411884,-9806.022374
941.209075,5773.606348,2442.679609,-10418.898773
941.209395,6291.750507,4959.379811,-10801.946522
941.209715,5181.441594,6735.874072,-10418.898773
941.210035,6217.729913,7402.059420,-10648.727422
941.210355,5403.503377,6069.688724,-11108.384721
941.210675,6365.771101,3552.988522,-10189.070123
941.210995,4367.215058,3034.844362,-10342.289223
941.211315,1480.411884,1998.556043,-10189.070123
941.211635,-1554.432478,2590.720797,-9806.022374
941.211955,-2072.576638,1850.514855,-10265.679673
941.212275,-888.247130,1406.391290,-8886.707777
941.212595,1998.556043,1258.350101,-9806.022374
941.212915,4811.338623,1628.453072,-9652.803275
941.213235,6069.688724,3256.906145,-9806.022374
941.213555,5403.503377,5255.462188,-10189.070123
941.213875,6217.729913,6735.874072,-10878.556072
941.214194,7624.121203,6883.915261,-9959.241474
941.214514,6439.791695,5699.585753,-10265.679673
941.214834,2812.782580,3997.112087,-9806.022374
941.215154,-444.123565,2368.659014,-10878.556072
941.215474,-1628.453072,1184.329507,-9652.803275
941.215794,-2590.720797,592.164754,-9882.631924
941.216114,-3182.885551,0.000000,-9269.755526
941.216434,-1850.514855,370.102971,-9806.022374
941.216754,740.205942,1036.288319,-9959.241474
941.217074,3034.844362,3256.906145,-10035.851024
941.217394,2738.761985,5107.421000,-10495.508323
941.217714,5477.523971,5477.523971,-9959.241474
941.218034,6365.771101,6069.688724,-11031.775171
941.218354,6809.894666,5107.421000,-10418.898773
941.218674,4737.318029,4293.194464,-10265.679673
941.218994,148.041188,2146.597232,-10189.070123
941.219314,-1184.329507,666.185348,-8427.050478
941.219634,-1110.308913,74.020594,-9959.241474
941.219954,-1628.453072,-518.144159,-9959.241474
941.220274,-2442.679609,-148.041188,-9346.365076
941.220594,-666.185348,0.000000,-9652.803275
941.220914,1628.453072,1702.473667,-10342.289223
941.221234,4589.276840,4145.153275,-10112.460574
941.221554,4145.153275,5329.482782,-10725.336972
941.221874,4071.132681,6513.812290,-10801.946522
941.222194,5847.626942,5625.565159,-10418.898773
941.222514,6365.771101,5329.482782,-10418.898773
941.222834,5477.523971,4219.173869,-11338.213370
941.223154,3775.050304,2812.782580,-10112.460574
941.223473,1258.350101,1998.556043,-9959.241474
941.223793,-222.061783,666.185348,-9499.584175
941.224113,0.000000,-1480.411884,-9806.022374
941.224433,296.082377,-2220.617826,-9193.145976
941.224753,888.247130,-1184.329507,-9959.241474
941.225073,1480.411884,1110.308913,-10112.460574
941.225393,1924.535449,4885.359217,-10189.070123
941.225713,3478.967927,6439.791695,-10955.165621
941.226033,5995.668130,5551.544565,-10342.289223
941.226353,6291.750507,4515.256246,-10265.679673
941.226673,5107.421000,2368.659014,-11414.822920
941.226993,4367.215058,370.102971,-9806.022374
941.227313,2220.617826,740.205942,-9729.412825
941.227633,444.123565,296.082377,-10418.898773
941.227953,1480.411884,0.000000,-9193.145976
941.228273,518.144159,-222.061783,-9806.022374
941.228593,-148.041188,222.061783,-9959.241474
941.228913,1258.350101,2220.617826,-9346.365076
941.229233,3627.009116,3997.112087,-10342.289223
941.229553,5921.647536,3627.009116,-10035.851024
941.229873,6735.874072,2368.659014,-9806.022374
941.230193,2960.823768,2220.617826,-10955.165621
941.230513,1184.329507,740.205942,-9959.241474
941.230833,1702.473667,1332.370696,-9269.755526
941.231153,2294.638420,2812.782580,-10955.165621
941.231473,3923.091493,2368.659014,-9882.631924
941.231793,2886.803174,2146.597232,-10265.679673
941.232113,1332.370696,888.247130,-10342.289223
941.232433,814.226536,814.226536,-9269.755526
941.232753,-1406.391290,444.123565,-10648.727422
941.233073,0.000000,370.102971,-10189.070123
941.233393,0.000000,74.020594,-9116.536426
941.233713,814.226536,740.205942,-10189.070123
941.234033,1850.514855,740.205942,-9729.412825
941.234353,2738.761985,2368.659014,-10265.679673
941.234672,5403.503377,3182.885551,-10878.556072
941.234992,4589.276840,4071.132681,-10801.946522
941.235312,-518.144159,4145.153275,-10418.898773
941.235632,-3034.844362,1702.473667,-9882.631924
941.235952,-3108.864956,-888.247130,-9422.974625
941.236272,-1258.350101,-1554.432478,-10112.460574
941.236592,-222.061783,-1332.370696,-9346.365076
941.236912,-740.205942,0.000000,-9652.803275
941.237232,666.185348,814.226536,-10035.851024
941.237552,2368.659014,2368.659014,-10189.070123
941.237872,2442.679609,3701.029710,-11414.822920
941.238192,2294.638420,4219.173869,-9959.241474
941.238512,1406.391290,3701.029710,-10112.460574
941.238832,2072.576638,3256.906145,-10725.336972
941.239152,1998.556043,1998.556043,-10035.851024
941.239472,-518.144159,592.164754,-10265.679673
941.239792,-2738.761985,-1110.308913,-10342.289223
941.240112,-2146.597232,-1184.329507,-8656.879127
941.240432,74.020594,222.061783,-10495.508323
941.240752,2146.597232,1480.411884,-8886.707777
941.241072,0.000000,2072.576638,-9422.974625
941.241392,-740.205942,1554.432478,-10035.851024
941.241712,1628.453072,1480.411884,-9269.755526
941.242032,3775.050304,1480.411884,-10878.556072
941.242352,3108.864956,444.123565,-10265.679673
941.242672,222.061783,-814.226536,-9806.022374
941.242992,296.082377,0.000000,-10112.460574
941.243312,1554.432478,1110.308913,-10725.336972
941.243632,2294.638420,3775.050304,-11951.089769
941.243952,-518.144159,4441.235652,-10495.508323
941.244272,-666.185348,3256.906145,-9959.241474
941.244592,1258.350101,370.102971,-10418.898773
941.244912,1924.535449,-2442.679609,-9959.241474
941.245232,3108.864956,-3923.091493,-9499.584175
941.245552,3552.988522,-2368.659014,-10035.851024
941.245871,2738.761985,0.000000,-10265.679673
941.246191,2442.679609,2442.679609,-10112.460574
941.246511,1258.350101,4071.132681,-10112.460574
941.246831,-148.041188,3627.009116,-9806.022374
941.247151,-740.205942,3034.844362,-10265.679673
941.247471,-1036.288319,592.164754,-10112.460574
941.247791,518.144159,-1702.473667,-11031.775171
941.248111,0.000000,-3108.864956,-9422.974625
941.248431,1850.514855,-3330.926739,-9959.241474
941.248751,3701.029710,-2294.638420,-9806.022374
941.249071,3182.885551,222.061783,-9882.631924
941.249391,0.000000,2516.700203,-9806.022374
941.249711,-740.205942,4145.153275,-10035.851024
941.250031,-370.102971,2960.823768,-10572.117872
941.250351,1998.556043,-518.144159,-10342.289223
941.250671,1332.370696,-2220.617826,-9346.365076
941.250991,296.082377,-2886.803174,-10112.460574
941.251311,444.123565,-1036.288319,-10189.070123
941.251631,0.000000,666.185348,-9959.241474
941.251951,-2220.617826,1480.411884,-10189.070123
941.252271,-2294.638420,666.185348,-9193.145976
941.252591,-2072.576638,518.144159,-9729.412825
941.252911,-1702.473667,-740.205942,-9959.241474
941.253231,0.000000,-666.185348,-9422.974625
941.253551,-518.144159,-296.082377,-9652.803275
941.253871,74.020594,-222.061783,-9959.241474
941.254191,-296.082377,1332.370696,-10342.289223
941.254511,-592.164754,2072.576638,-11031.775171
941.254831,-888.247130,2220.617826,-9652.803275
941.255151,-1554.432478,2368.659014,-10418.898773
941.255471,-1110.308913,888.247130,-10572.117872
941.255791,0.000000,74.020594,-10495.508323
941.256111,0.000000,-1406.391290,-10955.165621
941.256431,1258.350101,-1036.288319,-10878.556072
941.256751,2072.576638,1036.288319,-10418.898773
941.257071,2664.741391,2738.761985,-11031.775171
941.257390,1110.308913,2812.782580,-10572.117872
941.257710,370.102971,2368.659014,-10495.508323
941.258030,-1850.514855,74.020594,-9959.241474
941.258350,-1406.391290,0.000000,-10035.851024
941.258670,888.247130,0.000000,-10418.898773
941.258990,962.267725,-1702.473667,-10035.851024
941.259310,666.185348,-2368.659014,-8503.660028
941.259630,962.267725,-2368.659014,-9576.193725
941.259950,592.164754,-1998.556043,-9193.145976
941.260270,2072.576638,1406.391290,-9806.022374
941.260590,3330.926739,3923.091493,-11644.651570
941.260910,2516.700203,3627.009116,-9729.412825
941.261230,2368.659014,1554.432478,-9269.755526
941.261550,2664.741391,0.000000,-9729.412825
941.261870,3256.906145,-2738.761985,-9269.755526
941.262190,4441.235652,-3923.091493,-9806.022374
941.262510,3256.906145,-2368.659014,-9959.241474
941.262830,-148.041188,222.061783,-9806.022374
941.263150,-2368.659014,2368.659014,-10189.070123
941.263470,-1480.411884,2146.597232,-9882.631924
941.263790,518.144159,962.267725,-10035.851024
941.264110,814.226536,-518.144159,-9806.022374
941.264430,1702.473667,-962.267725,-9806.022374
941.264750,2146.597232,-666.185348,-10189.070123
941.265070,3627.009116,-148.041188,-11338.213370
941.265390,2146.597232,1036.288319,-10955.165621
941.265710,-370.102971,-518.144159,-10189.070123
941.266030,-1480.411884,0.000000,-10418.898773
941.266350,-1184.329507,740.205942,-9882.631924
941.266670,-1554.432478,1924.535449,-10112.460574
941.266990,-2146.597232,2516.700203,-10955.165621
941.267310,-888.247130,1480.411884,-10572.117872
941.267630,1332.370696,-1110.308913,-10648.727422
941.267950,1924.535449,-2368.659014,-9806.022374
941.268270,74.020594,-1480.411884,-9959.241474
941.268589,0.000000,1332.370696,-10342.289223
941.268909,666.185348,3330.926739,-11414.822920
941.269229,-1110.308913,3552.988522,-9959.241474
941.269549,-1998.556043,1702.473667,-9806.022374
941.269869,-2220.617826,-740.205942,-10189.070123
941.270189,-666.185348,-1110.308913,-9729.412825
941.270509,222.061783,-518.144159,-9806.022374
941.270829,0.000000,444.123565,-9652.803275
941.271149,814.226536,148.041188,-9652.803275
941.271469,148.041188,-1258.350101,-9652.803275
941.271789,-444.123565,148.041188,-9882.631924
941.272109,-444.123565,2220.617826,-10112.460574
941.272429,0.000000,2516.700203,-9806.022374
941.272749,814.226536,2368.659014,-10112.460574
941.273069,888.247130,1776.494261,-9729.412825
941.273389,666.185348,0.000000,-9499.584175
941.273709,814.226536,-2590.720797,-10035.851024
941.274029,-148.041188,-3997.112087,-9652.803275
941.274349,-888.247130,-2664.741391,-9806.022374
941.274669,-222.061783,296.082377,-9576.193725
941.274989,1406.391290,2812.782580,-10418.898773
941.275309,1850.514855,4367.215058,-10648.727422
941.275629,1554.432478,4737.318029,-11721.261119
941.275949,3034.844362,3775.050304,-10495.508323
941.276269,4589.276840,3478.967927,-11261.603821
941.276589,3849.070898,518.144159,-10725.336972
941.276909,2442.679609,-740.205942,-10035.851024
941.277229,1036.288319,-1924.535449,-10418.898773
941.277549,2442.679609,-1628.453072,-9806.022374
941.277869,2220.617826,-148.041188,-11568.042020
941.278189,2072.576638,888.247130,-10572.117872
941.278509,1332.370696,1628.453072,-9959.241474
941.278829,0.000000,1924.535449,-9882.631924
941.279149,296.082377,592.164754,-9806.022374
941.279469,814.226536,-814.226536,-9576.193725
941.279789,3330.926739,-1036.288319,-10112.460574
941.280108,3701.029710,-962.267725,-9806.022374
941.280428,1628.453072,-962.267725,-10035.851024
941.280748,-1258.350101,-444.123565,-9882.631924
941.281068,-3923.091493,1184.329507,-9652.803275
941.281388,-1776.494261,592.164754,-9806.022374
941.281708,-222.061783,-444.123565,-9806.022374
941.282028,0.000000,-2072.576638,-9422.974625
941.282348,-962.267725,-3404.947333,-9193.145976
941.282668,-1406.391290,-3627.009116,-8656.879127
941.282988,0.000000,-518.144159,-9882.631924
941.283308,2294.638420,1850.514855,-10648.727422
941.283628,3552.988522,3330.926739,-10189.070123
941.283948,1628.453072,3997.112087,-10342.289223
941.284268,-296.082377,2220.617826,-10572.117872
941.284588,-518.144159,-370.102971,-10035.851024
941.284908,-1998.556043,-2368.659014,-9652.803275
941.285228,-3627.009116,-2442.679609,-10035.851024
941.285548,-3923.091493,-2442.679609,-9729.412825
941.285868,-3552.988522,-2442.679609,-9806.022374
941.286188,-962.267725,-888.247130,-9039.926876
941.286508,-148.041188,592.164754,-10035.851024
941.286828,444.123565,1850.514855,-10801.946522
941.287148,-370.102971,1998.556043,-10572.117872
941.287468,-1554.432478,1554.432478,-10648.727422
941.287788,74.020594,148.041188,-9193.145976
941.288108,3330.926739,-1258.350101,-10495.508323
941.288428,1998.556043,-1776.494261,-11261.603821
941.288748,-1554.432478,-1406.391290,-10495.508323
941.289068,-2738.761985,370.102971,-10189.070123
941.289388,-296.082377,2368.659014,-10801.946522
941.289708,0.000000,2664.741391,-10495.508323
941.290028,444.123565,1480.411884,-10801.946522
941.290348,592.164754,-1850.514855,-9806.022374
941.290668,1628.453072,-2442.679609,-11644.651570
941.290988,1184.329507,-2516.700203,-9652.803275
941.291307,2072.576638,-740.205942,-10418.898773
941.291627,1628.453072,74.020594,-9116.536426
941.291947,1258.350101,1998.556043,-9576.193725
941.292267,2590.720797,2072.576638,-10495.508323
941.292587,5329.482782,888.247130,-10495.508323
941.292907,4737.318029,-148.041188,-10572.117872
941.293227,1924.535449,-666.185348,-9499.584175
941.293547,814.226536,-1480.411884,-9576.193725
941.293867,1036.288319,-814.226536,-9499.584175
941.294187,2812.782580,-740.205942,-9729.412825
941.294507,2368.659014,-592.164754,-9806.022374
941.294827,2368.659014,666.185348,-9882.631924
941.295147,740.205942,962.267725,-10572.117872
941.295467,1554.432478,2220.617826,-9959.241474
941.295787,2442.679609,2960.823768,-10342.289223
941.296107,1628.453072,2516.700203,-10495.508323
941.296427,888.247130,1776.494261,-10265.679673
941.296747,-666.185348,222.061783,-10495.508323
941.297067,-592.164754,-888.247130,-9729.412825
941.297387,0.000000,-888.247130,-9959.241474
941.297707,1628.453072,-1036.288319,-9576.193725
941.298027,148.041188,814.226536,-10418.898773
941.298347,592.164754,1998.556043,-10342.289223
941.298667,814.226536,1850.514855,-9806.022374
941.298987,814.226536,1924.535449,-10035.851024
941.299307,-1406.391290,2220.617826,-10342.289223
941.299627,-1776.494261,1776.494261,-10035.851024
941.299947,-1406.391290,962.267725,-9576.193725
941.300267,962.267725,518.144159,-9882.631924
941.300587,888.247130,444.123565,-8810.098227
941.300907,444.123565,444.123565,-9806.022374
941.301227,-1554.432478,962.267725,-9576.193725
941.301547,-3775.050304,666.185348,-9652.803275
941.301867,-1110.308913,1036.288319,-9576.193725
941.302187,-2294.638420,-1332.370696,-9806.022374
941.302506,-2664.741391,-962.267725,-9806.022374
941.302826,-2516.700203,-1480.411884,-9269.755526
941.303146,370.102971,-962.267725,-9576.193725
941.303466,1184.329507,592.164754,-10648.727422
941.303786,0.000000,1628.453072,-10495.508323
941.304106,592.164754,2368.659014,-10342.289223
941.304426,1702.473667,1628.453072,-10112.460574
941.304746,2072.576638,740.205942,-9959.241474
941.305066,888.247130,-814.226536,-10342.289223
941.305386,-148.041188,-2516.700203,-10189.070123
941.305706,444.123565,-3182.885551,-10035.851024
941.306026,148.041188,-2220.617826,-9652.803275
941.306346,518.144159,-814.226536,-10035.851024
941.306666,592.164754,2072.576638,-10189.070123
941.306986,2072.576638,2664.741391,-10725.336972
941.307306,2516.700203,1702.473667,-11031.775171
941.307626,2368.659014,1184.329507,-10342.289223
941.307946,666.185348,-888.247130,-11031.775171
941.308266,1332.370696,-1036.288319,-10495.508323
941.308586,2294.638420,0.000000,-10801.946522
941.308906,3701.029710,1702.473667,-11108.384721
941.309226,1184.329507,3108.864956,-10572.117872
941.309546,0.000000,3108.864956,-10648.727422
941.309866,1332.370696,962.267725,-10572.117872
941.310186,3775.050304,-2960.823768,-10801.946522
941.310506,3997.112087,-6365.771101,-10342.289223
941.310826,2664.741391,-5033.400406,-9346.365076
941.311146,-222.061783,-888.247130,-9269.755526
941.311466,-666.185348,4145.153275,-10572.117872
941.311786,222.061783,4071.132681,-10572.117872
941.312106,1702.473667,1776.494261,-10648.727422
941.312426,2072.576638,-1998.556043,-8963.317327
941.312746,518.144159,-4663.297435,-9269.755526
941.313066,-1036.288319,-5625.565159,-8810.098227
941.313386,-74.020594,-3478.967927,-8656.879127
941.313706,-296.082377,-740.205942,-9269.755526
941.314025,-666.185348,1406.391290,-9269.755526
941.314345,-370.102971,2146.597232,-9652.803275
941.314665,148.041188,1850.514855,-10725.336972
941.314985,370.102971,888.247130,-9499.584175
941.315305,74.020594,296.082377,-10112.460574
941.315625,-666.185348,-222.061783,-8963.317327
941.315945,-1258.350101,-1998.556043,-9806.022374
941.316265,-1036.288319,-1184.329507,-10035.851024
941.316585,-1258.350101,-740.205942,-10112.460574
941.316905,-1110.308913,962.267725,-10648.727422
941.317225,0.000000,2590.720797,-10418.898773
941.317545,0.000000,3034.844362,-10801.946522
941.317865,-370.102971,2146.597232,-11261.603821
941.318185,814.226536,1258.350101,-10495.508323
941.318505,1776.494261,-296.082377,-10648.727422
941.318825,-444.123565,-518.144159,-10495.508323
941.319145,-222.061783,-296.082377,-10418.898773
941.319465,0.000000,1110.308913,-11414.822920
941.319785,370.102971,3182.885551,-10725.336972
941.320105,296.082377,2886.803174,-10572.117872
941.320425,-148.041188,296.082377,-9959.241474
941.320745,444.123565,-1258.350101,-9346.365076
941.321065,592.164754,-1776.494261,-9806.022374
941.321385,1480.411884,-2590.720797,-9576.193725
941.321705,0.000000,-1850.514855,-9729.412825
941.322025,-740.205942,148.041188,-9882.631924
941.322345,3404.947333,2220.617826,-9576.193725
941.322665,4885.359217,3330.926739,-10265.679673
941.322985,4071.132681,3627.009116,-10035.851024
941.323305,1184.329507,3627.009116,-10342.289223
941.323625,1480.411884,1776.494261,-9882.631924
941.323945,3034.844362,-592.164754,-9806.022374
941.324265,2738.761985,-1998.556043,-9652.803275
941.324585,0.000000,-2960.823768,-9806.022374
941.324905,-1332.370696,-2738.761985,-9346.365076
941.325224,-2738.761985,-222.061783,-9499.584175
941.325544,1258.350101,2146.597232,-9959.241474
941.325864,2664.741391,2812.782580,-10112.460574
941.326184,2590.720797,2664.741391,-10112.460574
941.326504,3478.967927,1332.370696,-10878.556072
941.326815,3627.009116,-370.102971,-10189.070123
941.327135,1258.350101,0.000000,-10955.165621
941.327455,-1406.391290,222.061783,-10035.851024
941.327775,-1628.453072,1258.350101,-10035.851024
941.328095,-592.164754,1036.288319,-10725.336972
941.328415,370.102971,-222.061783,-10035.851024
941.328735,-296.082377,148.041188,-10572.117872
941.329055,-4293.194464,-740.205942,-9729.412825
941.329375,-1554.432478,1036.288319,-11031.775171
941.329695,74.020594,962.267725,-10342.289223
941.330015,2072.576638,1184.329507,-10265.679673
941.330335,2220.617826,2368.659014,-10648.727422
941.330655,-3108.864956,1480.411884,-9882.631924
941.330975,-2960.823768,518.144159,-9269.755526
941.331295,370.102971,2072.576638,-10801.946522
941.331615,1184.329507,-444.123565,-10112.460574
941.331935,-2738.761985,-1702.473667,-9346.365076
941.332255,-222.061783,-2368.659014,-9576.193725
941.332575,0.000000,-2220.617826,-9346.365076
941.332895,-222.061783,-1628.453072,-9576.193725
941.333215,-740.205942,0.000000,-9729.412825
941.333535,518.144159,296.082377,-9039.926876
941.333855,3034.844362,666.185348,-10265.679673
941.334175,2664.741391,-444.123565,-9346.365076
941.334495,2368.659014,-370.102971,-10572.117872
941.334816,-1258.350101,-740.205942,-9652.803275
941.335136,-1110.308913,-1554.432478,-10189.070123
941.335456,0.000000,-1554.432478,-8733.488677
941.335776,-1036.288319,-1702.473667,-10035.851024
941.336096,-666.185348,-1702.473667,-10342.289223
941.336416,666.185348,-444.123565,-10801.946522
941.336736,2368.659014,296.082377,-9959.241474
941.337056,4515.256246,1628.453072,-10572.117872
941.337376,4515.256246,1628.453072,-11261.603821
941.337696,2812.782580,2368.659014,-10801.946522
941.338016,370.102971,2294.638420,-10878.556072
941.338336,1554.432478,962.267725,-11184.994271
941.338656,2886.803174,-888.247130,-10265.679673
941.338976,3701.029710,-370.102971,-11568.042020
941.339296,370.102971,-1554.432478,-9882.631924
941.339616,-1184.329507,222.061783,-9959.241474
941.339936,-888.247130,1702.473667,-10189.070123
941.340256,1184.329507,1554.432478,-10572.117872
941.340576,3404.947333,518.144159,-10189.070123
941.340896,3627.009116,0.000000,-10725.336972
941.341216,1332.370696,-148.041188,-10189.070123
941.341536,444.123565,740.205942,-9806.022374
941.341856,-444.123565,666.185348,-9882.631924
941.342176,-1110.308913,74.020594,-9422.974625
941.342496,-444.123565,592.164754,-10035.851024
941.342816,-962.267725,0.000000,-10189.070123
941.343136,-444.123565,-814.226536,-8733.488677
941.343456,-1110.308913,-1480.411884,-9729.412825
941.343776,0.000000,-962.267725,-9729.412825
941.344096,-222.061783,74.020594,-9806.022374
941.344416,-740.205942,2220.617826,-10342.289223
941.344736,-962.267725,4145.153275,-9806.022374
941.345057,-370.102971,4663.297435,-10572.117872
941.345377,1406.391290,4737.318029,-9959.241474
941.345697,592.164754,1554.432478,-9806.022374
941.346017,1850.514855,-1998.556043,-10418.898773
941.346337,888.247130,-5107.421000,-9116.536426
941.346657,-888.247130,-3701.029710,-9116.536426
941.346977,-2146.597232,1554.432478,-10035.851024
941.347297,-2368.659014,4811.338623,-9806.022374
941.347617,-1110.308913,5551.544565,-10648.727422
941.347937,-296.082377,2294.638420,-10189.070123
941.348257,0.000000,-814.226536,-10035.851024
941.348577,-518.144159,-2294.638420,-10648.727422
941.348897,444.123565,-2072.576638,-9652.803275
941.349217,1184.329507,74.020594,-10572.117872
941.349537,-1036.288319,1850.514855,-10342.289223
941.349857,-3404.947333,1036.288319,-9729.412825
941.350177,-2442.679609,370.102971,-9652.803275
941.350497,1924.535449,296.082377,-10189.070123
941.350817,6069.688724,1036.288319,-10878.556072
941.351137,5255.462188,2738.761985,-11491.432470
941.351457,518.144159,1184.329507,-9959.241474
941.351777,-962.267725,-962.267725,-9039.926876
941.352097,1628.453072,-2368.659014,-9499.584175
941.352417,4145.153275,-2146.597232,-10342.289223
941.352737,4367.215058,-592.164754,-10112.460574
941.353057,2960.823768,2590.720797,-10725.336972
941.353377,-296.082377,4959.379811,-9959.241474
941.353697,0.000000,4293.194464,-9959.241474
941.354017,2146.597232,1702.473667,-10265.679673
941.354337,2812.782580,-1480.411884,-9806.022374
941.354657,1702.473667,-2590.720797,-9346.365076
941.354978,1110.308913,-3997.112087,-9116.536426
941.355298,2072.576638,-3256.906145,-9269.755526
941.355618,3034.844362,-3478.967927,-9576.193725
941.355938,2960.823768,-1998.556043,-9422.974625
941.356258,666.185348,1036.288319,-9193.145976
941.356578,962.267725,3256.906145,-10112.460574
941.356898,1184.329507,4737.318029,-10265.679673
941.357218,518.144159,3552.988522,-11108.384721
941.357538,666.185348,370.102971,-10495.508323
