#time,accel_x,accel_y,accel_z
909.580804,370.102971,444.123565,-10035.851024
909.581124,518.144159,370.102971,-8733.488677
909.581444,518.144159,296.082377,-10112.460574
909.581764,518.144159,296.082377,-9806.022374
909.582084,518.144159,222.061783,-10265.679673
909.582404,518.144159,370.102971,-9959.241474
909.582724,444.123565,296.082377,-9959.241474
909.583044,518.144159,148.041188,-10035.851024
909.583365,370.102971,0.000000,-10035.851024
909.583685,370.102971,74.020594,-10265.679673
909.584005,370.102971,1110.308913,-10112.460574
909.584325,444.123565,296.082377,-9882.631924
909.584645,370.102971,148.041188,-10035.851024
909.584965,444.123565,296.082377,-9806.022374
909.585285,888.247130,148.041188,-11568.042020
909.585605,962.267725,444.123565,-10495.508323
909.585925,1036.288319,148.041188,-10342.289223
909.586245,0.000000,222.061783,-9959.241474
909.586565,-148.041188,74.020594,-9882.631924
909.586885,370.102971,296.082377,-9422.974625
909.587205,666.185348,74.020594,-10112.460574
909.587525,-148.041188,0.000000,-9806.022374
909.587845,-518.144159,0.000000,-10035.851024
909.588166,518.144159,592.164754,-9882.631924
909.588486,1110.308913,296.082377,-10265.679673
909.588806,370.102971,370.102971,-10189.070123
909.589126,0.000000,0.000000,-10189.070123
909.589446,0.000000,148.041188,-10035.851024
909.589766,592.164754,222.061783,-9729.412825
909.590086,148.041188,-296.082377,-10189.070123
909.590406,-740.205942,-592.164754,-10189.070123
909.590726,-592.164754,-592.164754,-9959.241474
909.591046,222.061783,-370.102971,-9806.022374
909.591366,-222.061783,-222.061783,-9806.022374
909.591686,-962.267725,-518.144159,-10418.898773
909.592006,-518.144159,-370.102971,-10112.460574
909.592326,0.000000,-370.102971,-9882.631924
909.592646,0.000000,-814.226536,-9959.241474
909.592967,-1036.288319,-1036.288319,-10189.070123
909.593287,-888.247130,-1110.308913,-9959.241474
909.593607,-814.226536,-740.205942,-9806.022374
909.593927,-1258.350101,-814.226536,-9882.631924
909.594247,-1776.494261,-1554.432478,-10112.460574
909.594567,-2146.597232,-1776.494261,-9806.022374
909.594887,-962.267725,-1702.473667,-9806.022374
909.595207,-666.185348,-1036.288319,-9882.631924
909.595527,-1036.288319,-1258.350101,-9959.241474
909.595847,-1332.370696,-1406.391290,-10035.851024
909.596167,-592.164754,-1036.288319,-9959.241474
909.596487,0.000000,-740.205942,-10189.070123
909.596807,-814.226536,-1110.308913,-9346.365076
909.597127,-2664.741391,-2590.720797,-9959.241474
909.597447,-3108.864956,-3330.926739,-9576.193725
909.597768,-2590.720797,-3997.112087,-9652.803275
909.598088,-2146.597232,-3552.988522,-9499.584175
909.598408,-2368.659014,-3923.091493,-9806.022374
909.598728,-2368.659014,-3775.050304,-9652.803275
909.599048,-1036.288319,-3330.926739,-9959.241474
909.599368,962.267725,-2368.659014,-10189.070123
909.599688,1480.411884,-888.247130,-9882.631924
909.600008,0.000000,-740.205942,-10189.070123
909.600328,-1628.453072,-1258.350101,-10342.289223
909.600648,-2146.597232,-2220.617826,-10265.679673
909.600968,-3108.864956,-3404.947333,-10112.460574
909.601288,-5033.400406,-4441.235652,-9806.022374
909.601608,-5329.482782,-5773.606348,-9652.803275
909.601928,-3923.091493,-5699.585753,-9576.193725
909.602248,-1258.350101,-5181.441594,-10112.460574
909.602569,444.123565,-3478.967927,-10418.898773
909.602889,518.144159,-1332.370696,-10418.898773
909.603209,1110.308913,370.102971,-10418.898773
909.603529,2368.659014,1184.329507,-10801.946522
909.603849,2516.700203,814.226536,-10801.946522
909.604169,1258.350101,-518.144159,-10955.165621
909.604489,-962.267725,-2368.659014,-10265.679673
909.604809,-2812.782580,-3701.029710,-10112.460574
909.605129,-4663.297435,-4219.173869,-9882.631924
909.605449,-5477.523971,-4219.173869,-9806.022374
909.605769,-5403.503377,-5033.400406,-9576.193725
909.606089,-2886.803174,-5551.544565,-9422.974625
909.606409,0.000000,-4663.297435,-9729.412825
909.606729,962.267725,-2590.720797,-10189.070123
909.607049,1850.514855,370.102971,-10035.851024
909.607370,3108.864956,2664.741391,-10418.898773
909.607690,3627.009116,3627.009116,-10801.946522
909.608010,1776.494261,2664.741391,-10648.727422
909.608330,-2368.659014,0.000000,-10648.727422
909.608650,-5329.482782,-3478.967927,-9806.022374
909.608970,-5995.668130,-6217.729913,-9576.193725
909.609290,-4737.318029,-7476.080014,-9422.974625
909.609610,-4219.173869,-6439.791695,-9346.365076
909.609930,-3775.050304,-4071.132681,-9499.584175
909.610250,-2072.576638,-1184.329507,-10112.460574
909.610570,666.185348,1406.391290,-10648.727422
909.610890,2442.679609,3478.967927,-10955.165621
909.611210,2442.679609,3701.029710,-10572.117872
909.611530,2590.720797,2368.659014,-10648.727422
909.611850,2072.576638,74.020594,-10725.336972
909.612171,0.000000,-592.164754,-10878.556072
909.612491,-2664.741391,-1258.350101,-10495.508323
909.612811,-4737.318029,-2294.638420,-10265.679673
909.613131,-5625.565159,-2368.659014,-9882.631924
909.613451,-7105.977043,-3256.906145,-9729.412825
909.613771,-6735.874072,-4589.276840,-9499.584175
909.614091,-3997.112087,-4219.173869,-9269.755526
909.614411,444.123565,-3701.029710,-9806.022374
909.614731,3108.864956,-1480.411884,-10265.679673
909.615051,3182.885551,1036.288319,-10265.679673
909.615371,1406.391290,2516.700203,-10112.460574
909.615691,1702.473667,3478.967927,-10342.289223
909.616011,2146.597232,2664.741391,-10495.508323
909.616331,1258.350101,814.226536,-10801.946522
909.616651,-1628.453072,-2368.659014,-10265.679673
909.616972,-5033.400406,-4367.215058,-10112.460574
909.617292,-7624.121203,-5255.462188,-9039.926876
909.617612,-8882.471304,-4589.276840,-9269.755526
909.617932,-6587.832884,-4663.297435,-8963.317327
909.618252,-2294.638420,-4441.235652,-8503.660028
909.618572,2368.659014,-3775.050304,-9806.022374
909.618892,3404.947333,-2220.617826,-10725.336972
909.619212,3256.906145,444.123565,-9806.022374
909.619532,3108.864956,3552.988522,-10495.508323
909.619852,3849.070898,5107.421000,-11031.775171
909.620172,2590.720797,3775.050304,-11491.432470
909.620492,-740.205942,814.226536,-11031.775171
909.620812,-4885.359217,-2590.720797,-10265.679673
909.621132,-8068.244768,-5995.668130,-9882.631924
909.621452,-7476.080014,-7624.121203,-9499.584175
909.621773,-5625.565159,-8364.327145,-9193.145976
909.622093,-4663.297435,-7920.203579,-9806.022374
909.622413,-3478.967927,-5033.400406,-9116.536426
909.622733,-1554.432478,-2738.761985,-10265.679673
909.623053,2664.741391,444.123565,-9882.631924
909.623373,4885.359217,3256.906145,-11031.775171
909.623693,5699.585753,2960.823768,-11261.603821
909.624013,2812.782580,2146.597232,-10801.946522
909.624333,-1258.350101,-1258.350101,-10418.898773
909.624653,-3182.885551,-4663.297435,-9806.022374
909.624973,-3997.112087,-6883.915261,-9806.022374
909.625293,-6809.894666,-6513.812290,-9422.974625
909.625613,-7624.121203,-5995.668130,-8733.488677
909.625933,-6365.771101,-6069.688724,-8963.317327
909.626253,-2886.803174,-4959.379811,-9652.803275
909.626574,-592.164754,-3404.947333,-10112.460574
909.626894,-962.267725,-1924.535449,-10342.289223
909.627214,-1036.288319,-1406.391290,-9499.584175
909.627534,888.247130,-370.102971,-10035.851024
909.627854,3627.009116,1924.535449,-10725.336972
909.628174,3182.885551,2368.659014,-10648.727422
909.628494,1554.432478,0.000000,-10955.165621
909.628814,-592.164754,-1776.494261,-10648.727422
909.629134,-2590.720797,-3627.009116,-10878.556072
909.629454,-4885.359217,-3849.070898,-10035.851024
909.629774,-6513.812290,-4885.359217,-9346.365076
909.630094,-5773.606348,-5033.400406,-9499.584175
909.630414,-3775.050304,-5181.441594,-9499.584175
909.630734,-962.267725,-3701.029710,-9806.022374
909.631054,444.123565,-962.267725,-9806.022374
909.631375,2738.761985,148.041188,-11261.603821
909.631695,2960.823768,1406.391290,-10878.556072
909.632015,1480.411884,814.226536,-10648.727422
909.632335,740.205942,518.144159,-9499.584175
909.632655,666.185348,-1036.288319,-10265.679673
909.632975,-518.144159,-1480.411884,-10189.070123
909.633295,-3182.885551,-2664.741391,-10265.679673
909.633615,-4145.153275,-3997.112087,-9652.803275
909.633935,-4737.318029,-4737.318029,-9269.755526
909.634255,-4441.235652,-3775.050304,-9882.631924
909.634575,-3775.050304,-1850.514855,-9346.365076
909.634895,-2146.597232,-2738.761985,-9806.022374
909.635215,1776.494261,-1332.370696,-10035.851024
909.635535,3034.844362,-1184.329507,-10495.508323
909.635855,3330.926739,370.102971,-10342.289223
909.636176,2072.576638,2960.823768,-10801.946522
909.636496,-888.247130,2664.741391,-11108.384721
909.636816,-1850.514855,1332.370696,-10342.289223
909.637136,-1924.535449,-1554.432478,-10418.898773
909.637456,-2738.761985,-4145.153275,-9806.022374
909.637776,-4663.297435,-5699.585753,-9576.193725
909.638097,-5329.482782,-3404.947333,-9346.365076
909.638417,-6217.729913,-1776.494261,-9806.022374
909.638737,-4737.318029,222.061783,-9959.241474
909.639057,-740.205942,-1332.370696,-9882.631924
909.639378,1554.432478,-2368.659014,-10265.679673
909.639698,2442.679609,-2072.576638,-10112.460574
909.640018,2738.761985,-222.061783,-10801.946522
909.640338,2812.782580,1628.453072,-10648.727422
909.640659,666.185348,2516.700203,-10342.289223
909.640979,-1184.329507,518.144159,-10112.460574
909.641299,-2146.597232,-2368.659014,-10189.070123
909.641619,-3701.029710,-3034.844362,-9882.631924
909.641939,-4737.318029,-3404.947333,-10112.460574
909.642260,-3701.029710,-2368.659014,-10112.460574
909.642580,-4071.132681,-1998.556043,-9806.022374
909.642900,-3182.885551,-3775.050304,-9729.412825
909.643220,-1702.473667,-3923.091493,-8963.317327
909.643541,0.000000,-2664.741391,-9959.241474
909.643861,888.247130,296.082377,-9806.022374
909.644181,1776.494261,888.247130,-10495.508323
909.644501,1998.556043,2368.659014,-10265.679673
909.644821,1480.411884,0.000000,-10112.460574
909.645142,0.000000,-2664.741391,-9499.584175
909.645462,-962.267725,-4367.215058,-9806.022374
909.645782,-3256.906145,-4885.359217,-9959.241474
909.646102,-4885.359217,-1776.494261,-9806.022374
909.646423,-5551.544565,0.000000,-10189.070123
909.646743,-4367.215058,-962.267725,-9576.193725
909.647063,-2442.679609,-814.226536,-10189.070123
909.647383,-1406.391290,-1850.514855,-10648.727422
909.647703,0.000000,-3034.844362,-10112.460574
909.648024,2294.638420,-2294.638420,-11874.480219
909.648344,1998.556043,-740.205942,-10189.070123
909.648664,592.164754,0.000000,-10189.070123
909.648984,2368.659014,888.247130,-10572.117872
909.649305,2442.679609,1480.411884,-10955.165621
909.649625,-1184.329507,1036.288319,-10801.946522
909.649945,-5329.482782,1036.288319,-9729.412825
909.650265,-3182.885551,-814.226536,-10035.851024
909.650586,2442.679609,-3256.906145,-9499.584175
909.650906,2442.679609,-5033.400406,-9576.193725
909.651226,-296.082377,-4367.215058,-9882.631924
909.651546,-1776.494261,-2664.741391,-9806.022374
909.651866,-1702.473667,222.061783,-9806.022374
909.652187,-444.123565,3034.844362,-9576.193725
909.652507,1480.411884,3330.926739,-10342.289223
909.652827,2368.659014,962.267725,-10495.508323
909.653147,2516.700203,-2220.617826,-10265.679673
909.653468,1480.411884,-3034.844362,-9806.022374
909.653788,2516.700203,-1924.535449,-9882.631924
909.654108,1628.453072,0.000000,-10189.070123
909.654428,-296.082377,-888.247130,-10342.289223
909.654748,-2738.761985,-1258.350101,-9652.803275
909.655069,-4071.132681,-1036.288319,-8963.317327
909.655389,-1554.432478,-2812.782580,-9422.974625
909.655709,4293.194464,-1184.329507,-9959.241474
909.656029,6217.729913,444.123565,-10035.851024
909.656350,3404.947333,296.082377,-10495.508323
909.656670,1702.473667,518.144159,-9269.755526
909.656990,1110.308913,1036.288319,-10035.851024
909.657310,2664.741391,3108.864956,-10725.336972
909.657630,1406.391290,2220.617826,-10495.508323
909.657951,-444.123565,592.164754,-10725.336972
909.658271,-1258.350101,296.082377,-10035.851024
909.658591,-370.102971,-962.267725,-9959.241474
909.658911,1554.432478,-2442.679609,-9959.241474
909.659232,3404.947333,-740.205942,-10648.727422
909.659552,1406.391290,296.082377,-10418.898773
909.659872,148.041188,296.082377,-10112.460574
909.660192,148.041188,2294.638420,-9806.022374
909.660513,1036.288319,3256.906145,-10725.336972
909.660833,2442.679609,592.164754,-9652.803275
909.661153,2294.638420,370.102971,-10572.117872
909.661473,3552.988522,444.123565,-10035.851024
909.661793,3552.988522,0.000000,-9729.412825
909.662114,0.000000,1406.391290,-9806.022374
909.662434,-3034.844362,-592.164754,-9499.584175
909.662754,-5181.441594,-962.267725,-9269.755526
909.663074,-5329.482782,-2960.823768,-9422.974625
909.663395,-2738.761985,-3256.906145,-9499.584175
909.663715,-1480.411884,-740.205942,-7890.783629
909.664035,-888.247130,0.000000,-10418.898773
909.664355,1776.494261,1332.370696,-9576.193725
909.664675,-1924.535449,222.061783,-10342.289223
909.664996,-592.164754,962.267725,-10189.070123
909.665316,-222.061783,1258.350101,-9729.412825
909.665636,1036.288319,3997.112087,-10801.946522
909.665956,666.185348,5773.606348,-11261.603821
909.666277,444.123565,5477.523971,-10878.556072
909.666597,518.144159,1480.411884,-10265.679673
909.666917,1036.288319,-2072.576638,-9806.022374
909.667237,888.247130,-2812.782580,-9806.022374
909.667557,962.267725,-2368.659014,-9806.022374
909.667878,0.000000,148.041188,-10572.117872
909.668198,1184.329507,2664.741391,-10342.289223
909.668518,3108.864956,3404.947333,-10495.508323
909.668838,3849.070898,2590.720797,-10342.289223
909.669159,3627.009116,1258.350101,-10342.289223
909.669479,4367.215058,296.082377,-10418.898773
909.669799,4293.194464,888.247130,-10878.556072
909.670119,3627.009116,962.267725,-10342.289223
909.670440,1480.411884,592.164754,-9806.022374
909.670760,0.000000,-148.041188,-9806.022374
909.671080,1184.329507,-888.247130,-10495.508323
909.671400,518.144159,296.082377,-10112.460574
909.671720,-1332.370696,222.061783,-10035.851024
909.672041,-2072.576638,888.247130,-9193.145976
909.672361,296.082377,0.000000,-10035.851024
909.672681,2442.679609,-814.226536,-9806.022374
909.673001,4737.318029,-1850.514855,-9422.974625
909.673322,2886.803174,-1332.370696,-10035.851024
909.673642,1406.391290,2220.617826,-10265.679673
909.673962,888.247130,3330.926739,-9806.022374
909.674282,592.164754,2590.720797,-10265.679673
909.674602,1480.411884,1406.391290,-9806.022374
909.674923,518.144159,222.061783,-10189.070123
909.675243,-2590.720797,-1332.370696,-9959.241474
909.675563,-3775.050304,-962.267725,-9652.803275
909.675883,-1554.432478,-1332.370696,-10035.851024
909.676204,0.000000,-1554.432478,-10035.851024
909.676524,-1554.432478,-148.041188,-10189.070123
909.676844,-2516.700203,-592.164754,-10418.898773
909.677164,-3923.091493,814.226536,-10035.851024
909.677484,-2516.700203,296.082377,-10189.070123
909.677805,740.205942,518.144159,-10495.508323
909.678125,1776.494261,814.226536,-10342.289223
909.678445,1110.308913,-1702.473667,-11031.775171
909.678765,444.123565,-4663.297435,-9269.755526
909.679086,-1036.288319,-3330.926739,-10189.070123
909.679406,-4071.132681,-1628.453072,-11951.089769
909.679726,-4811.338623,444.123565,-9806.022374
909.680046,-3775.050304,148.041188,-9959.241474
909.680366,-1554.432478,-1258.350101,-9729.412825
909.680687,-2738.761985,-1776.494261,-9806.022374
909.681007,-962.267725,-3256.906145,-10342.289223
909.681327,666.185348,-3034.844362,-9576.193725
909.681647,-296.082377,-592.164754,-10265.679673
909.681968,-1184.329507,1258.350101,-9806.022374
909.682288,-3330.926739,2960.823768,-10035.851024
909.682608,-1480.411884,3256.906145,-10265.679673
909.682928,592.164754,296.082377,-10878.556072
909.683249,1776.494261,-2738.761985,-9806.022374
909.683569,2146.597232,-3627.009116,-9729.412825
909.683889,-592.164754,-3108.864956,-9729.412825
909.684209,888.247130,-1258.350101,-10189.070123
909.684529,2886.803174,1628.453072,-10418.898773
909.684850,2294.638420,2590.720797,-10418.898773
909.685170,148.041188,962.267725,-10342.289223
909.685490,0.000000,2072.576638,-9882.631924
909.685810,3478.967927,1184.329507,-10189.070123
909.686131,6957.935855,-296.082377,-11184.994271
909.686451,3775.050304,-370.102971,-10955.165621
909.686771,444.123565,-1184.329507,-10189.070123
909.687091,2516.700203,-740.205942,-9882.631924
909.687411,3775.050304,1036.288319,-10265.679673
909.687732,4663.297435,1628.453072,-10878.556072
909.688052,2294.638420,1332.370696,-10801.946522
909.688372,666.185348,148.041188,-10495.508323
909.688692,1258.350101,-1184.329507,-9959.241474
909.689013,2738.761985,-1554.432478,-9806.022374
909.689333,3627.009116,-592.164754,-10112.460574
909.689653,3627.009116,444.123565,-10265.679673
909.689973,1924.535449,1480.411884,-9959.241474
909.690293,2294.638420,1924.535449,-9882.631924
909.690614,1554.432478,2146.597232,-9959.241474
909.690934,1406.391290,1628.453072,-10342.289223
909.691254,1776.494261,296.082377,-9729.412825
909.691574,1480.411884,444.123565,-10342.289223
909.691895,888.247130,-296.082377,-9806.022374
909.692215,444.123565,740.205942,-10342.289223
909.692535,0.000000,1406.391290,-9729.412825
909.692855,1036.288319,1702.473667,-10112.460574
909.693176,444.123565,2664.741391,-9422.974625
909.693496,-148.041188,2294.638420,-10265.679673
909.693816,-1332.370696,888.247130,-10112.460574
909.694136,-1776.494261,148.041188,-9729.412825
909.694456,-814.226536,-222.061783,-10265.679673
909.694777,-370.102971,296.082377,-9499.584175
909.695097,-1110.308913,-962.267725,-10189.070123
909.695417,-1776.494261,518.144159,-10572.117872
909.695737,-1998.556043,2516.700203,-9959.241474
909.696058,-1702.473667,2664.741391,-11184.994271
909.696378,-1776.494261,2146.597232,-10495.508323
909.696698,-1258.350101,888.247130,-9652.803275
909.697018,-1776.494261,-370.102971,-10725.336972
909.697338,-1776.494261,-888.247130,-9729.412825
909.697659,-1258.350101,-592.164754,-10265.679673
909.697979,-444.123565,0.000000,-10035.851024
909.698299,-1998.556043,1702.473667,-10189.070123
909.698619,-666.185348,2590.720797,-10648.727422
909.698940,74.020594,3034.844362,-10112.460574
909.699260,814.226536,2442.679609,-10035.851024
909.699580,1332.370696,1998.556043,-10572.117872
909.699900,1036.288319,-148.041188,-10801.946522
909.700220,-1110.308913,-444.123565,-9882.631924
909.700541,-1998.556043,888.247130,-9806.022374
909.700861,-666.185348,4441.235652,-11184.994271
909.701181,1702.473667,5329.482782,-11721.261119
909.701501,4589.276840,8216.285956,-10725.336972
909.701822,2738.761985,6365.771101,-11184.994271
909.702142,2960.823768,2294.638420,-9652.803275
909.702462,2294.638420,-1110.308913,-9729.412825
909.702782,2960.823768,-4811.338623,-9499.584175
909.703103,3034.844362,-5921.647536,-9039.926876
909.703423,1184.329507,-5847.626942,-8733.488677
909.703743,4515.256246,-4071.132681,-9346.365076
909.704063,5403.503377,666.185348,-9422.974625
909.704383,4441.235652,2886.803174,-10265.679673
909.704704,3034.844362,2812.782580,-10572.117872
909.705024,1850.514855,-296.082377,-9269.755526
909.705344,2664.741391,-3627.009116,-9193.145976
909.705664,3330.926739,-4737.318029,-9116.536426
909.705985,4737.318029,-4589.276840,-9806.022374
909.706305,6143.709319,-3330.926739,-9652.803275
909.706625,2960.823768,444.123565,-9729.412825
909.706945,0.000000,2738.761985,-10035.851024
909.707265,814.226536,3108.864956,-10572.117872
909.707586,1406.391290,1776.494261,-9959.241474
909.707906,592.164754,148.041188,-9806.022374
909.708226,-1258.350101,-1110.308913,-9882.631924
909.708546,-1776.494261,-2294.638420,-10035.851024
909.708867,0.000000,-2886.803174,-10265.679673
909.709187,-222.061783,-1110.308913,-9959.241474
909.709507,-2220.617826,2590.720797,-10572.117872
909.709827,-3108.864956,4589.276840,-10648.727422
909.710147,-4219.173869,5477.523971,-11568.042020
909.710468,-3849.070898,3849.070898,-11568.042020
909.710788,-3997.112087,444.123565,-9882.631924
909.711108,-2886.803174,-2738.761985,-10342.289223
909.711428,-518.144159,-4737.318029,-10265.679673
909.711749,-2072.576638,-3034.844362,-10418.898773
909.712069,-3775.050304,-1554.432478,-10265.679673
909.712389,-2368.659014,1036.288319,-10189.070123
909.712709,-1036.288319,3552.988522,-10112.460574
909.713030,0.000000,3701.029710,-11184.994271
909.713350,-814.226536,1036.288319,-9806.022374
909.713670,-1554.432478,-1628.453072,-10112.460574
909.713990,-3182.885551,-3627.009116,-9729.412825
909.714310,-4293.194464,-3701.029710,-8886.707777
909.714631,-3034.844362,-3034.844362,-10342.289223
909.714951,-2442.679609,0.000000,-9039.926876
909.715271,-3701.029710,3034.844362,-9806.022374
909.715591,-2146.597232,4441.235652,-10265.679673
909.715912,1332.370696,3404.947333,-9422.974625
909.716232,2294.638420,1776.494261,-10112.460574
909.716552,2590.720797,-444.123565,-9039.926876
909.716872,3330.926739,-1554.432478,-9039.926876
909.717192,2368.659014,-2368.659014,-9729.412825
909.717513,1628.453072,-1184.329507,-8963.317327
909.717833,0.000000,1850.514855,-9499.584175
909.718153,2220.617826,4737.318029,-10648.727422
909.718473,3034.844362,5181.441594,-10418.898773
909.718794,2664.741391,2960.823768,-10801.946522
909.719114,1554.432478,592.164754,-9729.412825
909.719434,444.123565,-1258.350101,-9959.241474
909.719754,2516.700203,-1480.411884,-10418.898773
909.720074,2812.782580,-962.267725,-10265.679673
909.720395,3478.967927,-222.061783,-10189.070123
909.720715,2738.761985,1480.411884,-10418.898773
909.721035,2368.659014,2072.576638,-10801.946522
909.721355,4441.235652,2738.761985,-10878.556072
909.721676,4885.359217,3923.091493,-10955.165621
909.721996,3923.091493,3256.906145,-10725.336972
909.722316,3182.885551,592.164754,-11031.775171
909.722636,3034.844362,-2146.597232,-9576.193725
909.722957,3478.967927,-2664.741391,-10265.679673
909.723277,2812.782580,-592.164754,-9959.241474
909.723597,2294.638420,2146.597232,-9269.755526
909.723917,1924.535449,3108.864956,-10725.336972
909.724237,1702.473667,3849.070898,-9959.241474
909.724558,1036.288319,1998.556043,-9806.022374
909.724878,2146.597232,-1258.350101,-9959.241474
909.725198,1702.473667,-1554.432478,-9422.974625
909.725518,-370.102971,-1554.432478,-9729.412825
909.725839,-1480.411884,-740.205942,-9269.755526
909.726159,-1332.370696,592.164754,-9039.926876
909.726479,148.041188,1628.453072,-10418.898773
909.726799,0.000000,1998.556043,-9729.412825
909.727119,-1332.370696,1258.350101,-9806.022374
909.727440,-2072.576638,1110.308913,-9806.022374
909.727760,-2294.638420,592.164754,-9576.193725
909.728080,148.041188,-1406.391290,-9959.241474
909.728400,-370.102971,-2442.679609,-9576.193725
909.728721,-1702.473667,-3108.864956,-9959.241474
909.729041,-2294.638420,-2664.741391,-10112.460574
909.729361,-2590.720797,0.000000,-9882.631924
909.729681,-1332.370696,2516.700203,-11184.994271
909.730001,-296.082377,3552.988522,-10955.165621
909.730322,-1554.432478,2516.700203,-10648.727422
909.730642,-3182.885551,666.185348,-11338.213370
909.730962,-3478.967927,-1924.535449,-10189.070123
909.731282,-2664.741391,-2442.679609,-10265.679673
909.731603,-1036.288319,-1702.473667,-10878.556072
909.731923,-296.082377,0.000000,-10265.679673
909.732243,-1110.308913,1110.308913,-10648.727422
909.732563,-1628.453072,1998.556043,-10648.727422
909.732884,-2442.679609,2220.617826,-9959.241474
909.733204,74.020594,592.164754,-10572.117872
909.733524,2294.638420,74.020594,-8810.098227
909.733844,2960.823768,-888.247130,-10112.460574
909.734164,2960.823768,-1036.288319,-9959.241474
909.734485,0.000000,0.000000,-9576.193725
909.734805,740.205942,0.000000,-9882.631924
909.735125,3701.029710,1406.391290,-9806.022374
909.735445,2590.720797,1998.556043,-9499.584175
909.735766,1184.329507,1850.514855,-10035.851024
909.736086,-296.082377,740.205942,-9576.193725
909.736406,2146.597232,-1628.453072,-10035.851024
909.736726,4441.235652,-2516.700203,-9652.803275
909.737046,5181.441594,-592.164754,-9806.022374
909.737366,3330.926739,1776.494261,-10725.336972
909.737687,3108.864956,3849.070898,-10801.946522
909.738007,2146.597232,3478.967927,-11261.603821
909.738327,2368.659014,1480.411884,-10801.946522
909.738647,2812.782580,518.144159,-9806.022374
909.738967,3182.885551,148.041188,-11261.603821
909.739287,3330.926739,740.205942,-11568.042020
909.739608,1998.556043,1628.453072,-10878.556072
909.739928,1332.370696,2220.617826,-11261.603821
909.740248,1480.411884,444.123565,-9652.803275
909.740568,0.000000,-2664.741391,-9729.412825
909.740888,-1110.308913,-1776.494261,-9806.022374
909.741208,-2146.597232,-1258.350101,-8886.707777
909.741529,1036.288319,-740.205942,-10035.851024
909.741849,4441.235652,0.000000,-8963.317327
909.742169,3701.029710,1036.288319,-10112.460574
909.742489,2516.700203,666.185348,-9882.631924
909.742809,148.041188,444.123565,-8656.879127
909.743129,814.226536,74.020594,-9652.803275
909.743450,1258.350101,296.082377,-8733.488677
909.743770,1258.350101,592.164754,-9039.926876
909.744090,-1184.329507,-740.205942,-8810.098227
909.744410,-1258.350101,-1554.432478,-8580.269578
909.744730,518.144159,-592.164754,-9576.193725
909.745050,518.144159,592.164754,-9039.926876
909.745371,-1628.453072,1036.288319,-9499.584175
909.745691,-2442.679609,2886.803174,-10265.679673
909.746011,-2368.659014,1628.453072,-9729.412825
909.746331,-2442.679609,1036.288319,-10189.070123
909.746651,-2294.638420,-592.164754,-10495.508323
909.746971,-1628.453072,-814.226536,-9806.022374
909.747292,-3108.864956,-888.247130,-10495.508323
909.747612,-2368.659014,0.000000,-11031.775171
909.747932,-3701.029710,2072.576638,-10265.679673
909.748252,-3478.967927,1480.411884,-11184.994271
909.748572,-2812.782580,1850.514855,-11338.213370
909.748892,-1776.494261,1776.494261,-10955.165621
909.749213,-1036.288319,888.247130,-12410.747068
909.749533,-2368.659014,1036.288319,-10495.508323
909.749853,-1184.329507,0.000000,-10572.117872
909.750173,2664.741391,-1110.308913,-10725.336972
909.750493,1110.308913,0.000000,-9882.631924
909.750813,-222.061783,1554.432478,-10418.898773
909.751134,-1332.370696,2812.782580,-10495.508323
909.751454,74.020594,1850.514855,-9806.022374
909.751774,814.226536,1258.350101,-9959.241474
909.752094,-888.247130,148.041188,-9116.536426
909.752414,-1110.308913,74.020594,-9806.022374
909.752734,-1036.288319,-888.247130,-9652.803275
909.753055,-296.082377,-1776.494261,-8427.050478
909.753375,1406.391290,-1924.535449,-9193.145976
909.753695,3997.112087,-2146.597232,-8503.660028
909.754015,5995.668130,-444.123565,-9193.145976
909.754335,5329.482782,0.000000,-10189.070123
909.754655,4219.173869,962.267725,-9193.145976
909.754976,1850.514855,814.226536,-9882.631924
909.755296,2442.679609,0.000000,-9346.365076
909.755616,814.226536,-962.267725,-9576.193725
909.755936,1628.453072,-740.205942,-10342.289223
909.756256,2146.597232,-1554.432478,-9882.631924
909.756576,3182.885551,-1036.288319,-9806.022374
909.756897,5403.503377,-74.020594,-10801.946522
909.757217,2590.720797,74.020594,-10189.070123
909.757537,592.164754,370.102971,-11108.384721
909.757857,148.041188,0.000000,-12180.918418
909.758177,1406.391290,-148.041188,-10035.851024
909.758497,3108.864956,0.000000,-11721.261119
909.758818,2590.720797,2368.659014,-10725.336972
909.759138,74.020594,3404.947333,-12104.308868
909.759458,1406.391290,2516.700203,-11951.089769
909.759778,2146.597232,1332.370696,-10418.898773
909.760098,1924.535449,518.144159,-10725.336972
909.760418,740.205942,-1184.329507,-10265.679673
909.760739,0.000000,-2738.761985,-10265.679673
909.761059,-2294.638420,-1258.350101,-10418.898773
909.761379,-2368.659014,1036.288319,-9576.193725
909.761699,-222.061783,2072.576638,-10112.460574
909.762019,2220.617826,2738.761985,-10265.679673
909.762339,3034.844362,2294.638420,-10648.727422
909.762660,592.164754,-296.082377,-10342.289223
909.762980,-2368.659014,-2368.659014,-8886.707777
909.763300,-3997.112087,-2072.576638,-9422.974625
909.763620,-2368.659014,-2146.597232,-9806.022374
909.763940,-2368.659014,-1184.329507,-9422.974625
909.764261,-2886.803174,-222.061783,-10189.070123
909.764581,-4367.215058,-296.082377,-9422.974625
909.764901,-2146.597232,148.041188,-9346.365076
909.765221,-296.082377,-518.144159,-10189.070123
909.765541,-222.061783,0.000000,-9729.412825
909.765861,-962.267725,-222.061783,-10189.070123
909.766182,-1184.329507,0.000000,-9882.631924
909.766502,-1850.514855,814.226536,-9806.022374
909.766822,-370.102971,888.247130,-10955.165621
909.767142,518.144159,74.020594,-10189.070123
909.767462,888.247130,-296.082377,-10265.679673
909.767782,3034.844362,666.185348,-10572.117872
909.768103,1258.350101,2146.597232,-10035.851024
909.768423,740.205942,2368.659014,-11261.603821
909.768743,518.144159,1628.453072,-10495.508323
909.769063,666.185348,814.226536,-10418.898773
909.769383,-222.061783,740.205942,-10265.679673
909.769703,592.164754,296.082377,-9652.803275
909.770024,1110.308913,814.226536,-10265.679673
909.770344,2960.823768,1184.329507,-10342.289223
909.770664,2442.679609,2368.659014,-10342.289223
909.770984,1110.308913,1628.453072,-10495.508323
909.771304,2442.679609,148.041188,-10035.851024
909.771624,1776.494261,-1110.308913,-9499.584175
909.771945,2960.823768,-1998.556043,-10725.336972
909.772265,3108.864956,-888.247130,-11031.775171
909.772585,2886.803174,962.267725,-10648.727422
909.772905,3256.906145,3404.947333,-10572.117872
909.773225,2368.659014,4737.318029,-9882.631924
909.773545,2886.803174,3627.009116,-11184.994271
909.773866,2294.638420,1036.288319,-9882.631924
909.774186,148.041188,-2072.576638,-9729.412825
909.774506,296.082377,-3775.050304,-9269.755526
909.774826,-444.123565,-3849.070898,-8427.050478
909.775146,2368.659014,-2664.741391,-9959.241474
909.775466,2960.823768,-740.205942,-9806.022374
909.775787,296.082377,888.247130,-9039.926876
909.776107,518.144159,1628.453072,-10189.070123
909.776427,296.082377,2442.679609,-9422.974625
909.776747,-1258.350101,1850.514855,-10265.679673
909.777067,444.123565,-888.247130,-10572.117872
909.777387,888.247130,-2072.576638,-9422.974625
909.777708,-814.226536,-3330.926739,-10265.679673
909.778028,-1332.370696,-2072.576638,-9346.365076
909.778348,-3034.844362,444.123565,-9576.193725
909.778668,-1776.494261,888.247130,-10878.556072
909.778988,-814.226536,2146.597232,-9882.631924
909.779308,-2738.761985,1554.432478,-11874.480219
909.779629,-3552.988522,370.102971,-10035.851024
909.779949,-3552.988522,-370.102971,-9882.631924
909.780269,-370.102971,-1184.329507,-10495.508323
909.780589,2368.659014,-1184.329507,-10112.460574
909.780909,1184.329507,-1258.350101,-10955.165621
909.781229,-1406.391290,-444.123565,-10801.946522
909.781550,-4071.132681,-148.041188,-10265.679673
909.781870,-2368.659014,888.247130,-10648.727422
909.782190,-888.247130,0.000000,-10189.070123
909.782510,444.123565,370.102971,-10112.460574
909.782830,-888.247130,0.000000,-10955.165621
909.783150,-370.102971,222.061783,-10189.070123
909.783471,518.144159,1036.288319,-10112.460574
909.783791,2146.597232,962.267725,-10801.946522
909.784111,962.267725,296.082377,-10572.117872
909.784431,-962.267725,-1332.370696,-10112.460574
909.784751,-1184.329507,-2812.782580,-9422.974625
909.785071,-222.061783,-3108.864956,-9193.145976
909.785392,1702.473667,-1554.432478,-10418.898773
909.785712,1850.514855,962.267725,-9806.022374
909.786032,2738.761985,2738.761985,-10955.165621
909.786352,2516.700203,2368.659014,-9652.803275
909.786672,2516.700203,1258.350101,-9652.803275
909.786992,2220.617826,-962.267725,-9806.022374
909.787313,3182.885551,-2738.761985,-9269.755526
909.787633,1554.432478,-1850.514855,-9346.365076
909.787953,2590.720797,-1036.288319,-9652.803275
909.788273,3701.029710,1628.453072,-9576.193725
909.788593,4737.318029,3034.844362,-10495.508323
909.788913,3552.988522,3701.029710,-10572.117872
909.789234,888.247130,2590.720797,-9959.241474
909.789554,962.267725,1184.329507,-10418.898773
909.789874,2072.576638,-2072.576638,-9576.193725
909.790194,2886.803174,-3256.906145,-10035.851024
909.790514,1554.432478,-2664.741391,-10112.460574
909.790834,222.061783,1406.391290,-9806.022374
909.791155,-1702.473667,3404.947333,-11184.994271
909.791475,2220.617826,5329.482782,-11108.384721
909.791795,2368.659014,4885.359217,-11414.822920
909.792115,3034.844362,222.061783,-10342.289223
909.792435,666.185348,-1924.535449,-10265.679673
909.792755,518.144159,-2886.803174,-10725.336972
909.793076,-1554.432478,-1924.535449,-9729.412825
909.793396,-1850.514855,740.205942,-10112.460574
909.793716,0.000000,1776.494261,-9959.241474
909.794036,1850.514855,2442.679609,-10342.289223
909.794356,1036.288319,3256.906145,-10495.508323
909.794676,0.000000,3108.864956,-11108.384721
909.794997,-740.205942,1924.535449,-10035.851024
909.795317,-888.247130,222.061783,-9806.022374
909.795637,-592.164754,-2220.617826,-9729.412825
909.795957,-1480.411884,-2664.741391,-8963.317327
909.796277,-2146.597232,-2294.638420,-9729.412825
909.796597,-1628.453072,-370.102971,-9729.412825
909.796918,-1554.432478,2442.679609,-9959.241474
909.797238,-1332.370696,3404.947333,-10418.898773
909.797558,-1036.288319,2146.597232,-9422.974625
909.797878,0.000000,-222.061783,-9806.022374
909.798198,74.020594,-3108.864956,-9269.755526
909.798518,-1628.453072,-2368.659014,-8656.879127
909.798839,-1702.473667,-1702.473667,-9729.412825
909.799159,370.102971,0.000000,-9729.412825
909.799479,592.164754,1036.288319,-9959.241474
909.799799,-1998.556043,888.247130,-10265.679673
909.800119,-2812.782580,962.267725,-9652.803275
909.800439,740.205942,1850.514855,-10801.946522
909.800760,2812.782580,592.164754,-10418.898773
909.801080,2072.576638,1184.329507,-10878.556072
909.801400,-1554.432478,666.185348,-11031.775171
909.801720,-1702.473667,0.000000,-9652.803275
909.802040,814.226536,518.144159,-10189.070123
909.802361,2442.679609,1036.288319,-11031.775171
909.802681,1480.411884,2294.638420,-10189.070123
909.803001,-666.185348,1998.556043,-11491.432470
909.803321,-148.041188,1036.288319,-10418.898773
909.803641,1110.308913,-814.226536,-11184.994271
909.803961,2368.659014,-2442.679609,-10418.898773
909.804282,2664.741391,-1998.556043,-9499.584175
909.804602,3330.926739,-814.226536,-10189.070123
909.804922,3256.906145,2220.617826,-10342.289223
909.805242,2368.659014,2072.576638,-9959.241474
909.805562,2960.823768,296.082377,-10418.898773
909.805882,3997.112087,-666.185348,-9959.241474
909.806203,2590.720797,-1110.308913,-10035.851024
909.806523,1850.514855,-1480.411884,-9729.412825
909.806843,962.267725,-814.226536,-9422.974625
909.807163,2664.741391,-1184.329507,-10112.460574
909.807483,3552.988522,-296.082377,-10035.851024
909.807803,666.185348,0.000000,-10035.851024
909.808124,-740.205942,1480.411884,-9959.241474
909.808444,-888.247130,1258.350101,-9806.022374
909.808764,666.185348,1776.494261,-9576.193725
909.809084,2368.659014,-74.020594,-10955.165621
909.809404,2368.659014,-1258.350101,-9039.926876
909.809724,2294.638420,-2146.597232,-10418.898773
909.810045,814.226536,-962.267725,-9652.803275
909.810365,666.185348,592.164754,-9806.022374
909.810685,518.144159,1480.411884,-10725.336972
909.811005,0.000000,518.144159,-9806.022374
909.811325,-1480.411884,740.205942,-10112.460574
909.811645,-1480.411884,740.205942,-10112.460574
909.811966,-1850.514855,148.041188,-9806.022374
909.812286,-1480.411884,-518.144159,-10725.336972
909.812606,-222.061783,-1110.308913,-9806.022374
909.812926,0.000000,-1850.514855,-9806.022374
909.813246,-148.041188,-222.061783,-10495.508323
909.813566,-370.102971,962.267725,-9882.631924
909.813887,-592.164754,1850.514855,-11184.994271
909.814207,0.000000,1998.556043,-10572.117872
909.814527,-814.226536,2442.679609,-10648.727422
909.814847,-2442.679609,888.247130,-10265.679673
909.815167,-2442.679609,592.164754,-9806.022374
909.815487,-1924.535449,-814.226536,-10189.070123
909.815808,0.000000,-2072.576638,-10265.679673
909.816128,0.000000,-1406.391290,-9806.022374
909.816448,-666.185348,370.102971,-10572.117872
909.816768,-2220.617826,2442.679609,-9959.241474
909.817088,-2072.576638,3256.906145,-10572.117872
909.817408,444.123565,3256.906145,-10801.946522
909.817729,1110.308913,1924.535449,-9269.755526
909.818049,-592.164754,-222.061783,-10112.460574
909.818369,148.041188,-2220.617826,-9729.412825
909.818689,1332.370696,-1850.514855,-9346.365076
909.819009,3330.926739,-1184.329507,-10035.851024
909.819329,3849.070898,888.247130,-8656.879127
909.819650,888.247130,1924.535449,-10648.727422
909.819970,-592.164754,1998.556043,-10572.117872
909.820290,-962.267725,1332.370696,-9652.803275
909.820610,222.061783,962.267725,-10189.070123
909.820930,2960.823768,-370.102971,-9806.022374
909.821250,4145.153275,-666.185348,-10418.898773
909.821571,4293.194464,0.000000,-10495.508323
909.821891,2072.576638,1110.308913,-10112.460574
909.822211,-296.082377,2146.597232,-11414.822920
909.822531,740.205942,1184.329507,-9652.803275
909.822851,2442.679609,666.185348,-9806.022374
909.823171,2886.803174,-444.123565,-9806.022374
909.823492,1924.535449,-814.226536,-8810.098227
909.823812,2664.741391,-444.123565,-9729.412825
909.824132,4589.276840,1036.288319,-10572.117872
909.824452,2442.679609,888.247130,-9652.803275
909.824772,74.020594,1998.556043,-10112.460574
909.825092,-814.226536,2072.576638,-10265.679673
909.825413,-296.082377,296.082377,-8963.317327
909.825733,444.123565,-592.164754,-10265.679673
909.826053,962.267725,-1998.556043,-9806.022374
909.826373,1406.391290,-1776.494261,-9806.022374
909.826693,296.082377,0.000000,-10572.117872
909.827013,814.226536,2220.617826,-9806.022374
909.827334,2442.679609,2664.741391,-10648.727422
909.827654,3627.009116,2072.576638,-10955.165621
909.827974,1850.514855,1036.288319,-9422.974625
909.828294,-1924.535449,888.247130,-10495.508323
909.828614,-3108.864956,370.102971,-9806.022374
909.828934,-1406.391290,-592.164754,-9729.412825
909.829255,1480.411884,-1850.514855,-10648.727422
909.829575,592.164754,-1850.514855,-9652.803275
909.829895,-2072.576638,-518.144159,-10572.117872
909.830215,-2442.679609,592.164754,-10342.289223
909.830535,-2368.659014,1628.453072,-10035.851024
909.830855,222.061783,1480.411884,-10801.946522
909.831176,888.247130,-666.185348,-9806.022374
909.831496,-888.247130,-2072.576638,-9806.022374
909.831816,-2220.617826,-1554.432478,-10801.946522
909.832136,-2738.761985,0.000000,-10418.898773
909.832456,-666.185348,1776.494261,-10572.117872
909.832776,1258.350101,1480.411884,-10495.508323
909.833097,814.226536,444.123565,-9729.412825
909.833417,0.000000,-296.082377,-10495.508323
909.833737,-2072.576638,-1554.432478,-9729.412825
909.834057,-2664.741391,-962.267725,-9806.022374
909.834377,-2516.700203,-370.102971,-9806.022374
909.834697,-518.144159,0.000000,-9422.974625
909.835018,0.000000,-370.102971,-9652.803275
909.835338,592.164754,-666.185348,-10112.460574
909.835658,592.164754,-148.041188,-10035.851024
909.835978,2368.659014,740.205942,-10189.070123
909.836298,2368.659014,2442.679609,-9882.631924
909.836618,296.082377,2072.576638,-9806.022374
909.836939,148.041188,1036.288319,-10495.508323
909.837259,1258.350101,148.041188,-9806.022374
909.837579,2220.617826,0.000000,-10572.117872
909.837899,2220.617826,148.041188,-9806.022374
909.838219,2294.638420,-148.041188,-10265.679673
909.838539,1850.514855,370.102971,-10725.336972
909.838860,2146.597232,740.205942,-9806.022374
909.839180,1998.556043,1036.288319,-10189.070123
909.839500,2146.597232,1628.453072,-10955.165621
909.839820,2072.576638,1332.370696,-10418.898773
909.840140,2072.576638,1184.329507,-11108.384721
909.840460,2294.638420,592.164754,-10112.460574
909.840780,962.267725,-444.123565,-11414.822920
909.841100,1998.556043,-888.247130,-10342.289223
909.841420,2146.597232,74.020594,-9806.022374
909.841740,3182.885551,2516.700203,-11184.994271
909.842060,2886.803174,2442.679609,-9422.974625
909.842381,2960.823768,3108.864956,-10572.117872
909.842701,2664.741391,444.123565,-10189.070123
909.843021,2812.782580,-888.247130,-9116.536426
909.843341,1702.473667,-1406.391290,-10189.070123
909.843661,1480.411884,-1110.308913,-9422.974625
909.843981,-444.123565,1258.350101,-9576.193725
909.844301,-518.144159,2294.638420,-10265.679673
909.844621,-296.082377,1850.514855,-9422.974625
909.844941,148.041188,888.247130,-8963.317327
909.845261,0.000000,-1110.308913,-9806.022374
909.845581,-222.061783,-1554.432478,-8580.269578
909.845902,-740.205942,-1850.514855,-9652.803275
909.846222,-444.123565,-1258.350101,-9499.584175
909.846542,-1406.391290,1184.329507,-9729.412825
909.846862,-2368.659014,1998.556043,-10342.289223
909.847182,-1776.494261,2072.576638,-9806.022374
909.847502,74.020594,2072.576638,-10342.289223
909.847822,1258.350101,1036.288319,-11184.994271
909.848142,-740.205942,0.000000,-9806.022374
909.848462,-2664.741391,-148.041188,-10725.336972
909.848782,-2442.679609,-1702.473667,-10342.289223
909.849102,-1850.514855,-1628.453072,-9806.022374
909.849423,-370.102971,814.226536,-11874.480219
909.849743,-740.205942,2294.638420,-9806.022374
909.850063,-666.185348,2664.741391,-10801.946522
909.850383,0.000000,1406.391290,-11184.994271
909.850703,-1036.288319,0.000000,-10265.679673
909.851023,-1406.391290,-888.247130,-10725.336972
909.851343,-666.185348,0.000000,-9806.022374
909.851663,-444.123565,962.267725,-10495.508323
909.851983,148.041188,2072.576638,-9729.412825
909.852303,-444.123565,1628.453072,-9269.755526
909.852623,0.000000,814.226536,-10648.727422
909.852944,148.041188,-1258.350101,-9806.022374
909.853264,1776.494261,-1036.288319,-9269.755526
909.853584,2294.638420,888.247130,-9959.241474
909.853904,1998.556043,1998.556043,-9806.022374
909.854224,1628.453072,2294.638420,-10189.070123
909.854544,2146.597232,592.164754,-10035.851024
909.854864,2072.576638,-1332.370696,-8580.269578
909.855184,1702.473667,-2664.741391,-9422.974625
909.855504,2220.617826,-1850.514855,-9116.536426
909.855824,2146.597232,0.000000,-9116.536426
909.856144,3256.906145,296.082377,-9806.022374
909.856465,3330.926739,148.041188,-10342.289223
909.856785,1776.494261,-1184.329507,-10112.460574
909.857105,1628.453072,-962.267725,-10112.460574
909.857425,1480.411884,-296.082377,-9346.365076
909.857745,1554.432478,1554.432478,-10189.070123
909.858065,2664.741391,962.267725,-10495.508323
909.858385,0.000000,-222.061783,-10572.117872
909.858705,888.247130,-1110.308913,-10648.727422
909.859025,740.205942,-1924.535449,-10189.070123
909.859345,2072.576638,-740.205942,-10648.727422
909.859665,2886.803174,1628.453072,-11338.213370
909.859986,740.205942,3256.906145,-10648.727422
909.860306,592.164754,3256.906145,-11184.994271
909.860626,518.144159,2442.679609,-10801.946522
909.860946,-1036.288319,1036.288319,-10189.070123
909.861266,-740.205942,-1554.432478,-11031.775171
909.861586,1036.288319,-2294.638420,-9346.365076
909.861906,1776.494261,-2368.659014,-9806.022374
909.862226,1924.535449,-888.247130,-10035.851024
909.862546,-1258.350101,1036.288319,-9806.022374
909.862866,-3404.947333,814.226536,-10418.898773
909.863186,-3775.050304,1184.329507,-9269.755526
909.863507,-2294.638420,1776.494261,-9422.974625
909.863827,-3849.070898,-296.082377,-9882.631924
909.864147,-2590.720797,-1628.453072,-9116.536426
909.864467,962.267725,-2220.617826,-9959.241474
909.864787,1924.535449,-1776.494261,-10265.679673
909.865107,-592.164754,0.000000,-9729.412825
909.865427,-1554.432478,814.226536,-10725.336972
909.865747,-2738.761985,2368.659014,-9882.631924
909.866067,-962.267725,3108.864956,-10342.289223
909.866387,-962.267725,1702.473667,-10265.679673
909.866707,0.000000,-444.123565,-9652.803275
909.867028,74.020594,-814.226536,-11031.775171
909.867348,-370.102971,-1332.370696,-10572.117872
909.867668,-148.041188,296.082377,-10648.727422
909.867988,-74.020594,2442.679609,-11338.213370
909.868308,0.000000,4737.318029,-10189.070123
909.868628,-1184.329507,5403.503377,-11721.261119
909.868948,814.226536,3627.009116,-10342.289223
909.869268,2368.659014,1258.350101,-10112.460574
909.869588,4219.173869,-1184.329507,-10725.336972
909.869908,2664.741391,-2294.638420,-9576.193725
909.870228,1480.411884,-1184.329507,-9806.022374
909.870549,1776.494261,2664.741391,-10265.679673
909.870869,1480.411884,4811.338623,-10265.679673
909.871189,1628.453072,5255.462188,-10112.460574
909.871509,1776.494261,2516.700203,-10572.117872
909.871829,666.185348,-962.267725,-9193.145976
909.872149,518.144159,-2960.823768,-9499.584175
909.872469,1554.432478,-3775.050304,-8503.660028
909.872789,2072.576638,-1110.308913,-9576.193725
909.873109,4071.132681,888.247130,-9882.631924
909.873429,3404.947333,3775.050304,-9499.584175
909.873749,1998.556043,4441.235652,-10418.898773
909.874070,3034.844362,3997.112087,-9652.803275
909.874390,2368.659014,2368.659014,-9729.412825
909.874710,3478.967927,0.000000,-9959.241474
909.875030,1850.514855,-2442.679609,-9193.145976
909.875350,1332.370696,-3256.906145,-9729.412825
909.875670,-1628.453072,-3182.885551,-9269.755526
909.875990,-2368.659014,-592.164754,-8963.317327
909.876310,-740.205942,2590.720797,-11108.384721
909.876630,74.020594,3997.112087,-9806.022374
909.876950,222.061783,3478.967927,-9959.241474
909.877270,-1480.411884,962.267725,-10342.289223
909.877591,-148.041188,-666.185348,-9193.145976
909.877911,592.164754,-2516.700203,-10495.508323
909.878231,1850.514855,-2294.638420,-10112.460574
909.878551,74.020594,-518.144159,-9959.241474
909.878871,-1406.391290,222.061783,-10801.946522
909.879191,-444.123565,592.164754,-9959.241474
909.879511,-444.123565,1036.288319,-11031.775171
909.879831,-814.226536,1332.370696,-11261.603821
909.880151,-3552.988522,1036.288319,-10342.289223
909.880471,-4737.318029,814.226536,-11031.775171
909.880791,-1850.514855,-962.267725,-10342.289223
909.881112,296.082377,-2886.803174,-10035.851024
909.881432,888.247130,-2812.782580,-10495.508323
909.881752,-222.061783,-1258.350101,-10035.851024
909.882072,-1850.514855,666.185348,-9116.536426
909.882392,-740.205942,1776.494261,-10725.336972
909.882712,0.000000,-148.041188,-9806.022374
909.883032,962.267725,-444.123565,-9959.241474
909.883352,-296.082377,-1998.556043,-9499.584175
909.883672,-814.226536,-1554.432478,-9422.974625
909.883992,74.020594,-1184.329507,-10648.727422
909.884312,666.185348,-2072.576638,-9422.974625
909.884633,1258.350101,-1406.391290,-9806.022374
909.884953,2146.597232,-2812.782580,-10035.851024
909.885273,962.267725,-1924.535449,-9346.365076
909.885593,-370.102971,888.247130,-10648.727422
909.885913,666.185348,3478.967927,-10035.851024
909.886233,1480.411884,2664.741391,-10035.851024
909.886553,2812.782580,-370.102971,-10725.336972
909.886873,1850.514855,-3034.844362,-9959.241474
909.887193,296.082377,-3775.050304,-10342.289223
909.887513,1258.350101,-148.041188,-9806.022374
909.887833,1258.350101,3552.988522,-10572.117872
909.888154,4145.153275,5181.441594,-11568.042020
909.888474,2886.803174,2886.803174,-9882.631924
909.888794,518.144159,-222.061783,-10648.727422
909.889114,0.000000,-3552.988522,-9576.193725
909.889434,1998.556043,-4293.194464,-8886.707777
909.889754,2442.679609,-2146.597232,-10342.289223
909.890074,2072.576638,-518.144159,-9193.145976
909.890394,370.102971,888.247130,-10035.851024
909.890714,296.082377,1554.432478,-10725.336972
909.891034,296.082377,222.061783,-9039.926876
909.891354,1480.411884,740.205942,-10495.508323
909.891675,2220.617826,370.102971,-9959.241474
909.891995,0.000000,888.247130,-9499.584175
909.892315,-1480.411884,-222.061783,-10189.070123
909.892635,-2220.617826,-888.247130,-8886.707777
909.892955,-1258.350101,-1036.288319,-9882.631924
909.893275,1258.350101,-1036.288319,-10112.460574
909.893595,1554.432478,1406.391290,-9729.412825
909.893915,740.205942,2516.700203,-10265.679673
909.894235,-370.102971,2294.638420,-10112.460574
909.894555,148.041188,2812.782580,-10035.851024
909.894876,1776.494261,1406.391290,-10572.117872
909.895196,1480.411884,962.267725,-10112.460574
909.895516,1184.329507,962.267725,-10342.289223
909.895836,444.123565,666.185348,-11031.775171
909.896156,-666.185348,1332.370696,-9729.412825
909.896476,-1332.370696,1776.494261,-11338.213370
909.896796,-2146.597232,1554.432478,-9806.022374
909.897116,-2516.700203,1776.494261,-9959.241474
909.897436,-2146.597232,444.123565,-10572.117872
909.897756,592.164754,1036.288319,-10189.070123
909.898076,1628.453072,592.164754,-10265.679673
909.898397,1480.411884,296.082377,-10572.117872
909.898717,740.205942,1332.370696,-9729.412825
909.899037,592.164754,2294.638420,-10725.336972
909.899357,1332.370696,2072.576638,-9806.022374
909.899677,1480.411884,1998.556043,-9882.631924
909.899997,1480.411884,518.144159,-10495.508323
909.900317,666.185348,296.082377,-8886.707777
909.900637,-2220.617826,518.144159,-10418.898773
909.900957,-1628.453072,666.185348,-9806.022374
909.901277,-1554.432478,1258.350101,-9806.022374
909.901597,-444.123565,518.144159,-9806.022374
909.901918,-222.061783,518.144159,-9269.755526
909.902238,-444.123565,1480.411884,-10112.460574
909.902558,518.144159,1776.494261,-9882.631924
909.902878,2146.597232,1554.432478,-9806.022374
909.903198,2590.720797,962.267725,-10112.460574
909.903518,2368.659014,0.000000,-9576.193725
909.903838,888.247130,740.205942,-9652.803275
909.904158,888.247130,2220.617826,-10342.289223
909.904478,148.041188,1998.556043,-9499.584175
909.904798,814.226536,296.082377,-9806.022374
909.905118,2812.782580,-1998.556043,-9806.022374
909.905439,3108.864956,-2886.803174,-9576.193725
909.905759,962.267725,-2220.617826,-10265.679673
909.906079,-148.041188,-592.164754,-10035.851024
909.906399,1110.308913,1258.350101,-10495.508323
909.906719,1924.535449,1258.350101,-11031.775171
909.907039,2072.576638,1850.514855,-9882.631924
909.907359,1628.453072,1554.432478,-10955.165621
909.907679,2664.741391,1184.329507,-9806.022374
909.907999,2738.761985,888.247130,-10112.460574
909.908319,1998.556043,-518.144159,-11338.213370
909.908639,1776.494261,-1776.494261,-9959.241474
909.908960,370.102971,-2664.741391,-10112.460574
909.909280,1406.391290,-1258.350101,-10265.679673
909.909600,962.267725,74.020594,-9576.193725
909.909920,222.061783,1702.473667,-11108.384721
909.910240,1110.308913,1406.391290,-10112.460574
909.910560,296.082377,0.000000,-10725.336972
909.910880,740.205942,-1924.535449,-10189.070123
909.911200,1036.288319,-2072.576638,-8503.660028
909.911520,518.144159,-1480.411884,-9882.631924
909.911840,148.041188,-222.061783,-8733.488677
909.912160,-962.267725,666.185348,-9729.412825
909.912481,-1036.288319,-74.020594,-10265.679673
909.912801,-1628.453072,-1332.370696,-9422.974625
909.913121,-1480.411884,-2294.638420,-9499.584175
909.913441,-666.185348,-2220.617826,-9806.022374
909.913761,-1924.535449,-444.123565,-9729.412825
909.914081,-1998.556043,296.082377,-10342.289223
909.914401,-1702.473667,222.061783,-10342.289223
909.914721,-518.144159,444.123565,-9652.803275
909.915041,0.000000,148.041188,-11031.775171
909.915361,-1554.432478,296.082377,-10342.289223
909.915681,-3108.864956,0.000000,-10801.946522
909.916002,-2072.576638,0.000000,-10495.508323
909.916322,592.164754,-592.164754,-9806.022374
909.916642,-148.041188,-222.061783,-10725.336972
909.916962,-1406.391290,148.041188,-10572.117872
909.917282,-1110.308913,2072.576638,-10418.898773
909.917602,74.020594,2886.803174,-11261.603821
909.917922,296.082377,1332.370696,-9806.022374
909.918242,-370.102971,-444.123565,-10265.679673
909.918562,814.226536,-3256.906145,-9806.022374
909.918882,814.226536,-2220.617826,-9652.803275
909.919202,1110.308913,222.061783,-10495.508323
909.919523,518.144159,1776.494261,-9959.241474
909.919843,-296.082377,3034.844362,-9806.022374
909.920163,148.041188,1406.391290,-10035.851024
909.920483,1332.370696,0.000000,-8963.317327
909.920803,1480.411884,0.000000,-9959.241474
909.921123,1924.535449,0.000000,-9959.241474
909.921443,1184.329507,592.164754,-9269.755526
909.921763,1702.473667,888.247130,-9806.022374
909.922083,2442.679609,1036.288319,-9806.022374
909.922403,2590.720797,74.020594,-9499.584175
909.922723,3701.029710,148.041188,-10035.851024
909.923044,3108.864956,370.102971,-9422.974625
909.923364,4219.173869,444.123565,-9269.755526
909.923684,5477.523971,296.082377,-10418.898773
909.924004,3627.009116,888.247130,-9346.365076
909.924324,0.000000,518.144159,-10265.679673
909.924644,-1184.329507,1850.514855,-9959.241474
909.924964,888.247130,2442.679609,-10189.070123
909.925284,3034.844362,1184.329507,-11261.603821
909.925604,3478.967927,0.000000,-9806.022374
909.925924,1480.411884,-444.123565,-10572.117872
909.926244,222.061783,-592.164754,-9882.631924
909.926565,-444.123565,518.144159,-9806.022374
909.926885,666.185348,888.247130,-10878.556072
909.927205,2368.659014,962.267725,-9806.022374
909.927525,1110.308913,666.185348,-11108.384721
909.927845,-518.144159,444.123565,-10112.460574
909.928165,-740.205942,592.164754,-9499.584175
909.928485,-814.226536,1554.432478,-10878.556072
909.928805,1850.514855,1850.514855,-10035.851024
909.929125,962.267725,148.041188,-9882.631924
909.929445,-962.267725,1110.308913,-10418.898773
909.929765,-2960.823768,1332.370696,-9652.803275
909.930086,-3182.885551,666.185348,-10495.508323
909.930406,-1776.494261,370.102971,-9806.022374
909.930726,-2368.659014,148.041188,-9499.584175
909.931046,-2886.803174,0.000000,-10495.508323
909.931366,-1998.556043,-518.144159,-9729.412825
909.931686,-2960.823768,-1184.329507,-10112.460574
909.932006,-3108.864956,-1554.432478,-9806.022374
909.932326,-592.164754,-148.041188,-9422.974625
909.932646,962.267725,296.082377,-10878.556072
909.932966,2738.761985,1332.370696,-9729.412825
909.933286,592.164754,1628.453072,-8733.488677
909.933607,-1628.453072,444.123565,-10801.946522
909.933927,-1258.350101,-518.144159,-9576.193725
909.934247,-2516.700203,-2368.659014,-10495.508323
909.934567,-592.164754,-2516.700203,-9882.631924
909.934887,0.000000,-666.185348,-9039.926876
909.935207,-666.185348,1184.329507,-11108.384721
909.935527,0.000000,740.205942,-10035.851024
909.935847,-1110.308913,1258.350101,-10342.289223
909.936167,444.123565,814.226536,-12180.918418
909.936487,2146.597232,-1332.370696,-9806.022374
909.936807,4071.132681,-1406.391290,-10495.508323
909.937128,2590.720797,-1036.288319,-11108.384721
909.937448,2738.761985,0.000000,-8580.269578
909.937768,1184.329507,2368.659014,-11261.603821
909.938087,1036.288319,3256.906145,-10265.679673
909.938407,666.185348,1702.473667,-9806.022374
909.938727,1332.370696,-444.123565,-10801.946522
909.939047,3182.885551,-3256.906145,-8197.221829
909.939367,3256.906145,-4071.132681,-9882.631924
909.939687,3256.906145,-1776.494261,-9806.022374
909.940007,2664.741391,148.041188,-9576.193725
909.940327,3478.967927,2220.617826,-10572.117872
909.940647,2146.597232,1924.535449,-9959.241474
909.940967,1332.370696,1702.473667,-9422.974625
909.941287,1480.411884,518.144159,-10265.679673
909.941606,2146.597232,-1258.350101,-10035.851024
909.941926,4145.153275,-1332.370696,-10495.508323
909.942246,2590.720797,-1850.514855,-9806.022374
909.942566,-1110.308913,-222.061783,-9652.803275
909.942886,-2368.659014,0.000000,-10189.070123
909.943206,0.000000,1702.473667,-9499.584175
909.943526,1406.391290,1258.350101,-10572.117872
909.943846,2368.659014,148.041188,-10112.460574
909.944166,2368.659014,-222.061783,-10189.070123
909.944486,962.267725,-370.102971,-11031.775171
909.944806,1332.370696,-1036.288319,-9652.803275
909.945125,1036.288319,666.185348,-9959.241474
909.945445,518.144159,1628.453072,-11031.775171
909.945765,-370.102971,3330.926739,-9576.193725
909.946085,-2072.576638,518.144159,-11108.384721
909.946405,-1554.432478,-1924.535449,-9116.536426
909.946725,148.041188,-1406.391290,-10189.070123
909.947045,1332.370696,740.205942,-10725.336972
909.947365,-740.205942,2368.659014,-10189.070123
909.947685,-2664.741391,4589.276840,-10189.070123
909.948005,-2442.679609,3627.009116,-10955.165621
909.948325,-1628.453072,1110.308913,-9346.365076
909.948644,-2220.617826,-814.226536,-9882.631924
909.948964,2220.617826,-296.082377,-10265.679673
909.949284,962.267725,148.041188,-10265.679673
909.949604,-962.267725,-518.144159,-10572.117872
909.949924,-3330.926739,370.102971,-9269.755526
909.950244,-1036.288319,0.000000,-9729.412825
909.950564,-296.082377,1480.411884,-10878.556072
909.950884,740.205942,2368.659014,-10035.851024
909.951204,-222.061783,2220.617826,-10572.117872
909.951524,-1554.432478,962.267725,-9806.022374
909.951844,-1480.411884,-74.020594,-9269.755526
909.952163,296.082377,-1702.473667,-10495.508323
909.952483,370.102971,-1480.411884,-9422.974625
909.952803,-1850.514855,740.205942,-10112.460574
909.953123,-1554.432478,1924.535449,-9806.022374
909.953443,74.020594,2886.803174,-9806.022374
909.953763,2368.659014,1480.411884,-10801.946522
909.954083,2812.782580,-1332.370696,-10035.851024
909.954403,518.144159,-518.144159,-9806.022374
909.954723,-1554.432478,-222.061783,-10265.679673
909.955043,1184.329507,666.185348,-9882.631924
909.955363,4663.297435,444.123565,-10648.727422
909.955682,4811.338623,1258.350101,-10342.289223
909.956002,1776.494261,1406.391290,-10265.679673
909.956322,-666.185348,2146.597232,-10342.289223
909.956642,148.041188,740.205942,-10035.851024
909.956962,4071.132681,148.041188,-10112.460574
909.957282,4589.276840,-666.185348,-10955.165621
909.957602,1110.308913,-1184.329507,-9499.584175
909.957922,0.000000,-2220.617826,-10801.946522
909.958242,222.061783,-1554.432478,-9499.584175
909.958562,592.164754,444.123565,-10265.679673
909.958882,2442.679609,1554.432478,-9729.412825
909.959201,1850.514855,0.000000,-9422.974625
909.959521,1332.370696,-148.041188,-10572.117872
909.959841,2738.761985,-666.185348,-10265.679673
909.960161,3701.029710,-1184.329507,-9806.022374
909.960481,4145.153275,-1406.391290,-10035.851024
909.960801,1998.556043,-1036.288319,-9499.584175
909.961121,518.144159,74.020594,-10342.289223
909.961441,148.041188,740.205942,-10418.898773
909.961761,814.226536,666.185348,-11721.261119
909.962081,1332.370696,518.144159,-10878.556072
909.962401,1406.391290,-814.226536,-9959.241474
909.962720,-370.102971,-1332.370696,-9499.584175
909.963040,-962.267725,-1332.370696,-9576.193725
909.963360,-1036.288319,-1258.350101,-9806.022374
909.963680,-1776.494261,-1036.288319,-10342.289223
909.964000,-370.102971,-962.267725,-9422.974625
909.964320,444.123565,222.061783,-9576.193725
909.964640,-962.267725,1184.329507,-9652.803275
909.964960,-1110.308913,666.185348,-9882.631924
909.965280,296.082377,740.205942,-9806.022374
909.965600,518.144159,-1258.350101,-10572.117872
909.965920,-814.226536,-2220.617826,-9729.412825
909.966239,-3404.947333,-1258.350101,-10418.898773
909.966559,-4589.276840,-296.082377,-10112.460574
909.966879,-3256.906145,1480.411884,-9806.022374
909.967199,-962.267725,2368.659014,-10955.165621
909.967519,-148.041188,1850.514855,-10342.289223
909.967839,-2146.597232,148.041188,-10648.727422
909.968159,-3330.926739,-888.247130,-10572.117872
909.968479,-2812.782580,-888.247130,-9422.974625
909.968799,-1776.494261,592.164754,-10418.898773
909.969119,0.000000,444.123565,-10112.460574
909.969439,814.226536,1776.494261,-10418.898773
909.969758,1998.556043,2812.782580,-10878.556072
909.970078,3552.988522,1480.411884,-10112.460574
909.970398,6143.709319,2146.597232,-10495.508323
909.970718,5847.626942,1258.350101,-11031.775171
909.971038,2960.823768,148.041188,-9959.241474
909.971358,0.000000,444.123565,-10801.946522
909.971678,-1480.411884,1110.308913,-10342.289223
909.971998,-1776.494261,2146.597232,-9806.022374
909.972318,444.123565,1258.350101,-10342.289223
909.972638,3849.070898,518.144159,-9729.412825
909.972958,2886.803174,2368.659014,-10418.898773
909.973277,1998.556043,2664.741391,-10725.336972
909.973597,2220.617826,1776.494261,-9269.755526
909.973917,3701.029710,1406.391290,-10648.727422
909.974237,3034.844362,814.226536,-9652.803275
909.974557,1554.432478,1554.432478,-9039.926876
909.974877,888.247130,814.226536,-10112.460574
909.975197,3627.009116,666.185348,-9193.145976
909.975517,5255.462188,888.247130,-9882.631924
909.975837,5773.606348,1628.453072,-10648.727422
909.976157,2738.761985,740.205942,-8580.269578
909.976477,74.020594,518.144159,-10342.289223
909.976797,666.185348,1184.329507,-9269.755526
909.977116,-740.205942,296.082377,-9806.022374
909.977436,222.061783,74.020594,-10265.679673
909.977756,1036.288319,-518.144159,-9576.193725
909.978076,444.123565,-1554.432478,-10495.508323
909.978396,518.144159,0.000000,-9729.412825
909.978716,370.102971,2368.659014,-10265.679673
909.979036,1110.308913,2442.679609,-11338.213370
909.979356,1924.535449,1776.494261,-10265.679673
909.979676,0.000000,1036.288319,-10878.556072
909.979996,-2220.617826,222.061783,-10878.556072
909.980316,-2812.782580,-518.144159,-9576.193725
909.980635,-2146.597232,74.020594,-11108.384721
909.980955,444.123565,0.000000,-10342.289223
909.981275,-148.041188,1110.308913,-9959.241474
909.981595,-592.164754,1258.350101,-11184.994271
909.981915,-1332.370696,1480.411884,-10495.508323
909.982235,-2368.659014,1924.535449,-10495.508323
909.982555,-2368.659014,740.205942,-10495.508323
909.982875,-2590.720797,0.000000,-9576.193725
909.983195,-2960.823768,-666.185348,-10648.727422
909.983515,-2294.638420,-1924.535449,-8886.707777
909.983835,-1332.370696,-1850.514855,-9652.803275
909.984154,444.123565,-1628.453072,-9959.241474
909.984474,-370.102971,222.061783,-9422.974625
909.984794,-1998.556043,888.247130,-9882.631924
909.985114,-1776.494261,1480.411884,-9422.974625
909.985434,-1332.370696,74.020594,-9116.536426
909.985754,-370.102971,-2294.638420,-9806.022374
909.986074,1332.370696,-4811.338623,-8810.098227
909.986394,1776.494261,-5033.400406,-9729.412825
909.986714,2368.659014,-3108.864956,-9576.193725
909.987034,666.185348,370.102971,-9346.365076
909.987354,518.144159,2664.741391,-11261.603821
909.987673,1258.350101,4367.215058,-10495.508323
909.987993,1406.391290,2886.803174,-10572.117872
909.988313,2146.597232,1332.370696,-11108.384721
909.988633,2590.720797,-1924.535449,-9882.631924
909.988953,2368.659014,-3034.844362,-10572.117872
909.989273,2664.741391,-2146.597232,-10801.946522
909.989593,1776.494261,444.123565,-10189.070123
909.989913,1184.329507,2516.700203,-10878.556072
909.990233,1776.494261,1998.556043,-10112.460574
909.990553,2516.700203,1776.494261,-10955.165621
909.990873,2960.823768,444.123565,-11491.432470
909.991192,2368.659014,-592.164754,-9806.022374
909.991512,444.123565,-814.226536,-11031.775171
909.991832,2368.659014,-296.082377,-10648.727422
909.992152,3256.906145,962.267725,-10035.851024
909.992472,3108.864956,2072.576638,-11031.775171
909.992792,2516.700203,666.185348,-10265.679673
909.993112,1998.556043,814.226536,-9652.803275
909.993432,888.247130,148.041188,-10112.460574
909.993752,740.205942,-1332.370696,-8810.098227
909.994072,1406.391290,-518.144159,-9806.022374
909.994392,666.185348,-2590.720797,-9806.022374
909.994711,962.267725,-2294.638420,-9116.536426
909.995031,0.000000,0.000000,-9806.022374
909.995351,74.020594,2516.700203,-9499.584175
909.995671,518.144159,2738.761985,-9882.631924
909.995991,3108.864956,2072.576638,-10265.679673
909.996311,1258.350101,-444.123565,-9039.926876
909.996631,-2294.638420,-2960.823768,-9729.412825
909.996951,-2516.700203,-2886.803174,-8733.488677
909.997271,-2738.761985,-1702.473667,-9422.974625
909.997591,74.020594,148.041188,-10418.898773
909.997911,1554.432478,2072.576638,-9806.022374
909.998230,-1628.453072,2886.803174,-10265.679673
909.998550,-3627.009116,2146.597232,-10189.070123
909.998870,-3478.967927,1184.329507,-9959.241474
909.999190,-2442.679609,1480.411884,-10648.727422
909.999510,-370.102971,592.164754,-10112.460574
909.999830,-518.144159,0.000000,-9959.241474
910.000150,-1702.473667,296.082377,-9652.803275
910.000470,-1406.391290,148.041188,-9806.022374
910.000790,-444.123565,1850.514855,-10725.336972
910.001110,1702.473667,3034.844362,-10955.165621
910.001430,592.164754,2960.823768,-10572.117872
910.001749,-1776.494261,1628.453072,-10725.336972
910.002069,-1924.535449,444.123565,-9806.022374
910.002389,-1184.329507,-222.061783,-9882.631924
910.002709,814.226536,592.164754,-10648.727422
910.003029,1776.494261,2146.597232,-10725.336972
910.003349,2146.597232,1702.473667,-10878.556072
910.003669,3182.885551,666.185348,-9806.022374
910.003989,2664.741391,-296.082377,-10035.851024
910.004309,2368.659014,296.082377,-10495.508323
910.004629,1776.494261,1036.288319,-9806.022374
910.004949,148.041188,962.267725,-10035.851024
910.005268,296.082377,1998.556043,-9422.974625
910.005588,296.082377,2368.659014,-9729.412825
910.005908,592.164754,1998.556043,-10725.336972
910.006228,2368.659014,0.000000,-9806.022374
910.006548,3552.988522,-1480.411884,-9269.755526
910.006868,3108.864956,-740.205942,-9499.584175
910.007188,2442.679609,962.267725,-8886.707777
910.007508,2886.803174,1924.535449,-9499.584175
910.007828,4071.132681,2294.638420,-9652.803275
910.008148,4367.215058,888.247130,-9652.803275
910.008468,2590.720797,-296.082377,-9882.631924
910.008787,444.123565,-2516.700203,-8810.098227
910.009107,0.000000,-2146.597232,-9346.365076
910.009427,222.061783,-1036.288319,-10035.851024
910.009747,-1036.288319,148.041188,-10112.460574
910.010067,-1184.329507,296.082377,-9959.241474
910.010387,-592.164754,1406.391290,-10955.165621
910.010707,296.082377,1184.329507,-10801.946522
910.011027,2516.700203,296.082377,-11338.213370
910.011347,2220.617826,888.247130,-10572.117872
910.011667,1554.432478,74.020594,-11568.042020
910.011987,1036.288319,888.247130,-11108.384721
910.012306,0.000000,1332.370696,-11414.822920
910.012626,-444.123565,0.000000,-11261.603821
910.012946,-444.123565,-296.082377,-11721.261119
910.013266,-2516.700203,1110.308913,-11338.213370
910.013586,-2368.659014,1036.288319,-11031.775171
910.013906,-1702.473667,-1628.453072,-9346.365076
910.014226,-1702.473667,-1998.556043,-10495.508323
910.014546,-444.123565,-3108.864956,-10265.679673
910.014866,-888.247130,-2886.803174,-9576.193725
910.015186,-1628.453072,-1628.453072,-9882.631924
910.015506,-2294.638420,0.000000,-8886.707777
910.015825,-962.267725,2072.576638,-9576.193725
910.016145,888.247130,1480.411884,-10189.070123
910.016465,444.123565,-666.185348,-9039.926876
910.016785,-1406.391290,-2738.761985,-9959.241474
910.017105,-2072.576638,-3404.947333,-8350.440928
910.017425,-2368.659014,-2368.659014,-9039.926876
910.017745,-1110.308913,-1480.411884,-9422.974625
910.018065,-1332.370696,-1850.514855,-9269.755526
910.018385,-1406.391290,-666.185348,-9422.974625
910.018705,592.164754,370.102971,-10189.070123
910.019025,74.020594,1258.350101,-9346.365076
910.019344,296.082377,2220.617826,-11184.994271
910.019664,1702.473667,962.267725,-10495.508323
910.019984,2146.597232,-1406.391290,-10572.117872
910.020304,2368.659014,-3182.885551,-10342.289223
910.020624,148.041188,-1998.556043,-10112.460574
910.020944,0.000000,592.164754,-10725.336972
910.021264,1480.411884,3330.926739,-11644.651570
910.021584,3256.906145,3923.091493,-10878.556072
910.021904,1406.391290,1924.535449,-11491.432470
910.022224,962.267725,-148.041188,-10801.946522
910.022544,518.144159,-1332.370696,-9959.241474
910.022863,1924.535449,-1332.370696,-10801.946522
910.023183,3404.947333,592.164754,-9806.022374
910.023503,3997.112087,1406.391290,-10725.336972
910.023823,4145.153275,1332.370696,-10035.851024
910.024143,3775.050304,3997.112087,-9576.193725
910.024463,4293.194464,4589.276840,-11414.822920
910.024783,4145.153275,3108.864956,-9959.241474
910.025103,592.164754,-148.041188,-9576.193725
910.025423,-148.041188,-2294.638420,-9116.536426
910.025743,888.247130,-2294.638420,-8120.612279
910.026063,2960.823768,0.000000,-10265.679673
910.026382,2886.803174,2220.617826,-9959.241474
910.026702,0.000000,3775.050304,-9039.926876
910.027022,-666.185348,3256.906145,-9959.241474
910.027342,962.267725,962.267725,-8197.221829
910.027662,1406.391290,-592.164754,-9882.631924
910.027982,888.247130,-2368.659014,-9652.803275
910.028302,1036.288319,-666.185348,-9346.365076
910.028622,1332.370696,1332.370696,-10495.508323
910.028942,592.164754,1628.453072,-9959.241474
910.029262,-666.185348,2146.597232,-9729.412825
910.029582,-1554.432478,1628.453072,-10801.946522
910.029901,296.082377,444.123565,-9806.022374
910.030221,518.144159,888.247130,-10878.556072
910.030541,-1332.370696,1258.350101,-10725.336972
910.030861,-444.123565,1554.432478,-10572.117872
910.031181,-1480.411884,148.041188,-11108.384721
910.031501,-2738.761985,-1628.453072,-9882.631924
910.031821,-1776.494261,-814.226536,-10265.679673
910.032141,-2516.700203,814.226536,-10878.556072
910.032461,-2220.617826,2294.638420,-10265.679673
910.032781,222.061783,3182.885551,-10801.946522
910.033101,1998.556043,2368.659014,-10955.165621
910.033420,-2960.823768,0.000000,-9729.412825
910.033740,-4441.235652,-3701.029710,-10189.070123
910.034060,-2294.638420,-1924.535449,-9039.926876
910.034380,-370.102971,-444.123565,-10572.117872
910.034700,2220.617826,1332.370696,-10342.289223
910.035020,-1406.391290,1776.494261,-8963.317327
910.035340,-2072.576638,814.226536,-10648.727422
910.035660,-296.082377,1036.288319,-9346.365076
910.035980,74.020594,1184.329507,-9652.803275
910.036300,-1184.329507,-1332.370696,-9959.241474
910.036620,-444.123565,-2886.803174,-8656.879127
910.036939,-370.102971,-3552.988522,-9806.022374
910.037259,1702.473667,-2590.720797,-9806.022374
910.037579,2072.576638,-740.205942,-9729.412825
910.037899,1850.514855,1480.411884,-11414.822920
910.038219,3108.864956,2516.700203,-10189.070123
910.038539,3849.070898,1406.391290,-10725.336972
910.038859,3108.864956,1554.432478,-10878.556072
910.039179,888.247130,518.144159,-10035.851024
910.039499,2368.659014,0.000000,-11108.384721
910.039819,2368.659014,-370.102971,-10801.946522
910.040139,2146.597232,-740.205942,-9652.803275
910.040459,2664.741391,-740.205942,-11414.822920
910.040779,2072.576638,-1036.288319,-9116.536426
910.041099,2072.576638,814.226536,-11031.775171
910.041419,3478.967927,2368.659014,-10495.508323
910.041739,2590.720797,1332.370696,-10112.460574
910.042059,2220.617826,-592.164754,-10495.508323
910.042379,1258.350101,-518.144159,-8810.098227
910.042699,1184.329507,-592.164754,-9882.631924
910.043019,1406.391290,-1110.308913,-9729.412825
910.043339,3108.864956,-296.082377,-9652.803275
910.043659,1776.494261,222.061783,-10495.508323
910.043979,0.000000,-1332.370696,-9039.926876
910.044299,-518.144159,296.082377,-9346.365076
910.044619,-1628.453072,592.164754,-10112.460574
910.044939,1110.308913,0.000000,-9576.193725
910.045259,370.102971,444.123565,-9806.022374
910.045580,296.082377,814.226536,-10189.070123
910.045900,666.185348,740.205942,-11184.994271
910.046220,1406.391290,222.061783,-10495.508323
910.046540,296.082377,-1702.473667,-9959.241474
910.046860,-1406.391290,222.061783,-9269.755526
910.047180,-1110.308913,1850.514855,-10955.165621
910.047500,74.020594,1406.391290,-11338.213370
910.047820,74.020594,1776.494261,-10572.117872
910.048140,-2294.638420,0.000000,-10495.508323
910.048460,-2960.823768,-1258.350101,-9576.193725
910.048780,-2368.659014,-1924.535449,-10418.898773
910.049100,-740.205942,0.000000,-10265.679673
910.049420,-1184.329507,2516.700203,-10418.898773
910.049740,-518.144159,3849.070898,-11568.042020
910.050060,-962.267725,3034.844362,-9576.193725
910.050380,-1258.350101,592.164754,-10189.070123
910.050700,-666.185348,814.226536,-10418.898773
910.051020,-888.247130,-444.123565,-9806.022374
910.051340,296.082377,-222.061783,-10418.898773
910.051660,518.144159,444.123565,-9882.631924
910.051981,-740.205942,-888.247130,-9806.022374
910.052301,-1850.514855,-518.144159,-10189.070123
910.052621,-1924.535449,1184.329507,-8733.488677
910.052941,1110.308913,1850.514855,-10342.289223
910.053261,3034.844362,518.144159,-9959.241474
910.053581,1776.494261,296.082377,-9499.584175
910.053901,0.000000,1776.494261,-10572.117872
910.054221,1554.432478,1406.391290,-9499.584175
910.054541,2664.741391,0.000000,-9882.631924
910.054861,2960.823768,-666.185348,-10112.460574
910.055181,1110.308913,-666.185348,-9039.926876
910.055501,-814.226536,296.082377,-10112.460574
910.055821,370.102971,-148.041188,-9422.974625
910.056141,2146.597232,296.082377,-10342.289223
910.056461,2516.700203,1998.556043,-10955.165621
910.056781,3627.009116,740.205942,-9729.412825
910.057101,3256.906145,1184.329507,-10648.727422
910.057421,1554.432478,-592.164754,-10035.851024
910.057741,1406.391290,-1184.329507,-9269.755526
910.058061,2812.782580,0.000000,-10342.289223
910.058382,3552.988522,-888.247130,-10189.070123
910.058702,3849.070898,1850.514855,-9652.803275
910.059022,1702.473667,-296.082377,-11108.384721
910.059342,592.164754,1332.370696,-10035.851024
910.059662,222.061783,2072.576638,-10495.508323
910.059982,2368.659014,1998.556043,-11491.432470
910.060302,1628.453072,1184.329507,-8503.660028
910.060622,370.102971,370.102971,-11491.432470
910.060942,-1258.350101,-296.082377,-9039.926876
910.061262,296.082377,0.000000,-10035.851024
910.061582,592.164754,-1332.370696,-9116.536426
910.061902,1924.535449,-2442.679609,-8886.707777
910.062222,2812.782580,-1406.391290,-9729.412825
910.062542,1554.432478,-370.102971,-10342.289223
910.062862,-740.205942,2220.617826,-9729.412825
910.063182,-2738.761985,3034.844362,-10878.556072
910.063502,-2368.659014,740.205942,-9499.584175
910.063822,-2664.741391,-814.226536,-9729.412825
910.064142,-740.205942,-1776.494261,-10189.070123
910.064462,592.164754,-1554.432478,-9806.022374
910.064783,0.000000,-1628.453072,-10418.898773
910.065103,-666.185348,-1998.556043,-10035.851024
910.065423,-2664.741391,-962.267725,-9806.022374
910.065743,-4219.173869,1406.391290,-10801.946522
910.066063,-2812.782580,1924.535449,-9499.584175
910.066383,-1036.288319,2442.679609,-10725.336972
910.066703,74.020594,-814.226536,-10648.727422
910.067023,740.205942,-1110.308913,-9806.022374
910.067343,74.020594,-2294.638420,-10342.289223
910.067663,-518.144159,-2590.720797,-9959.241474
910.067983,-666.185348,370.102971,-9959.241474
910.068303,-740.205942,1850.514855,-11491.432470
910.068623,0.000000,3701.029710,-10342.289223
910.068943,-1998.556043,2294.638420,-10418.898773
910.069263,-1924.535449,1628.453072,-10265.679673
910.069583,-222.061783,-592.164754,-9576.193725
910.069903,1776.494261,-1406.391290,-10648.727422
910.070223,2220.617826,-1480.411884,-9116.536426
910.070543,888.247130,-1036.288319,-10112.460574
910.070863,222.061783,888.247130,-9806.022374
910.071184,0.000000,1850.514855,-9422.974625
910.071504,2072.576638,2738.761985,-11031.775171
910.071824,3108.864956,1998.556043,-9806.022374
910.072144,4071.132681,814.226536,-10035.851024
910.072464,1998.556043,592.164754,-10495.508323
910.072784,1554.432478,-1110.308913,-9499.584175
910.073104,3034.844362,-148.041188,-10495.508323
910.073424,1998.556043,-1924.535449,-9039.926876
910.073744,3182.885551,1258.350101,-10495.508323
910.074064,1406.391290,2368.659014,-10112.460574
910.074384,2368.659014,2146.597232,-10189.070123
910.074704,2812.782580,2738.761985,-9806.022374
910.075024,3478.967927,1184.329507,-10878.556072
910.075344,1184.329507,-296.082377,-9346.365076
910.075664,1628.453072,-1998.556043,-10572.117872
910.075984,1628.453072,74.020594,-9806.022374
910.076304,2664.741391,1184.329507,-9729.412825
910.076624,2886.803174,1998.556043,-10189.070123
910.076944,0.000000,666.185348,-9806.022374
910.077264,518.144159,222.061783,-9193.145976
910.077585,2146.597232,592.164754,-10265.679673
910.077905,3034.844362,1110.308913,-9882.631924
910.078225,1480.411884,1184.329507,-10418.898773
910.078545,-1036.288319,888.247130,-10189.070123
910.078865,-1110.308913,0.000000,-9116.536426
910.079185,1110.308913,2072.576638,-10725.336972
910.079505,814.226536,2072.576638,-9959.241474
910.079825,-1332.370696,1406.391290,-10495.508323
910.080145,-1850.514855,740.205942,-11261.603821
910.080465,-1258.350101,888.247130,-9652.803275
910.080785,-1406.391290,1406.391290,-10648.727422
910.081105,-1110.308913,-148.041188,-9576.193725
910.081425,-1332.370696,-666.185348,-9729.412825
910.081745,-2368.659014,518.144159,-10648.727422
910.082065,-3330.926739,222.061783,-9499.584175
910.082385,-2664.741391,-2294.638420,-9652.803275
910.082705,-444.123565,-1480.411884,-9576.193725
910.083025,-888.247130,296.082377,-8580.269578
910.083345,888.247130,148.041188,-10955.165621
910.083665,2072.576638,296.082377,-10189.070123
910.083986,-888.247130,666.185348,-9959.241474
910.084306,-3404.947333,1110.308913,-10112.460574
910.084626,-1702.473667,-1110.308913,-9422.974625
910.084946,-444.123565,-518.144159,-10495.508323
910.085266,1036.288319,-888.247130,-10112.460574
910.085586,-370.102971,0.000000,-10418.898773
910.085906,-2812.782580,-148.041188,-9806.022374
910.086226,-1258.350101,-1110.308913,-9729.412825
910.086546,148.041188,0.000000,-10112.460574
910.086866,1702.473667,0.000000,-10725.336972
910.087186,592.164754,-666.185348,-10112.460574
910.087506,-592.164754,-222.061783,-10418.898773
910.087826,0.000000,-1258.350101,-10495.508323
910.088146,2516.700203,-370.102971,-9959.241474
910.088466,3108.864956,0.000000,-10801.946522
910.088786,2442.679609,148.041188,-9729.412825
910.089106,3182.885551,0.000000,-10801.946522
910.089426,4663.297435,148.041188,-10495.508323
910.089746,3182.885551,-444.123565,-10112.460574
910.090066,148.041188,0.000000,-10112.460574
910.090387,74.020594,-962.267725,-9959.241474
910.090707,962.267725,-962.267725,-10495.508323
910.091027,2590.720797,-1258.350101,-10572.117872
910.091347,2294.638420,74.020594,-9422.974625
910.091667,2516.700203,296.082377,-10035.851024
910.091987,4589.276840,-962.267725,-10112.460574
910.092307,3997.112087,-592.164754,-9729.412825
910.092627,1702.473667,-1850.514855,-10418.898773
910.092947,0.000000,-666.185348,-8427.050478
910.093267,-592.164754,0.000000,-9422.974625
910.093587,1406.391290,1406.391290,-11491.432470
910.093907,962.267725,814.226536,-9269.755526
910.094227,1184.329507,814.226536,-10342.289223
910.094547,296.082377,1258.350101,-9576.193725
910.094867,2664.741391,1332.370696,-10189.070123
910.095187,2146.597232,666.185348,-10265.679673
910.095507,1110.308913,148.041188,-9882.631924
910.095827,-2072.576638,74.020594,-9346.365076
910.096147,-2886.803174,444.123565,-10265.679673
910.096467,-518.144159,1036.288319,-9116.536426
910.096788,148.041188,1332.370696,-11031.775171
910.097108,592.164754,2664.741391,-10112.460574
910.097428,296.082377,2960.823768,-10112.460574
910.097748,1332.370696,1554.432478,-10878.556072
910.098068,666.185348,-962.267725,-9806.022374
910.098388,-962.267725,-1184.329507,-10572.117872
910.098708,-3182.885551,-888.247130,-10418.898773
910.099028,-4885.359217,1702.473667,-9576.193725
910.099348,-3404.947333,2368.659014,-10725.336972
910.099668,-962.267725,1850.514855,-10648.727422
910.099988,-222.061783,1480.411884,-9806.022374
910.100308,814.226536,370.102971,-11568.042020
910.100628,-222.061783,740.205942,-9882.631924
910.100948,-1332.370696,1554.432478,-11261.603821
910.101268,-962.267725,1776.494261,-10418.898773
910.101588,-444.123565,592.164754,-9652.803275
910.101908,74.020594,0.000000,-10495.508323
910.102228,-1036.288319,296.082377,-9882.631924
910.102548,-1850.514855,1184.329507,-10112.460574
910.102868,-148.041188,1998.556043,-10725.336972
910.103189,2368.659014,1036.288319,-9729.412825
910.103509,2960.823768,74.020594,-10189.070123
910.103829,2442.679609,-2220.617826,-9116.536426
910.104149,74.020594,-962.267725,-9422.974625
910.104469,222.061783,740.205942,-10495.508323
910.104789,1184.329507,2368.659014,-9652.803275
910.105109,2812.782580,2812.782580,-9959.241474
910.105429,3182.885551,444.123565,-9959.241474
910.105749,2220.617826,-888.247130,-9576.193725
910.106069,0.000000,222.061783,-11108.384721
910.106389,1850.514855,0.000000,-10035.851024
910.106709,2664.741391,666.185348,-9806.022374
910.107029,2590.720797,370.102971,-10725.336972
910.107349,1184.329507,-296.082377,-9422.974625
910.107669,370.102971,-148.041188,-10495.508323
910.107989,1850.514855,0.000000,-9959.241474
910.108309,4219.173869,1406.391290,-9729.412825
910.108629,5329.482782,1332.370696,-10955.165621
910.108949,4367.215058,962.267725,-10342.289223
910.109269,1776.494261,0.000000,-10265.679673
910.109590,296.082377,-666.185348,-10265.679673
910.109910,370.102971,-1406.391290,-9499.584175
910.110230,74.020594,74.020594,-10878.556072
910.110550,-962.267725,592.164754,-9882.631924
910.110870,0.000000,1184.329507,-9806.022374
910.111190,518.144159,222.061783,-11338.213370
910.111510,1258.350101,-1110.308913,-8197.221829
910.111830,-518.144159,-1332.370696,-10035.851024
910.112150,-1332.370696,-2146.597232,-9959.241474
910.112470,-962.267725,-1184.329507,-9346.365076
910.112790,-592.164754,-2368.659014,-9499.584175
910.113110,592.164754,-1776.494261,-9039.926876
910.113430,1184.329507,-740.205942,-9882.631924
910.113750,-518.144159,814.226536,-11031.775171
910.114070,1998.556043,1850.514855,-10035.851024
910.114390,1258.350101,1258.350101,-10648.727422
910.114710,148.041188,444.123565,-10035.851024
910.115030,-2146.597232,-962.267725,-9652.803275
910.115350,-4145.153275,-1776.494261,-10725.336972
910.115670,-3034.844362,-2738.761985,-9806.022374
910.115991,-1850.514855,-1850.514855,-9806.022374
910.116311,-1332.370696,0.000000,-10418.898773
910.116631,-444.123565,1776.494261,-10418.898773
910.116951,-888.247130,2368.659014,-11414.822920
910.117271,-296.082377,2442.679609,-10112.460574
910.117591,-1258.350101,888.247130,-10495.508323
910.117911,-1628.453072,-444.123565,-10418.898773
910.118231,-1628.453072,-888.247130,-9652.803275
910.118551,74.020594,-222.061783,-9729.412825
910.118871,1036.288319,666.185348,-10418.898773
910.119191,0.000000,444.123565,-9806.022374
910.119511,-1406.391290,222.061783,-10495.508323
910.119831,-1184.329507,444.123565,-9346.365076
910.120151,0.000000,1184.329507,-9959.241474
910.120471,1036.288319,2220.617826,-10342.289223
910.120791,2442.679609,2738.761985,-10648.727422
910.121111,1480.411884,1998.556043,-10418.898773
910.121431,2886.803174,296.082377,-10112.460574
910.121751,4293.194464,-1036.288319,-8886.707777
910.122071,4589.276840,0.000000,-10572.117872
910.122392,4145.153275,1110.308913,-9499.584175
910.122712,666.185348,1998.556043,-10342.289223
910.123032,-1258.350101,2960.823768,-9652.803275
910.123352,1110.308913,1554.432478,-9269.755526
910.123672,2368.659014,-1258.350101,-9729.412825
910.123992,3182.885551,-2738.761985,-9422.974625
910.124312,1036.288319,-3182.885551,-9116.536426
910.124632,1554.432478,-1258.350101,-10035.851024
910.124952,3701.029710,1110.308913,-9729.412825
910.125272,4071.132681,3404.947333,-10572.117872
910.125592,2960.823768,2590.720797,-10878.556072
910.125912,814.226536,1110.308913,-9806.022374
910.126232,-518.144159,-888.247130,-10342.289223
910.126552,74.020594,-370.102971,-9346.365076
910.126872,1258.350101,-1184.329507,-10035.851024
910.127192,3256.906145,-1258.350101,-11951.089769
910.127512,2664.741391,-2368.659014,-10342.289223
910.127832,-148.041188,-1924.535449,-10572.117872
910.128152,-962.267725,444.123565,-10189.070123
910.128472,-370.102971,2368.659014,-10189.070123
910.128793,888.247130,4737.318029,-11338.213370
910.129113,2072.576638,4145.153275,-10955.165621
910.129433,1332.370696,1184.329507,-10495.508323
910.129753,1036.288319,74.020594,-10648.727422
910.130073,370.102971,-2960.823768,-9116.536426
910.130393,-1702.473667,-1702.473667,-9806.022374
910.130713,-1998.556043,-1332.370696,-10189.070123
910.131033,-2886.803174,-148.041188,-8886.707777
910.131353,-3478.967927,1258.350101,-9806.022374
910.131673,-1998.556043,814.226536,-9422.974625
910.131993,1036.288319,-222.061783,-10495.508323
910.132313,888.247130,-962.267725,-10572.117872
910.132633,-1184.329507,0.000000,-9499.584175
910.132953,-3627.009116,1332.370696,-10112.460574
910.133273,-1036.288319,1036.288319,-10189.070123
910.133593,1036.288319,962.267725,-9882.631924
910.133913,0.000000,1110.308913,-10801.946522
910.134233,-1406.391290,740.205942,-9729.412825
910.134553,-2368.659014,0.000000,-10725.336972
910.134873,-1258.350101,-666.185348,-10265.679673
910.135194,-962.267725,222.061783,-9806.022374
910.135514,-814.226536,-592.164754,-10418.898773
910.135834,-518.144159,-148.041188,-10878.556072
910.136154,-1406.391290,-962.267725,-9882.631924
910.136474,-962.267725,148.041188,-9806.022374
910.136794,-222.061783,962.267725,-9576.193725
910.137114,888.247130,888.247130,-10725.336972
910.137434,1628.453072,0.000000,-9959.241474
910.137754,-518.144159,740.205942,-9346.365076
910.138074,518.144159,1406.391290,-10725.336972
910.138394,3034.844362,1406.391290,-9576.193725
910.138714,2294.638420,1036.288319,-10418.898773
910.139034,1924.535449,-1628.453072,-9576.193725
910.139354,1998.556043,-2072.576638,-8733.488677
910.139674,888.247130,-2812.782580,-9806.022374
910.139994,1406.391290,-1110.308913,-9193.145976
910.140314,1258.350101,2368.659014,-9882.631924
910.140634,3478.967927,1554.432478,-10878.556072
910.140954,4737.318029,1480.411884,-9959.241474
910.141274,2072.576638,296.082377,-10572.117872
910.141594,666.185348,148.041188,-9269.755526
910.141914,1258.350101,740.205942,-9499.584175
910.142234,3627.009116,814.226536,-11874.480219
910.142554,3627.009116,296.082377,-10801.946522
910.142874,-592.164754,222.061783,-10418.898773
910.143194,-1480.411884,0.000000,-10878.556072
910.143514,0.000000,740.205942,-9806.022374
910.143834,1480.411884,3256.906145,-11721.261119
910.144154,2590.720797,2738.761985,-11031.775171
910.144474,2442.679609,1110.308913,-10342.289223
910.144794,1480.411884,-814.226536,-10572.117872
910.145114,2442.679609,-592.164754,-9882.631924
910.145434,2590.720797,74.020594,-10418.898773
910.145754,3775.050304,1258.350101,-10572.117872
910.146074,2368.659014,1628.453072,-9499.584175
910.146394,814.226536,1924.535449,-10572.117872
910.146714,-1554.432478,444.123565,-9039.926876
910.147034,-888.247130,814.226536,-9652.803275
910.147354,518.144159,0.000000,-10342.289223
910.147674,1184.329507,-1332.370696,-8886.707777
910.147994,-1554.432478,-740.205942,-9499.584175
910.148314,-3182.885551,-222.061783,-9422.974625
910.148635,-2442.679609,962.267725,-8427.050478
910.148955,-2368.659014,666.185348,-10495.508323
910.149275,222.061783,148.041188,-9422.974625
910.149595,-518.144159,-370.102971,-9346.365076
910.149915,-444.123565,0.000000,-10112.460574
910.150235,74.020594,740.205942,-8886.707777
910.150555,-148.041188,1036.288319,-10265.679673
910.150875,-222.061783,370.102971,-10801.946522
910.151195,-1702.473667,370.102971,-9652.803275
910.151515,-3775.050304,-962.267725,-11184.994271
910.151835,-3330.926739,-444.123565,-9576.193725
910.152155,-518.144159,0.000000,-10495.508323
910.152475,888.247130,0.000000,-11721.261119
910.152795,1184.329507,1332.370696,-9959.241474
910.153115,-2072.576638,1998.556043,-11874.480219
910.153435,-3182.885551,1850.514855,-10418.898773
910.153755,-1110.308913,1554.432478,-10495.508323
910.154075,1110.308913,0.000000,-11338.213370
910.154395,3256.906145,-518.144159,-11108.384721
910.154715,2146.597232,-222.061783,-10955.165621
910.155035,1628.453072,1406.391290,-10418.898773
910.155355,2146.597232,1406.391290,-9729.412825
910.155675,1554.432478,2664.741391,-11414.822920
910.155995,222.061783,740.205942,-9882.631924
910.156315,-1258.350101,888.247130,-9346.365076
910.156635,-962.267725,0.000000,-9882.631924
910.156955,0.000000,-518.144159,-8427.050478
910.157275,296.082377,-1184.329507,-9576.193725
910.157595,518.144159,-1702.473667,-8963.317327
910.157915,2220.617826,-1924.535449,-8656.879127
910.158235,4219.173869,-518.144159,-9729.412825
910.158555,6365.771101,1258.350101,-8963.317327
910.158875,4441.235652,2516.700203,-9959.241474
910.159195,3997.112087,2738.761985,-10342.289223
910.159515,3478.967927,1184.329507,-9499.584175
910.159835,1702.473667,-814.226536,-9882.631924
910.160155,-148.041188,-2146.597232,-9806.022374
910.160475,296.082377,-2072.576638,-9806.022374
910.160795,1258.350101,-518.144159,-10189.070123
910.161115,1480.411884,1850.514855,-10112.460574
910.161435,1702.473667,1924.535449,-10801.946522
910.161755,814.226536,370.102971,-11338.213370
910.162075,0.000000,-1332.370696,-9959.241474
910.162395,-888.247130,-888.247130,-10801.946522
910.162715,1184.329507,-888.247130,-10648.727422
910.163035,1184.329507,592.164754,-10495.508323
910.163355,-148.041188,1332.370696,-11338.213370
910.163675,222.061783,1406.391290,-10342.289223
910.163995,1110.308913,1628.453072,-10648.727422
910.164315,2368.659014,814.226536,-11721.261119
910.164635,1332.370696,296.082377,-10189.070123
910.164955,-444.123565,444.123565,-10572.117872
910.165275,-1480.411884,0.000000,-9806.022374
910.165595,-1184.329507,-518.144159,-8733.488677
910.165915,-740.205942,-1480.411884,-10112.460574
910.166235,-2516.700203,-1554.432478,-9269.755526
910.166555,-2072.576638,-1036.288319,-10035.851024
910.166875,-1332.370696,0.000000,-9422.974625
910.167195,-296.082377,-1258.350101,-9193.145976
910.167515,-1258.350101,-592.164754,-10265.679673
910.167835,-1628.453072,-1406.391290,-9346.365076
910.168155,-1258.350101,0.000000,-9806.022374
910.168475,-814.226536,2072.576638,-9882.631924
910.168795,-1110.308913,296.082377,-9039.926876
910.169115,-2146.597232,-814.226536,-10189.070123
910.169435,518.144159,-2220.617826,-10112.460574
910.169755,2812.782580,-1332.370696,-9806.022374
910.170075,2220.617826,888.247130,-11338.213370
910.170395,-370.102971,1554.432478,-10112.460574
910.170715,-1924.535449,3034.844362,-10418.898773
910.171035,-1184.329507,2812.782580,-11338.213370
910.171355,444.123565,2516.700203,-10035.851024
910.171675,-370.102971,740.205942,-10955.165621
910.171995,-370.102971,-444.123565,-9729.412825
910.172315,1924.535449,-888.247130,-10265.679673
910.172635,3923.091493,-148.041188,-10801.946522
910.172956,2738.761985,740.205942,-9882.631924
910.173276,296.082377,1850.514855,-10035.851024
910.173596,0.000000,3330.926739,-9806.022374
910.173916,2886.803174,3330.926739,-10342.289223
910.174236,4959.379811,3478.967927,-10725.336972
910.174556,5403.503377,740.205942,-10112.460574
910.174876,4589.276840,-296.082377,-9882.631924
910.175196,3997.112087,-1554.432478,-10342.289223
910.175516,1850.514855,-444.123565,-9116.536426
910.175836,740.205942,1850.514855,-10189.070123
910.176156,518.144159,2146.597232,-9806.022374
910.176476,1184.329507,962.267725,-9729.412825
910.176796,518.144159,-740.205942,-10265.679673
910.177116,592.164754,-1850.514855,-8503.660028
910.177436,1184.329507,-888.247130,-9499.584175
910.177756,3849.070898,-592.164754,-10495.508323
910.178076,4885.359217,0.000000,-9806.022374
910.178396,2590.720797,740.205942,-10878.556072
910.178716,-740.205942,1406.391290,-9576.193725
910.179036,-1850.514855,1702.473667,-9806.022374
910.179356,-666.185348,592.164754,-10342.289223
910.179676,592.164754,-962.267725,-9116.536426
910.179996,-1406.391290,-1258.350101,-9806.022374
910.180316,-518.144159,-1998.556043,-9806.022374
910.180636,814.226536,-296.082377,-9652.803275
910.180956,-444.123565,1110.308913,-11338.213370
910.181276,-888.247130,1998.556043,-10189.070123
910.181596,-2812.782580,2886.803174,-10035.851024
910.181916,-1332.370696,2664.741391,-10801.946522
910.182236,-370.102971,1406.391290,-9576.193725
910.182556,-1258.350101,0.000000,-10878.556072
910.182876,-1480.411884,-1110.308913,-10035.851024
910.183196,0.000000,-1036.288319,-9576.193725
910.183516,-296.082377,592.164754,-10955.165621
910.183836,-592.164754,2294.638420,-10035.851024
910.184156,-666.185348,3108.864956,-10648.727422
910.184476,962.267725,1776.494261,-11031.775171
910.184796,1850.514855,1036.288319,-9806.022374
910.185116,222.061783,1036.288319,-10955.165621
910.185436,-1184.329507,814.226536,-10035.851024
910.185756,-1184.329507,1184.329507,-9729.412825
910.186076,0.000000,1332.370696,-11338.213370
910.186396,1998.556043,888.247130,-9729.412825
910.186716,1110.308913,888.247130,-10112.460574
910.187036,-370.102971,370.102971,-10495.508323
910.187356,-1628.453072,740.205942,-9193.145976
910.187676,-1036.288319,2368.659014,-10801.946522
910.187996,1628.453072,1776.494261,-10112.460574
910.188316,2886.803174,592.164754,-9039.926876
910.188636,1998.556043,-592.164754,-11031.775171
910.188956,4145.153275,222.061783,-8810.098227
910.189276,5255.462188,2072.576638,-9959.241474
910.189596,5699.585753,4663.297435,-10342.289223
910.189916,5773.606348,4219.173869,-10955.165621
910.190236,4959.379811,3182.885551,-10648.727422
910.190556,5699.585753,740.205942,-9882.631924
910.190876,5477.523971,-592.164754,-9116.536426
910.191196,4589.276840,740.205942,-9269.755526
910.191516,3108.864956,962.267725,-9959.241474
910.191836,2146.597232,1702.473667,-9499.584175
910.192156,1554.432478,2590.720797,-10189.070123
910.192476,2368.659014,2072.576638,-9193.145976
910.192796,3997.112087,2072.576638,-9346.365076
910.193116,4737.318029,2590.720797,-11031.775171
910.193436,5773.606348,1110.308913,-9729.412825
910.193756,4885.359217,1332.370696,-10112.460574
910.194076,2960.823768,2368.659014,-10495.508323
910.194396,1850.514855,2072.576638,-9346.365076
910.194716,-296.082377,4219.173869,-10418.898773
910.195036,0.000000,3034.844362,-10878.556072
910.195356,2072.576638,1776.494261,-9499.584175
910.195676,2664.741391,888.247130,-10878.556072
910.195996,2072.576638,1036.288319,-10418.898773
910.196316,370.102971,666.185348,-10265.679673
910.196636,518.144159,1332.370696,-10189.070123
910.196956,3478.967927,2220.617826,-10112.460574
910.197276,3478.967927,2590.720797,-10035.851024
910.197597,1924.535449,3330.926739,-10035.851024
910.197917,592.164754,2368.659014,-10648.727422
910.198237,1702.473667,1480.411884,-9882.631924
910.198557,1850.514855,2738.761985,-10112.460574
910.198877,1480.411884,3923.091493,-10725.336972
910.199197,1480.411884,4219.173869,-10265.679673
910.199517,962.267725,2664.741391,-11108.384721
910.199837,2146.597232,1850.514855,-9269.755526
910.200157,592.164754,3701.029710,-10112.460574
910.200477,592.164754,5773.606348,-10189.070123
910.200797,1332.370696,5181.441594,-9882.631924
910.201117,3182.885551,3256.906145,-10418.898773
910.201437,3256.906145,1036.288319,-10189.070123
910.201757,3923.091493,444.123565,-9499.584175
910.202077,4071.132681,1776.494261,-9806.022374
910.202397,3923.091493,3627.009116,-10801.946522
910.202717,3701.029710,5107.421000,-9882.631924
910.203037,1702.473667,4589.276840,-10035.851024
910.203357,370.102971,2812.782580,-9959.241474
910.203677,222.061783,1184.329507,-10035.851024
910.203997,0.000000,1036.288319,-9729.412825
910.204317,74.020594,1628.453072,-9806.022374
910.204637,962.267725,1850.514855,-10725.336972
910.204957,814.226536,2294.638420,-9806.022374
910.205277,1184.329507,2442.679609,-10035.851024
910.205597,1406.391290,3552.988522,-10035.851024
910.205917,2664.741391,4145.153275,-10725.336972
910.206237,2738.761985,4293.194464,-10112.460574
910.206557,1998.556043,3849.070898,-10189.070123
910.206877,3552.988522,3256.906145,-10112.460574
910.207197,5403.503377,2590.720797,-10112.460574
910.207517,4959.379811,3552.988522,-10418.898773
910.207837,222.061783,3997.112087,-10035.851024
910.208157,-2294.638420,4219.173869,-9806.022374
910.208477,-740.205942,1924.535449,-9729.412825
910.208797,1258.350101,444.123565,-9269.755526
910.209117,2368.659014,296.082377,-9806.022374
910.209437,3552.988522,2368.659014,-9346.365076
910.209757,5551.544565,4663.297435,-9882.631924
910.210077,6365.771101,5625.565159,-10112.460574
910.210397,5329.482782,5255.462188,-10265.679673
910.210717,3849.070898,2960.823768,-9346.365076
910.211037,3849.070898,0.000000,-9652.803275
910.211357,4959.379811,0.000000,-9116.536426
910.211677,5033.400406,1258.350101,-10035.851024
910.211997,3849.070898,2886.803174,-10342.289223
910.212317,2960.823768,4293.194464,-9806.022374
910.212637,3034.844362,3997.112087,-9806.022374
910.212957,3330.926739,3923.091493,-10495.508323
910.213277,2590.720797,3034.844362,-10572.117872
910.213597,2516.700203,2294.638420,-9882.631924
910.213917,3552.988522,1628.453072,-9959.241474
910.214237,4293.194464,1480.411884,-10342.289223
910.214557,3775.050304,2590.720797,-10572.117872
910.214877,2146.597232,4071.132681,-10495.508323
910.215197,2146.597232,5329.482782,-10801.946522
910.215517,3478.967927,6365.771101,-11797.870669
910.215837,3478.967927,4885.359217,-11414.822920
910.216157,2590.720797,2590.720797,-10878.556072
910.216477,518.144159,888.247130,-9959.241474
910.216797,-1480.411884,222.061783,-10418.898773
910.217117,-1776.494261,74.020594,-9882.631924
910.217437,0.000000,1332.370696,-9882.631924
910.217757,2146.597232,1554.432478,-10572.117872
910.218077,2886.803174,1628.453072,-9576.193725
910.218397,1924.535449,1258.350101,-10112.460574
910.218717,0.000000,2220.617826,-9499.584175
910.219037,1258.350101,2590.720797,-9576.193725
910.219357,2738.761985,2590.720797,-10342.289223
910.219677,3404.947333,962.267725,-9499.584175
910.219997,2072.576638,-296.082377,-9652.803275
910.220317,-148.041188,-148.041188,-9882.631924
910.220637,-1036.288319,592.164754,-9422.974625
910.220957,-814.226536,2368.659014,-9729.412825
910.221277,592.164754,2368.659014,-9882.631924
910.221597,1776.494261,1036.288319,-9806.022374
910.221918,2368.659014,296.082377,-9959.241474
910.222238,2664.741391,592.164754,-10572.117872
910.222558,2220.617826,2590.720797,-10418.898773
910.222878,1036.288319,4515.256246,-10572.117872
910.223198,1702.473667,4737.318029,-10035.851024
910.223518,3627.009116,2960.823768,-10418.898773
910.223838,4367.215058,370.102971,-10495.508323
910.224158,3182.885551,-222.061783,-9806.022374
910.224478,2146.597232,222.061783,-10112.460574
910.224798,2516.700203,2072.576638,-10495.508323
910.225118,2886.803174,3404.947333,-10189.070123
910.225438,2590.720797,3182.885551,-10035.851024
910.225758,2516.700203,2072.576638,-9882.631924
910.226078,4071.132681,1036.288319,-10648.727422
910.226398,4959.379811,1332.370696,-10572.117872
910.226718,4811.338623,2590.720797,-10342.289223
910.227038,4959.379811,4071.132681,-10495.508323
910.227358,5773.606348,5033.400406,-10572.117872
910.227678,4959.379811,4737.318029,-10418.898773
910.227998,1850.514855,3997.112087,-10572.117872
910.228318,74.020594,1702.473667,-9806.022374
910.228638,-296.082377,740.205942,-9806.022374
910.228958,1924.535449,-592.164754,-9652.803275
910.229278,2960.823768,-740.205942,-9652.803275
910.229598,2886.803174,518.144159,-9346.365076
910.229918,3923.091493,3256.906145,-9499.584175
910.230238,5329.482782,6513.812290,-10035.851024
910.230558,6069.688724,8290.306550,-10725.336972
910.230878,5625.565159,7254.018232,-10495.508323
910.231198,3404.947333,4663.297435,-10342.289223
910.231518,1332.370696,1776.494261,-10112.460574
910.231838,-888.247130,740.205942,-9499.584175
910.232158,-2146.597232,74.020594,-9729.412825
910.232478,-1406.391290,444.123565,-9499.584175
910.232798,444.123565,1258.350101,-9652.803275
910.233118,1110.308913,2294.638420,-9806.022374
910.233438,2220.617826,3849.070898,-10189.070123
910.233758,3627.009116,5255.462188,-10418.898773
910.234078,5625.565159,6661.853478,-10418.898773
910.234398,6365.771101,6365.771101,-10572.117872
910.234718,5107.421000,5033.400406,-10265.679673
910.235038,2738.761985,3330.926739,-10112.460574
910.235358,1184.329507,2442.679609,-9882.631924
910.235678,0.000000,2516.700203,-10418.898773
910.235998,-814.226536,2590.720797,-9882.631924
910.236318,-1776.494261,2294.638420,-9959.241474
910.236638,-2590.720797,1332.370696,-9346.365076
910.236958,-2368.659014,592.164754,-8886.707777
910.237278,-296.082377,666.185348,-9806.022374
910.237598,2960.823768,1776.494261,-9806.022374
910.237918,5403.503377,3182.885551,-9806.022374
910.238238,6661.853478,4959.379811,-9576.193725
910.238523,6291.750507,5847.626942,-9959.241474
910.238843,4885.359217,6217.729913,-10035.851024
910.239163,2294.638420,5477.523971,-10572.117872
910.239483,888.247130,3701.029710,-10418.898773
910.239803,296.082377,1406.391290,-9806.022374
910.240123,0.000000,-148.041188,-9346.365076
910.240443,-370.102971,-1184.329507,-9422.974625
910.240763,-888.247130,-592.164754,-9346.365076
910.241083,-888.247130,1480.411884,-9499.584175
910.241403,1702.473667,2960.823768,-10189.070123
910.241723,4737.318029,3923.091493,-9959.241474
910.242043,6735.874072,3404.947333,-10265.679673
910.242363,7476.080014,2368.659014,-10035.851024
910.242683,6513.812290,1554.432478,-11338.213370
910.243003,3330.926739,1850.514855,-10495.508323
910.243323,814.226536,2146.597232,-10265.679673
910.243643,-740.205942,2294.638420,-10112.460574
910.243963,-814.226536,1332.370696,-10418.898773
910.244283,-1110.308913,74.020594,-10189.070123
910.244603,-222.061783,-1110.308913,-10112.460574
910.244923,518.144159,-814.226536,-9806.022374
910.245243,1850.514855,592.164754,-9882.631924
910.245563,3552.988522,2442.679609,-10418.898773
910.245883,4737.318029,4367.215058,-10572.117872
910.246203,5255.462188,4737.318029,-11031.775171
910.246523,4367.215058,3923.091493,-10725.336972
910.246843,3849.070898,3404.947333,-10418.898773
910.247163,2664.741391,2072.576638,-10878.556072
910.247483,1628.453072,888.247130,-10495.508323
910.247803,814.226536,148.041188,-9652.803275
910.248123,370.102971,0.000000,-9652.803275
910.248443,740.205942,148.041188,-9652.803275
910.248763,1776.494261,1332.370696,-9806.022374
910.249083,3108.864956,2368.659014,-10418.898773
910.249403,4441.235652,3182.885551,-9959.241474
910.249723,5921.647536,3849.070898,-10112.460574
910.250043,6957.935855,4071.132681,-10189.070123
910.250363,7105.977043,4367.215058,-10725.336972
910.250683,6291.750507,4441.235652,-10725.336972
910.251003,4219.173869,4885.359217,-10189.070123
910.251323,1184.329507,4145.153275,-10189.070123
910.251643,-1406.391290,2812.782580,-10189.070123
910.251963,-1850.514855,888.247130,-9576.193725
910.252283,-962.267725,-148.041188,-9346.365076
910.252603,-444.123565,-518.144159,-9652.803275
910.252923,1332.370696,222.061783,-9576.193725
910.253243,2664.741391,2812.782580,-10035.851024
910.253563,4589.276840,5329.482782,-10112.460574
910.253883,6365.771101,6513.812290,-10112.460574
910.254203,5773.606348,7698.141797,-10342.289223
910.254523,4515.256246,6957.935855,-10801.946522
910.254843,3478.967927,5181.441594,-10418.898773
910.255163,2664.741391,3330.926739,-10342.289223
910.255483,2072.576638,1702.473667,-9959.241474
910.255803,-1110.308913,2368.659014,-9806.022374
910.256123,-3182.885551,3256.906145,-9806.022374
910.256443,-3034.844362,3256.906145,-9652.803275
910.256763,-222.061783,3256.906145,-10035.851024
910.257083,1998.556043,2590.720797,-10418.898773
910.257403,3330.926739,2516.700203,-10112.460574
910.257723,3701.029710,3404.947333,-10189.070123
910.258043,4367.215058,4515.256246,-9959.241474
910.258363,5329.482782,5773.606348,-10265.679673
910.258683,6365.771101,6069.688724,-9959.241474
910.259003,5921.647536,5181.441594,-10189.070123
910.259323,3034.844362,3997.112087,-10265.679673
910.259643,-814.226536,2590.720797,-9652.803275
910.259963,-2664.741391,1628.453072,-9499.584175
910.260283,-1406.391290,666.185348,-9576.193725
910.260603,0.000000,222.061783,-9269.755526
910.260923,296.082377,-148.041188,-9269.755526
910.261243,1480.411884,592.164754,-9193.145976
910.261563,4367.215058,2368.659014,-9806.022374
910.261883,6809.894666,4811.338623,-10342.289223
910.262203,7402.059420,6661.853478,-10725.336972
910.262523,6661.853478,6661.853478,-10189.070123
910.262843,5033.400406,4737.318029,-10495.508323
910.263163,3552.988522,2590.720797,-10112.460574
910.263483,1554.432478,814.226536,-9959.241474
910.263803,592.164754,0.000000,-8656.879127
910.264123,592.164754,-666.185348,-10112.460574
910.264443,0.000000,-222.061783,-10189.070123
910.264763,-962.267725,1036.288319,-9882.631924
910.265083,74.020594,2220.617826,-9959.241474
910.265403,2812.782580,2960.823768,-10265.679673
910.265723,5477.523971,3108.864956,-10725.336972
910.266043,6735.874072,2738.761985,-10495.508323
910.266363,7105.977043,2886.803174,-10572.117872
910.266683,5403.503377,3701.029710,-11031.775171
910.267003,3923.091493,4219.173869,-10495.508323
910.267323,1184.329507,3701.029710,-10725.336972
910.267643,74.020594,1628.453072,-10342.289223
910.267963,-148.041188,-370.102971,-9806.022374
910.268283,-814.226536,-1480.411884,-10189.070123
910.268603,-740.205942,-1850.514855,-9806.022374
910.268923,-962.267725,-222.061783,-9422.974625
910.269243,814.226536,1628.453072,-9959.241474
910.269563,3256.906145,3182.885551,-9882.631924
910.269883,4737.318029,3404.947333,-9959.241474
910.270203,5625.565159,3256.906145,-10342.289223
910.270523,5403.503377,2738.761985,-9959.241474
910.270843,3997.112087,3627.009116,-10418.898773
910.271163,2294.638420,3256.906145,-10418.898773
910.271483,1332.370696,1702.473667,-9499.584175
910.271803,0.000000,0.000000,-9882.631924
910.272123,-1702.473667,-1702.473667,-9576.193725
910.272443,-4071.132681,-1776.494261,-10035.851024
910.272763,-4071.132681,-666.185348,-9959.241474
910.273083,-222.061783,962.267725,-9576.193725
910.273403,4293.194464,2590.720797,-9806.022374
910.273723,5921.647536,3849.070898,-10955.165621
910.274043,5033.400406,3923.091493,-10495.508323
910.274363,4145.153275,4441.235652,-10265.679673
910.274683,5847.626942,4885.359217,-10955.165621
910.275003,6217.729913,4959.379811,-10648.727422
910.275323,3627.009116,4663.297435,-10648.727422
910.275643,-888.247130,2368.659014,-10418.898773
910.275963,-2590.720797,370.102971,-9652.803275
910.276283,-2146.597232,-222.061783,-9806.022374
910.276603,-1184.329507,-296.082377,-10801.946522
910.276923,-1110.308913,740.205942,-9652.803275
910.277243,592.164754,1332.370696,-9882.631924
910.277563,4219.173869,2368.659014,-9576.193725
910.277883,6957.935855,4367.215058,-10801.946522
910.278203,7105.977043,6143.709319,-11491.432470
910.278523,6069.688724,7105.977043,-10189.070123
910.278843,5847.626942,6661.853478,-10265.679673
910.279163,6291.750507,5477.523971,-10495.508323
910.279483,5033.400406,2812.782580,-10265.679673
910.279803,1332.370696,1850.514855,-9882.631924
910.280123,-1702.473667,1184.329507,-9806.022374
910.280443,-2146.597232,1924.535449,-9346.365076
910.280763,-1850.514855,1776.494261,-9729.412825
910.281083,-148.041188,2368.659014,-9116.536426
910.281403,2442.679609,2516.700203,-9576.193725
910.281723,5773.606348,3404.947333,-10035.851024
910.282043,6809.894666,4293.194464,-10189.070123
910.282363,5329.482782,5921.647536,-9576.193725
910.282683,5773.606348,6957.935855,-10572.117872
910.283003,7031.956449,6143.709319,-10495.508323
910.283323,6365.771101,4663.297435,-10572.117872
910.283643,2664.741391,3404.947333,-9652.803275
910.283963,0.000000,3256.906145,-9806.022374
910.284283,-592.164754,2886.803174,-10418.898773
910.284603,-1776.494261,2442.679609,-9499.584175
910.284923,-2960.823768,518.144159,-9499.584175
910.285243,-2072.576638,148.041188,-8580.269578
910.285563,814.226536,0.000000,-9882.631924
910.285883,3256.906145,2294.638420,-9806.022374
910.286203,5255.462188,3627.009116,-10418.898773
910.286523,7105.977043,4811.338623,-10495.508323
910.286843,7254.018232,5551.544565,-10035.851024
910.287162,4293.194464,6661.853478,-10189.070123
910.287482,814.226536,5995.668130,-11184.994271
910.287802,-1110.308913,4293.194464,-10418.898773
910.288122,-1924.535449,1110.308913,-10265.679673
910.288442,-1628.453072,74.020594,-9959.241474
910.288762,-1628.453072,-296.082377,-9652.803275
910.289082,-1258.350101,0.000000,-9576.193725
910.289402,814.226536,296.082377,-9806.022374
910.289722,2590.720797,2146.597232,-10035.851024
910.290042,3849.070898,3997.112087,-9959.241474
910.290362,5699.585753,4219.173869,-10648.727422
910.290682,8142.265362,4293.194464,-10035.851024
910.291002,7476.080014,4515.256246,-11261.603821
910.291322,4663.297435,4219.173869,-10265.679673
910.291642,3182.885551,3627.009116,-10648.727422
910.291962,1036.288319,1480.411884,-10189.070123
910.292282,-888.247130,296.082377,-8197.221829
910.292602,-1332.370696,-1110.308913,-9806.022374
910.292922,-962.267725,-1406.391290,-9499.584175
910.293242,888.247130,-296.082377,-9652.803275
910.293562,1702.473667,888.247130,-10572.117872
910.293882,3701.029710,2442.679609,-8733.488677
910.294202,5625.565159,3478.967927,-10189.070123
910.294522,7550.100608,3182.885551,-10189.070123
910.294842,7550.100608,3478.967927,-9959.241474
910.295162,5773.606348,4293.194464,-10572.117872
910.295482,3552.988522,2664.741391,-10725.336972
910.295802,1110.308913,1554.432478,-9806.022374
910.296122,-2368.659014,962.267725,-9882.631924
910.296442,-4293.194464,-518.144159,-9806.022374
910.296762,-2664.741391,-1184.329507,-9116.536426
910.297082,-1184.329507,-1554.432478,-9959.241474
910.297402,1036.288319,-740.205942,-9882.631924
910.297722,2738.761985,370.102971,-9729.412825
910.298042,2738.761985,1554.432478,-9959.241474
910.298362,3552.988522,888.247130,-10189.070123
910.298682,3849.070898,1110.308913,-9269.755526
910.299002,2812.782580,2368.659014,-10495.508323
910.299322,2812.782580,2442.679609,-10495.508323
910.299642,1702.473667,3108.864956,-9806.022374
910.299962,2220.617826,2590.720797,-11184.994271
910.300282,3478.967927,518.144159,-10189.070123
910.300602,-740.205942,-1628.453072,-10342.289223
910.300922,-4589.276840,-2664.741391,-10418.898773
910.301242,-5255.462188,-3034.844362,-9116.536426
910.301562,-2368.659014,-1850.514855,-9806.022374
910.301882,74.020594,-222.061783,-10801.946522
910.302202,2220.617826,888.247130,-9806.022374
910.302522,3478.967927,2368.659014,-11184.994271
910.302842,4959.379811,2960.823768,-10955.165621
910.303162,6513.812290,3627.009116,-10725.336972
910.303482,4145.153275,3330.926739,-12027.699319
910.303802,592.164754,2072.576638,-10265.679673
910.304122,-2960.823768,-222.061783,-10265.679673
910.304442,-4737.318029,-740.205942,-10342.289223
910.304762,-5477.523971,-962.267725,-9806.022374
910.305082,-6809.894666,-370.102971,-10801.946522
910.305402,-4071.132681,-1850.514855,-10265.679673
910.305722,-814.226536,-1628.453072,-9193.145976
910.306042,1554.432478,444.123565,-10648.727422
910.306362,2960.823768,1036.288319,-10418.898773
910.306682,2294.638420,3256.906145,-10955.165621
910.307002,1036.288319,3923.091493,-10878.556072
910.307322,1776.494261,3256.906145,-9346.365076
910.307642,2886.803174,2590.720797,-10112.460574
910.307962,3478.967927,740.205942,-10495.508323
910.308282,1184.329507,-1406.391290,-9193.145976
910.308602,-1554.432478,-1850.514855,-9959.241474
910.308922,-3256.906145,-1924.535449,-9193.145976
910.309242,-3701.029710,-1406.391290,-8656.879127
910.309562,-3849.070898,-1332.370696,-9806.022374
910.309882,-2368.659014,-666.185348,-9039.926876
910.310202,-148.041188,222.061783,-9806.022374
910.310522,2442.679609,1036.288319,-9882.631924
910.310842,4441.235652,2516.700203,-9652.803275
910.311162,5847.626942,2664.741391,-11338.213370
910.311482,6735.874072,2368.659014,-9806.022374
910.311802,4737.318029,2294.638420,-10495.508323
910.312122,1110.308913,2294.638420,-11261.603821
910.312442,-1258.350101,2072.576638,-9882.631924
910.312762,-3849.070898,1406.391290,-11184.994271
910.313082,-1998.556043,-444.123565,-10035.851024
910.313402,-1184.329507,-1480.411884,-9346.365076
910.313722,-1924.535449,-1258.350101,-10878.556072
910.314042,-518.144159,-2072.576638,-9193.145976
910.314362,518.144159,296.082377,-10112.460574
910.314682,3701.029710,1184.329507,-10725.336972
910.315002,6513.812290,2664.741391,-8963.317327
910.315322,5477.523971,3627.009116,-11261.603821
910.315642,4441.235652,2516.700203,-10342.289223
910.315962,3775.050304,1406.391290,-9652.803275
910.316282,3330.926739,888.247130,-10955.165621
910.316602,3108.864956,222.061783,-9806.022374
910.316922,-592.164754,-370.102971,-10495.508323
910.317242,-4441.235652,-1776.494261,-10265.679673
910.317562,-4071.132681,-1776.494261,-8886.707777
910.317882,-2960.823768,-1184.329507,-9806.022374
910.318202,1110.308913,-1406.391290,-9116.536426
910.318522,3849.070898,-1036.288319,-9729.412825
910.318842,5403.503377,592.164754,-11031.775171
910.319162,5699.585753,1776.494261,-10265.679673
910.319482,3108.864956,3404.947333,-10801.946522
910.319802,1406.391290,3034.844362,-10878.556072
910.320122,1184.329507,2368.659014,-9959.241474
910.320442,-1184.329507,1036.288319,-11261.603821
910.320762,-3775.050304,-888.247130,-9499.584175
910.321082,-6661.853478,-2220.617826,-9576.193725
910.321402,-4959.379811,-3330.926739,-10035.851024
910.321722,-1036.288319,-3478.967927,-9346.365076
910.322042,-370.102971,-1924.535449,-10189.070123
910.322362,-1554.432478,-370.102971,-9729.412825
910.322682,-2590.720797,1850.514855,-9652.803275
910.323002,1184.329507,5033.400406,-10955.165621
910.323322,4219.173869,4145.153275,-10878.556072
910.323642,4515.256246,2590.720797,-10342.289223
910.323962,1332.370696,740.205942,-11108.384721
910.324282,-814.226536,-1776.494261,-8886.707777
910.324602,-1776.494261,-1850.514855,-10418.898773
910.324922,-1998.556043,-296.082377,-10112.460574
910.325242,-3330.926739,1628.453072,-9652.803275
910.325562,-4293.194464,888.247130,-10342.289223
910.325882,-2664.741391,148.041188,-9806.022374
910.326202,-296.082377,-962.267725,-9499.584175
910.326522,1480.411884,-592.164754,-10035.851024
910.326842,2146.597232,-222.061783,-9882.631924
910.327162,3108.864956,1480.411884,-10572.117872
910.327482,3256.906145,1554.432478,-10342.289223
910.327802,1628.453072,1258.350101,-9652.803275
910.328122,0.000000,592.164754,-10725.336972
910.328442,1332.370696,444.123565,-9652.803275
910.328762,2146.597232,444.123565,-10572.117872
910.329082,2072.576638,-888.247130,-10342.289223
910.329402,-1036.288319,-1110.308913,-9269.755526
910.329722,-1776.494261,-2368.659014,-10495.508323
910.330042,222.061783,-3701.029710,-8963.317327
910.330362,2590.720797,-2516.700203,-9806.022374
910.330682,5033.400406,-148.041188,-10572.117872
910.331002,4293.194464,444.123565,-9729.412825
910.331322,2220.617826,1776.494261,-10495.508323
910.331642,1406.391290,3108.864956,-10112.460574
910.331962,2442.679609,3478.967927,-10342.289223
910.332282,3256.906145,2590.720797,-11568.042020
910.332602,1702.473667,1110.308913,-10418.898773
910.332922,-2220.617826,-148.041188,-9882.631924
910.333242,-2960.823768,-3034.844362,-9422.974625
910.333562,592.164754,-4219.173869,-9422.974625
910.333882,1332.370696,-3182.885551,-10418.898773
910.334202,740.205942,-1258.350101,-9652.803275
910.334522,-1184.329507,1332.370696,-9806.022374
910.334842,-222.061783,3552.988522,-10418.898773
910.335162,3108.864956,3923.091493,-10495.508323
910.335482,4885.359217,4071.132681,-11414.822920
910.335802,4219.173869,1332.370696,-10878.556072
910.336122,1924.535449,-1258.350101,-9652.803275
910.336442,-1406.391290,-2294.638420,-10572.117872
910.336762,-1480.411884,-2664.741391,-9499.584175
910.337082,-2442.679609,-1406.391290,-10265.679673
910.337402,-2960.823768,-1110.308913,-10495.508323
910.337722,-3256.906145,-296.082377,-9499.584175
910.338042,-3330.926739,518.144159,-10418.898773
910.338362,-1332.370696,0.000000,-10035.851024
910.338682,222.061783,-296.082377,-10265.679673
910.339002,1702.473667,-222.061783,-10801.946522
910.339322,2220.617826,-370.102971,-9576.193725
910.339642,1184.329507,1480.411884,-9806.022374
910.339962,1702.473667,2516.700203,-11108.384721
910.340282,2664.741391,3478.967927,-10189.070123
910.340602,962.267725,2368.659014,-10955.165621
910.340922,-962.267725,222.061783,-9806.022374
910.341242,-3330.926739,-740.205942,-8963.317327
910.341562,-5107.421000,-962.267725,-10418.898773
910.341882,-3182.885551,-1776.494261,-9576.193725
910.342202,-2886.803174,-1110.308913,-9269.755526
910.342522,-2146.597232,-888.247130,-9882.631924
910.342842,0.000000,740.205942,-9193.145976
910.343162,1998.556043,2442.679609,-10725.336972
910.343482,5181.441594,3404.947333,-10189.070123
910.343802,5107.421000,3404.947333,-10342.289223
910.344122,2146.597232,3034.844362,-11568.042020
910.344442,0.000000,1258.350101,-9729.412825
910.344762,-1036.288319,0.000000,-10112.460574
910.345082,0.000000,-666.185348,-9806.022374
910.345402,296.082377,-1258.350101,-9422.974625
910.345722,148.041188,-1406.391290,-10801.946522
910.346042,74.020594,-1776.494261,-9806.022374
910.346362,148.041188,0.000000,-10035.851024
910.346682,814.226536,814.226536,-10648.727422
910.347002,2738.761985,2442.679609,-9882.631924
910.347322,3256.906145,3182.885551,-10955.165621
910.347642,5033.400406,3330.926739,-11031.775171
910.347962,3478.967927,3330.926739,-10495.508323
910.348282,814.226536,2590.720797,-11261.603821
910.348602,1036.288319,888.247130,-9193.145976
910.348922,1332.370696,-1258.350101,-10189.070123
910.349242,888.247130,-2664.741391,-10112.460574
910.349562,-592.164754,-3182.885551,-9269.755526
910.349882,-2368.659014,-1406.391290,-9499.584175
910.350202,0.000000,74.020594,-9422.974625
910.350522,1480.411884,1184.329507,-9729.412825
910.350842,4589.276840,518.144159,-10572.117872
910.351162,3997.112087,-592.164754,-9269.755526
910.351482,2368.659014,-444.123565,-9806.022374
910.351802,1554.432478,-148.041188,-9806.022374
910.352122,3256.906145,518.144159,-8580.269578
910.352442,3256.906145,370.102971,-11031.775171
910.352762,4367.215058,-370.102971,-9806.022374
910.353082,666.185348,0.000000,-9729.412825
910.353402,-3182.885551,-518.144159,-10648.727422
910.353722,-4737.318029,-296.082377,-9039.926876
910.354042,-2072.576638,-518.144159,-10725.336972
910.354362,-148.041188,-592.164754,-10878.556072
910.354682,-1258.350101,-2738.761985,-10035.851024
910.355002,-2812.782580,-1776.494261,-10955.165621
910.355322,-1480.411884,-1702.473667,-10265.679673
910.355642,296.082377,962.267725,-10265.679673
910.355962,2812.782580,3182.885551,-12257.527968
910.356282,1406.391290,3478.967927,-10189.070123
910.356602,-1924.535449,3256.906145,-11031.775171
910.356922,-1776.494261,296.082377,-10495.508323
910.357242,0.000000,-1036.288319,-9806.022374
910.357562,-518.144159,-2664.741391,-10418.898773
910.357882,-2664.741391,-4071.132681,-9652.803275
910.358202,-4219.173869,-3330.926739,-9806.022374
910.358522,-2442.679609,0.000000,-9806.022374
910.358842,0.000000,1776.494261,-9806.022374
910.359162,-370.102971,2960.823768,-10572.117872
910.359482,-592.164754,1110.308913,-9806.022374
910.359802,-2664.741391,-222.061783,-8733.488677
910.360122,-1702.473667,-1850.514855,-9806.022374
910.360442,1554.432478,-2960.823768,-8503.660028
910.360762,2220.617826,-1776.494261,-9959.241474
910.361082,1184.329507,-1554.432478,-10495.508323
910.361402,-296.082377,-1110.308913,-9039.926876
910.361722,-1776.494261,-518.144159,-10035.851024
910.362042,-370.102971,518.144159,-9269.755526
910.362362,-222.061783,962.267725,-10878.556072
910.362682,-740.205942,296.082377,-10495.508323
910.363002,-962.267725,-1480.411884,-9652.803275
910.363322,148.041188,-1554.432478,-9806.022374
910.363642,1998.556043,-740.205942,-9806.022374
910.363962,4737.318029,444.123565,-10035.851024
910.364282,5255.462188,1480.411884,-11261.603821
910.364602,3182.885551,1554.432478,-10495.508323
910.364922,1924.535449,2368.659014,-11108.384721
910.365242,1702.473667,2072.576638,-10878.556072
910.365562,740.205942,1036.288319,-9806.022374
910.365882,962.267725,666.185348,-10801.946522
910.366202,2220.617826,-222.061783,-10189.070123
910.366522,4589.276840,814.226536,-10878.556072
910.366842,4737.318029,1036.288319,-11184.994271
910.367162,4145.153275,1702.473667,-10648.727422
910.367482,4515.256246,2442.679609,-10648.727422
910.367802,2368.659014,2442.679609,-11338.213370
910.368122,0.000000,1258.350101,-9806.022374
910.368442,1332.370696,740.205942,-10418.898773
910.368762,3256.906145,962.267725,-10189.070123
910.369082,4145.153275,888.247130,-10418.898773
910.369402,2590.720797,1776.494261,-11108.384721
910.369722,1258.350101,1702.473667,-9346.365076
910.370042,-592.164754,1332.370696,-9806.022374
910.370362,1406.391290,0.000000,-10112.460574
910.370682,1850.514855,-148.041188,-8503.660028
910.371002,1184.329507,-592.164754,-10495.508323
910.371322,148.041188,-962.267725,-9193.145976
910.371642,148.041188,-296.082377,-9652.803275
910.371962,-1924.535449,148.041188,-9806.022374
910.372282,-296.082377,296.082377,-8810.098227
910.372602,-2886.803174,2220.617826,-10112.460574
910.372922,-2442.679609,1332.370696,-9959.241474
910.373242,-2146.597232,222.061783,-9269.755526
910.373562,-2146.597232,-296.082377,-9806.022374
910.373882,-2146.597232,-814.226536,-9499.584175
910.374202,-1628.453072,-444.123565,-9959.241474
910.374522,-518.144159,296.082377,-10572.117872
