#time,accel_x,accel_y,accel_z
864.398649,666.185348,518.144159,-9806.022374
864.398969,666.185348,370.102971,-10189.070123
864.399289,666.185348,296.082377,-10112.460574
864.399609,1036.288319,-518.144159,-10189.070123
864.399929,296.082377,148.041188,-10035.851024
864.400249,518.144159,0.000000,-9882.631924
864.400569,296.082377,0.000000,-10035.851024
864.400889,444.123565,222.061783,-9882.631924
864.401209,592.164754,518.144159,-9882.631924
864.401529,740.205942,518.144159,-9806.022374
864.401848,370.102971,518.144159,-10265.679673
864.402168,592.164754,370.102971,-9959.241474
864.402488,666.185348,222.061783,-9882.631924
864.402808,666.185348,296.082377,-10189.070123
864.403128,222.061783,222.061783,-10189.070123
864.403448,148.041188,222.061783,-9959.241474
864.403768,148.041188,370.102971,-10342.289223
864.404088,518.144159,814.226536,-10418.898773
864.404408,444.123565,370.102971,-10189.070123
864.404728,666.185348,0.000000,-10035.851024
864.405048,592.164754,296.082377,-10035.851024
864.405368,666.185348,0.000000,-11951.089769
864.405688,370.102971,592.164754,-10112.460574
864.406008,518.144159,814.226536,-10112.460574
864.406328,444.123565,592.164754,-9959.241474
864.406648,296.082377,518.144159,-10189.070123
864.406968,592.164754,296.082377,-10189.070123
864.407288,592.164754,148.041188,-10189.070123
864.407607,444.123565,0.000000,-10112.460574
864.407927,444.123565,74.020594,-10265.679673
864.408247,0.000000,888.247130,-10035.851024
864.408567,888.247130,740.205942,-10418.898773
864.408887,222.061783,370.102971,-10112.460574
864.409207,148.041188,0.000000,-10035.851024
864.409527,296.082377,-370.102971,-9882.631924
864.409847,962.267725,-1036.288319,-10189.070123
864.410167,0.000000,74.020594,-9806.022374
864.410487,148.041188,222.061783,-10265.679673
864.410807,370.102971,888.247130,-10112.460574
864.411127,888.247130,1850.514855,-9729.412825
864.411447,740.205942,740.205942,-10265.679673
864.411767,222.061783,222.061783,-10112.460574
864.412087,370.102971,-148.041188,-10418.898773
864.412407,592.164754,0.000000,-9806.022374
864.412727,740.205942,0.000000,-10495.508323
864.413046,-518.144159,222.061783,-10265.679673
864.413366,-1406.391290,74.020594,-9882.631924
864.413686,-740.205942,-296.082377,-10265.679673
864.414006,-444.123565,-370.102971,-9116.536426
864.414326,-740.205942,-518.144159,-10035.851024
864.414646,-814.226536,-962.267725,-10342.289223
864.414966,-222.061783,-592.164754,-9882.631924
864.415286,74.020594,-444.123565,-10112.460574
864.415606,-370.102971,-444.123565,-10648.727422
864.415926,-814.226536,-518.144159,-10265.679673
864.416246,-814.226536,-814.226536,-9959.241474
864.416566,-666.185348,-888.247130,-9882.631924
864.416886,-1036.288319,-1998.556043,-10035.851024
864.417206,-1850.514855,-1480.411884,-9959.241474
864.417526,-1702.473667,-1480.411884,-9882.631924
864.417846,-888.247130,-1036.288319,-9959.241474
864.418166,-962.267725,-962.267725,-10112.460574
864.418486,-2146.597232,-888.247130,-10112.460574
864.418805,-1406.391290,-1332.370696,-9806.022374
864.419125,-518.144159,-1258.350101,-9959.241474
864.419445,-296.082377,-888.247130,-9959.241474
864.419765,-1332.370696,-1850.514855,-10035.851024
864.420085,-2294.638420,-3034.844362,-9806.022374
864.420405,-2220.617826,-3404.947333,-9346.365076
864.420725,-1850.514855,-3478.967927,-9729.412825
864.421045,-2072.576638,-3330.926739,-9806.022374
864.421365,-2590.720797,-3478.967927,-9959.241474
864.421685,-2294.638420,-3182.885551,-9806.022374
864.422005,-740.205942,-3034.844362,-9806.022374
864.422325,1036.288319,-2516.700203,-10189.070123
864.422645,592.164754,-1998.556043,-9729.412825
864.422965,-1110.308913,-1924.535449,-10648.727422
864.423285,-1554.432478,-1998.556043,-10265.679673
864.423605,-2368.659014,-2516.700203,-10495.508323
864.423925,-4145.153275,-3034.844362,-9269.755526
864.424245,-5625.565159,-4071.132681,-10035.851024
864.424564,-5403.503377,-4959.379811,-9882.631924
864.424884,-3108.864956,-5181.441594,-9652.803275
864.425204,-888.247130,-4663.297435,-10265.679673
864.425524,518.144159,-2960.823768,-10342.289223
864.425844,518.144159,-814.226536,-10572.117872
864.426164,1406.391290,296.082377,-10878.556072
864.426484,1776.494261,888.247130,-10495.508323
864.426804,1924.535449,148.041188,-10265.679673
864.427124,296.082377,-962.267725,-10495.508323
864.427444,-1332.370696,-3182.885551,-10265.679673
864.427764,-3330.926739,-4219.173869,-10189.070123
864.428084,-5033.400406,-4219.173869,-9806.022374
864.428404,-5477.523971,-4589.276840,-9499.584175
864.428724,-4367.215058,-5033.400406,-9346.365076
864.429044,-1702.473667,-5255.462188,-9729.412825
864.429364,74.020594,-4811.338623,-9729.412825
864.429684,1776.494261,-2590.720797,-11031.775171
864.430004,2738.761985,148.041188,-10189.070123
864.430323,4367.215058,2368.659014,-10725.336972
864.430643,3849.070898,3256.906145,-10955.165621
864.430963,1036.288319,1554.432478,-10572.117872
864.431283,-2664.741391,-1406.391290,-10495.508323
864.431603,-5033.400406,-4515.256246,-9499.584175
864.431923,-5329.482782,-6661.853478,-9422.974625
864.432243,-4367.215058,-7031.956449,-9346.365076
864.432563,-4737.318029,-6069.688724,-9499.584175
864.432883,-2664.741391,-3330.926739,-9652.803275
864.433203,0.000000,-592.164754,-10265.679673
864.433523,1776.494261,1554.432478,-10495.508323
864.433843,2664.741391,3404.947333,-9959.241474
864.434163,1850.514855,3775.050304,-10418.898773
864.434483,3330.926739,2294.638420,-10572.117872
864.434803,2294.638420,-296.082377,-11184.994271
864.435123,-814.226536,-2368.659014,-10035.851024
864.435443,-3923.091493,-2812.782580,-9806.022374
864.435763,-6069.688724,-2294.638420,-10035.851024
864.436082,-6957.935855,-1850.514855,-9882.631924
864.436402,-7328.038826,-3256.906145,-9576.193725
864.436722,-6365.771101,-4441.235652,-9116.536426
864.437042,-3108.864956,-4515.256246,-9346.365076
864.437362,1332.370696,-2812.782580,-9806.022374
864.437682,3404.947333,592.164754,-10955.165621
864.438002,2368.659014,3182.885551,-10572.117872
864.438322,1110.308913,5551.544565,-10648.727422
864.438642,1554.432478,5033.400406,-10418.898773
864.438962,1258.350101,2294.638420,-10878.556072
864.439282,-518.144159,-1406.391290,-10035.851024
864.439602,-3256.906145,-5181.441594,-10189.070123
864.439922,-6439.791695,-5773.606348,-9499.584175
864.440242,-7920.203579,-4737.318029,-9193.145976
864.440562,-7846.182985,-3849.070898,-9269.755526
864.440882,-5033.400406,-4145.153275,-8886.707777
864.441202,-1924.535449,-3997.112087,-9499.584175
864.441522,2220.617826,-2294.638420,-10189.070123
864.441841,3552.988522,-666.185348,-10878.556072
864.442161,3849.070898,1776.494261,-10495.508323
864.442481,4515.256246,3404.947333,-10342.289223
864.442801,3404.947333,3256.906145,-10648.727422
864.443121,1036.288319,2146.597232,-10725.336972
864.443441,-2368.659014,-1332.370696,-10189.070123
864.443761,-5921.647536,-4367.215058,-9729.412825
864.444081,-6883.915261,-6217.729913,-9652.803275
864.444401,-5995.668130,-8216.285956,-9116.536426
864.444721,-5551.544565,-9252.574275,-9039.926876
864.445041,-4737.318029,-7624.121203,-9039.926876
864.445361,-3108.864956,-3108.864956,-9806.022374
864.445681,148.041188,74.020594,-10342.289223
864.446001,4219.173869,2886.803174,-10572.117872
864.446321,5625.565159,2812.782580,-11338.213370
864.446641,4071.132681,1850.514855,-11338.213370
864.446961,1184.329507,74.020594,-10265.679673
864.447280,-666.185348,-2368.659014,-10265.679673
864.447600,-2220.617826,-3404.947333,-10189.070123
864.447920,-3923.091493,-5255.462188,-10265.679673
864.448240,-7254.018232,-6587.832884,-9806.022374
864.448560,-7994.224174,-7476.080014,-9422.974625
864.448880,-7031.956449,-7105.977043,-9193.145976
864.449200,-3478.967927,-5995.668130,-9882.631924
864.449520,-592.164754,-3182.885551,-9806.022374
864.449840,-444.123565,-1184.329507,-10418.898773
864.450160,0.000000,0.000000,-9959.241474
864.450480,2220.617826,0.000000,-10342.289223
864.450800,3775.050304,1036.288319,-10955.165621
864.451120,2294.638420,1554.432478,-10878.556072
864.451440,0.000000,-1998.556043,-10418.898773
864.451760,-1924.535449,-2960.823768,-10342.289223
864.452080,-4663.297435,-3182.885551,-10189.070123
864.452400,-7105.977043,-4811.338623,-10725.336972
864.452720,-6143.709319,-6365.771101,-9806.022374
864.453039,-3849.070898,-5921.647536,-9346.365076
864.453359,-2590.720797,-3775.050304,-9806.022374
864.453679,0.000000,-2220.617826,-9806.022374
864.453999,2294.638420,-666.185348,-9959.241474
864.454319,3923.091493,-148.041188,-10495.508323
864.454639,2664.741391,1184.329507,-10725.336972
864.454959,1554.432478,1998.556043,-10342.289223
864.455279,1110.308913,444.123565,-10342.289223
864.455599,444.123565,-1480.411884,-10418.898773
864.455919,-1850.514855,-1184.329507,-10189.070123
864.456239,-4293.194464,-3108.864956,-9882.631924
864.456559,-4145.153275,-3034.844362,-9882.631924
864.456879,-4367.215058,-3330.926739,-9882.631924
864.457199,-4589.276840,-3034.844362,-9422.974625
864.457519,-2590.720797,-2072.576638,-9652.803275
864.457839,0.000000,-2294.638420,-9882.631924
864.458159,1184.329507,-888.247130,-9499.584175
864.458479,1702.473667,962.267725,-10265.679673
864.458798,3256.906145,2516.700203,-10418.898773
864.459118,2664.741391,2886.803174,-10725.336972
864.459438,148.041188,2442.679609,-10648.727422
864.459758,-1924.535449,0.000000,-10112.460574
864.460078,-1924.535449,-1924.535449,-9959.241474
864.460398,-2072.576638,-2664.741391,-9806.022374
864.460718,-3923.091493,-2294.638420,-10342.289223
864.461037,-4145.153275,-888.247130,-10572.117872
864.461357,-2960.823768,0.000000,-9499.584175
864.461677,-296.082377,0.000000,-9499.584175
864.461997,1480.411884,-1332.370696,-9806.022374
864.462317,2590.720797,-740.205942,-10342.289223
864.462636,2146.597232,370.102971,-10648.727422
864.462956,1480.411884,814.226536,-10418.898773
864.463276,518.144159,2590.720797,-10418.898773
864.463596,-1554.432478,3256.906145,-10265.679673
864.463916,-518.144159,1480.411884,-9882.631924
864.464236,1406.391290,-518.144159,-10035.851024
864.464555,666.185348,-1850.514855,-10112.460574
864.464875,-1184.329507,-2812.782580,-9806.022374
864.465195,-1406.391290,-2146.597232,-10572.117872
864.465515,962.267725,-222.061783,-9959.241474
864.465835,148.041188,666.185348,-10112.460574
864.466154,296.082377,1184.329507,-9499.584175
864.466474,0.000000,1110.308913,-10265.679673
864.466794,2220.617826,370.102971,-9806.022374
864.467114,3775.050304,1110.308913,-10035.851024
864.467434,3034.844362,962.267725,-10801.946522
864.467753,1406.391290,666.185348,-10112.460574
864.468073,0.000000,-222.061783,-10342.289223
864.468393,-444.123565,-666.185348,-10035.851024
864.468713,-740.205942,-592.164754,-9729.412825
864.469033,-1110.308913,-666.185348,-10648.727422
864.469353,-1332.370696,-148.041188,-9959.241474
864.469672,-3404.947333,-444.123565,-10418.898773
864.469992,-1998.556043,-1406.391290,-10112.460574
864.470312,666.185348,-1702.473667,-9806.022374
864.470632,3256.906145,-148.041188,-10342.289223
864.470952,3330.926739,1036.288319,-10572.117872
864.471271,2738.761985,2368.659014,-11108.384721
864.471591,1258.350101,1998.556043,-10648.727422
864.471911,222.061783,1184.329507,-10265.679673
864.472231,222.061783,814.226536,-10342.289223
864.472551,-1036.288319,-962.267725,-10189.070123
864.472871,-1480.411884,-2368.659014,-9652.803275
864.473190,-1554.432478,-2146.597232,-10189.070123
864.473510,-1258.350101,-1406.391290,-10112.460574
864.473830,-2146.597232,0.000000,-9806.022374
864.474150,-296.082377,-518.144159,-10035.851024
864.474470,518.144159,-1184.329507,-9806.022374
864.474789,1036.288319,0.000000,-9959.241474
864.475109,1628.453072,592.164754,-10572.117872
864.475429,1628.453072,1406.391290,-10495.508323
864.475749,592.164754,1998.556043,-10648.727422
864.476069,148.041188,1924.535449,-10189.070123
864.476389,666.185348,-222.061783,-9806.022374
864.476708,1924.535449,-1850.514855,-10495.508323
864.477028,0.000000,-1184.329507,-10189.070123
864.477348,-2294.638420,-1998.556043,-10648.727422
864.477668,-2220.617826,-2516.700203,-9806.022374
864.477988,-2072.576638,-1480.411884,-9576.193725
864.478307,-296.082377,-296.082377,-10265.679673
864.478627,2368.659014,74.020594,-10265.679673
864.478947,4219.173869,0.000000,-10418.898773
864.479267,4071.132681,1332.370696,-10418.898773
864.479587,1850.514855,1850.514855,-9652.803275
864.479907,888.247130,592.164754,-10035.851024
864.480226,1924.535449,-814.226536,-9806.022374
864.480546,1480.411884,-1332.370696,-10035.851024
864.480866,222.061783,296.082377,-9806.022374
864.481186,-1776.494261,-740.205942,-9652.803275
864.481506,-1036.288319,148.041188,-9806.022374
864.481825,-666.185348,296.082377,-9959.241474
864.482145,296.082377,-518.144159,-10112.460574
864.482465,2886.803174,-1776.494261,-9422.974625
864.482785,3108.864956,-1036.288319,-9806.022374
864.483105,2294.638420,-148.041188,-9806.022374
864.483425,2738.761985,518.144159,-10495.508323
864.483744,0.000000,666.185348,-10342.289223
864.484064,-1776.494261,740.205942,-10189.070123
864.484384,-1554.432478,1998.556043,-10189.070123
864.484704,-370.102971,2368.659014,-10495.508323
864.485024,1110.308913,1332.370696,-10189.070123
864.485343,1628.453072,0.000000,-10725.336972
864.485663,1036.288319,-518.144159,-10112.460574
864.485983,-740.205942,-2294.638420,-9576.193725
864.486303,-518.144159,-1258.350101,-9576.193725
864.486623,222.061783,1332.370696,-10418.898773
864.486943,1628.453072,4367.215058,-10801.946522
864.487262,2812.782580,2368.659014,-10648.727422
864.487582,2812.782580,740.205942,-11031.775171
864.487902,1036.288319,666.185348,-10035.851024
864.488222,-1184.329507,1110.308913,-10725.336972
864.488542,-666.185348,-296.082377,-10035.851024
864.488861,-296.082377,296.082377,-9806.022374
864.489181,-1702.473667,962.267725,-9882.631924
864.489501,-2220.617826,-1554.432478,-10189.070123
864.489821,-2590.720797,-1258.350101,-10035.851024
864.490141,-2072.576638,-370.102971,-9806.022374
864.490461,74.020594,444.123565,-9422.974625
864.490780,2368.659014,2516.700203,-9499.584175
864.491100,2590.720797,444.123565,-9882.631924
864.491420,1258.350101,-1406.391290,-10265.679673
864.491740,1406.391290,-740.205942,-10265.679673
864.492060,-1406.391290,1850.514855,-10189.070123
864.492379,-2146.597232,3701.029710,-9729.412825
864.492699,-1036.288319,3701.029710,-10648.727422
864.493019,740.205942,1036.288319,-9576.193725
864.493339,1554.432478,-740.205942,-9959.241474
864.493659,1480.411884,-2146.597232,-9806.022374
864.493979,1702.473667,-2072.576638,-9806.022374
864.494298,518.144159,-222.061783,-10265.679673
864.494618,0.000000,148.041188,-9882.631924
864.494938,666.185348,1184.329507,-9959.241474
864.495258,0.000000,1924.535449,-9882.631924
864.495578,740.205942,2146.597232,-9959.241474
864.495897,2146.597232,2812.782580,-10572.117872
864.496217,2886.803174,2368.659014,-10648.727422
864.496537,3701.029710,1184.329507,-9882.631924
864.496857,2146.597232,-1110.308913,-10035.851024
864.497177,592.164754,-2960.823768,-9806.022374
864.497497,-296.082377,-2738.761985,-9576.193725
864.497816,-148.041188,-1332.370696,-9729.412825
864.498136,-1406.391290,2072.576638,-9806.022374
864.498456,-1332.370696,2220.617826,-10265.679673
864.498776,2738.761985,2368.659014,-10418.898773
864.499096,5773.606348,2146.597232,-10418.898773
864.499415,4885.359217,888.247130,-10265.679673
864.499735,3182.885551,-592.164754,-10342.289223
864.500055,222.061783,518.144159,-9959.241474
864.500375,-518.144159,1554.432478,-9959.241474
864.500695,740.205942,666.185348,-10342.289223
864.501015,888.247130,518.144159,-10035.851024
864.501334,-1258.350101,-1110.308913,-10112.460574
864.501654,0.000000,-814.226536,-9806.022374
864.501974,-296.082377,-740.205942,-9729.412825
864.502294,296.082377,74.020594,-10035.851024
864.502614,2368.659014,-814.226536,-9729.412825
864.502933,2146.597232,-592.164754,-10265.679673
864.503253,1406.391290,148.041188,-10035.851024
864.503573,-148.041188,-222.061783,-9959.241474
864.503893,-518.144159,296.082377,-9959.241474
864.504213,-1036.288319,2442.679609,-10035.851024
864.504533,-1036.288319,2368.659014,-10112.460574
864.504852,592.164754,148.041188,-10265.679673
864.505172,518.144159,-2368.659014,-10189.070123
864.505492,-296.082377,-3034.844362,-10112.460574
864.505812,-1776.494261,-2664.741391,-9806.022374
864.506132,-2368.659014,-1036.288319,-9729.412825
864.506451,-2368.659014,2220.617826,-9806.022374
864.506771,-296.082377,3330.926739,-10725.336972
864.507091,1998.556043,2664.741391,-10725.336972
864.507411,2516.700203,814.226536,-10725.336972
864.507731,2220.617826,-370.102971,-10342.289223
864.508051,1554.432478,-592.164754,-9882.631924
864.508370,-1702.473667,0.000000,-10112.460574
864.508690,-2812.782580,0.000000,-9959.241474
864.509010,-3034.844362,-666.185348,-9882.631924
864.509330,-2812.782580,-1184.329507,-9269.755526
864.509650,-1332.370696,-444.123565,-10112.460574
864.509969,-888.247130,-518.144159,-10265.679673
864.510289,-666.185348,-222.061783,-9959.241474
864.510609,740.205942,814.226536,-9882.631924
864.510929,3108.864956,-148.041188,-9729.412825
864.511249,2960.823768,0.000000,-10189.070123
864.511569,-148.041188,592.164754,-10035.851024
864.511888,-444.123565,1110.308913,-10265.679673
864.512208,-518.144159,1332.370696,-11338.213370
864.512528,0.000000,-296.082377,-10265.679673
864.512848,1480.411884,-814.226536,-9882.631924
864.513168,222.061783,-1480.411884,-9806.022374
864.513487,2072.576638,-1036.288319,-9806.022374
864.513807,1998.556043,0.000000,-10495.508323
864.514127,740.205942,962.267725,-10112.460574
864.514447,444.123565,1702.473667,-10112.460574
864.514767,518.144159,0.000000,-10035.851024
864.515087,2516.700203,740.205942,-9806.022374
864.515406,1776.494261,1554.432478,-10112.460574
864.515726,1998.556043,2664.741391,-10878.556072
864.516046,3552.988522,888.247130,-9806.022374
864.516366,2812.782580,370.102971,-10112.460574
864.516686,1554.432478,-666.185348,-9269.755526
864.517005,1924.535449,0.000000,-10112.460574
864.517325,1554.432478,740.205942,-9806.022374
864.517645,814.226536,1776.494261,-10112.460574
864.517965,444.123565,1406.391290,-9806.022374
864.518285,-814.226536,2220.617826,-9729.412825
864.518605,0.000000,1406.391290,-10495.508323
864.518924,2590.720797,444.123565,-10495.508323
864.519244,3330.926739,1850.514855,-10035.851024
864.519564,2368.659014,888.247130,-9959.241474
864.519884,-666.185348,296.082377,-10189.070123
864.520204,-2294.638420,518.144159,-9422.974625
864.520523,-2738.761985,1924.535449,-10035.851024
864.520843,1110.308913,1258.350101,-9806.022374
864.521163,1998.556043,-370.102971,-9959.241474
864.521483,2368.659014,0.000000,-10495.508323
864.521803,592.164754,0.000000,-9882.631924
864.522123,-148.041188,222.061783,-10801.946522
864.522442,0.000000,296.082377,-10265.679673
864.522762,-592.164754,666.185348,-10112.460574
864.523082,-1332.370696,592.164754,-9806.022374
864.523402,-888.247130,518.144159,-9959.241474
864.523722,-296.082377,740.205942,-10189.070123
864.524041,1258.350101,296.082377,-10342.289223
864.524361,888.247130,444.123565,-9806.022374
864.524681,518.144159,-1036.288319,-9806.022374
864.525001,2590.720797,-1480.411884,-9806.022374
864.525321,1480.411884,0.000000,-10189.070123
864.525641,962.267725,518.144159,-10265.679673
864.525960,-518.144159,740.205942,-9959.241474
864.526280,-2368.659014,2146.597232,-10189.070123
864.526600,-444.123565,2368.659014,-9576.193725
864.526920,74.020594,1554.432478,-10342.289223
864.527240,74.020594,148.041188,-9959.241474
864.527559,666.185348,74.020594,-9959.241474
864.527879,1036.288319,1776.494261,-9806.022374
864.528199,888.247130,0.000000,-9806.022374
864.528519,1554.432478,-296.082377,-9806.022374
864.528839,1184.329507,-1184.329507,-9806.022374
864.529159,888.247130,-1406.391290,-9959.241474
864.529478,-1332.370696,-888.247130,-10112.460574
864.529798,-1702.473667,0.000000,-10495.508323
864.530118,-1110.308913,370.102971,-10112.460574
864.530438,148.041188,2368.659014,-10572.117872
864.530758,518.144159,1184.329507,-10955.165621
864.531077,1110.308913,-740.205942,-10112.460574
864.531397,1628.453072,-518.144159,-9882.631924
864.531717,1554.432478,740.205942,-10648.727422
864.532037,1998.556043,1258.350101,-11414.822920
864.532357,-370.102971,1998.556043,-10495.508323
864.532677,3034.844362,2442.679609,-9959.241474
864.532996,518.144159,666.185348,-10648.727422
864.533316,2960.823768,-1628.453072,-9346.365076
864.533636,962.267725,-148.041188,-10572.117872
864.533956,-740.205942,518.144159,-10725.336972
864.534276,592.164754,1924.535449,-9882.631924
864.534595,-1110.308913,1480.411884,-10189.070123
864.534915,74.020594,-888.247130,-8733.488677
864.535235,592.164754,-1406.391290,-9729.412825
864.535555,1554.432478,-1702.473667,-9576.193725
864.535875,1924.535449,740.205942,-10112.460574
864.536195,2368.659014,2664.741391,-10265.679673
864.536514,2294.638420,1554.432478,-9729.412825
864.536834,1554.432478,0.000000,-10112.460574
864.537154,2368.659014,-1776.494261,-9499.584175
864.537474,666.185348,-1036.288319,-10112.460574
864.537794,-1776.494261,1406.391290,-9806.022374
864.538113,-1924.535449,2220.617826,-9806.022374
864.538433,-1332.370696,1702.473667,-9882.631924
864.538753,1036.288319,-222.061783,-9652.803275
864.539073,2072.576638,-2072.576638,-9499.584175
864.539393,1332.370696,-888.247130,-10112.460574
864.539713,296.082377,1332.370696,-10265.679673
864.540032,592.164754,2220.617826,-11031.775171
864.540352,0.000000,1554.432478,-10342.289223
864.540672,-1184.329507,-518.144159,-9652.803275
864.540992,-1776.494261,-1258.350101,-10035.851024
864.541312,-1110.308913,-1480.411884,-9729.412825
864.541631,1776.494261,1258.350101,-11108.384721
864.541951,888.247130,1998.556043,-10572.117872
864.542271,1850.514855,2146.597232,-10955.165621
864.542591,888.247130,888.247130,-9806.022374
864.542911,222.061783,-592.164754,-10342.289223
864.543231,370.102971,-444.123565,-9882.631924
864.543550,0.000000,296.082377,-9882.631924
864.543870,-444.123565,370.102971,-10342.289223
864.544190,-518.144159,444.123565,-9882.631924
864.544510,-1332.370696,814.226536,-10189.070123
864.544830,370.102971,296.082377,-9959.241474
864.545149,2368.659014,0.000000,-9959.241474
864.545469,666.185348,0.000000,-9959.241474
864.545789,1036.288319,0.000000,-9806.022374
864.546109,1258.350101,-296.082377,-9806.022374
864.546429,370.102971,-666.185348,-9346.365076
864.546749,740.205942,-740.205942,-9193.145976
864.547068,1628.453072,-296.082377,-9959.241474
864.547388,1924.535449,518.144159,-10189.070123
864.547708,2072.576638,1332.370696,-9652.803275
864.548028,592.164754,1924.535449,-10189.070123
864.548348,-740.205942,1850.514855,-10035.851024
864.548667,-740.205942,740.205942,-9806.022374
864.548987,-740.205942,-1850.514855,-9882.631924
864.549307,-666.185348,-2886.803174,-8963.317327
864.549627,-148.041188,-370.102971,-9959.241474
864.549947,-1110.308913,1184.329507,-10572.117872
864.550267,-296.082377,1776.494261,-10342.289223
864.550586,518.144159,2072.576638,-9806.022374
864.550906,962.267725,148.041188,-10648.727422
864.551226,814.226536,-518.144159,-9959.241474
864.551546,0.000000,-592.164754,-10495.508323
864.551866,222.061783,666.185348,-10495.508323
864.552185,518.144159,740.205942,-10572.117872
864.552505,222.061783,814.226536,-10418.898773
864.552825,-740.205942,0.000000,-10112.460574
864.553145,-370.102971,-592.164754,-10035.851024
864.553465,518.144159,148.041188,-8580.269578
864.553785,1184.329507,1554.432478,-10342.289223
864.554104,1184.329507,1702.473667,-10189.070123
864.554424,-148.041188,1110.308913,-9806.022374
864.554744,1554.432478,0.000000,-9959.241474
864.555064,2442.679609,370.102971,-10265.679673
864.555384,1924.535449,1628.453072,-10112.460574
864.555703,1332.370696,2220.617826,-10265.679673
864.556023,814.226536,1406.391290,-10418.898773
864.556343,740.205942,1628.453072,-9806.022374
864.556663,0.000000,1184.329507,-9729.412825
864.556983,-740.205942,-222.061783,-9806.022374
864.557303,888.247130,-740.205942,-9729.412825
864.557622,2442.679609,-592.164754,-10035.851024
864.557942,1776.494261,-518.144159,-9576.193725
864.558262,666.185348,1110.308913,-9882.631924
864.558582,-296.082377,1924.535449,-9959.241474
864.558902,0.000000,3182.885551,-10342.289223
864.559221,1776.494261,4737.318029,-10035.851024
864.559541,3034.844362,2294.638420,-9882.631924
864.559861,3627.009116,-1036.288319,-9729.412825
864.560181,3182.885551,-3552.988522,-9652.803275
864.560501,1850.514855,-4293.194464,-9652.803275
864.560821,0.000000,-1036.288319,-9652.803275
864.561140,666.185348,3330.926739,-10955.165621
864.561460,1480.411884,3404.947333,-10572.117872
864.561780,74.020594,2146.597232,-11031.775171
864.562100,-2072.576638,74.020594,-10112.460574
864.562420,-1332.370696,-1554.432478,-10035.851024
864.562740,-592.164754,-1554.432478,-9882.631924
864.563060,592.164754,-740.205942,-10418.898773
864.563380,1110.308913,222.061783,-10495.508323
864.563699,814.226536,1406.391290,-10725.336972
864.564019,592.164754,1480.411884,-10112.460574
864.564339,-148.041188,2294.638420,-10189.070123
864.564659,0.000000,1998.556043,-10265.679673
864.564979,-148.041188,1480.411884,-10189.070123
864.565299,1110.308913,-444.123565,-10189.070123
864.565619,370.102971,-2220.617826,-9959.241474
864.565939,-296.082377,-2812.782580,-9576.193725
864.566259,0.000000,-1406.391290,-11644.651570
864.566579,-888.247130,1110.308913,-9959.241474
864.566898,-1110.308913,2590.720797,-9882.631924
864.567218,-1110.308913,1554.432478,-10189.070123
864.567538,0.000000,-296.082377,-9729.412825
864.567858,222.061783,-1406.391290,-9422.974625
864.568178,0.000000,-1776.494261,-10265.679673
864.568498,1110.308913,-1110.308913,-9729.412825
864.568818,740.205942,740.205942,-10035.851024
864.569138,0.000000,444.123565,-10035.851024
864.569458,740.205942,-592.164754,-9652.803275
864.569777,518.144159,-1332.370696,-10265.679673
864.570097,-814.226536,-1924.535449,-9959.241474
864.570417,-518.144159,-962.267725,-10112.460574
864.570737,0.000000,888.247130,-10342.289223
864.571057,296.082377,888.247130,-10955.165621
864.571377,518.144159,-1110.308913,-10112.460574
864.571697,740.205942,-1702.473667,-10189.070123
864.572017,1258.350101,-1924.535449,-10265.679673
864.572337,740.205942,666.185348,-11108.384721
864.572657,-518.144159,2960.823768,-10801.946522
864.572976,-1776.494261,2368.659014,-10572.117872
864.573296,370.102971,444.123565,-10495.508323
864.573616,2886.803174,-1628.453072,-10878.556072
864.573936,3034.844362,-1184.329507,-10265.679673
864.574256,74.020594,2516.700203,-10878.556072
864.574576,-1184.329507,5107.421000,-10878.556072
864.574896,962.267725,5921.647536,-10342.289223
864.575216,1628.453072,3627.009116,-10495.508323
864.575536,2590.720797,-1406.391290,-9652.803275
864.575856,2220.617826,-4293.194464,-9499.584175
864.576175,2442.679609,-3849.070898,-10189.070123
864.576495,2294.638420,-148.041188,-9116.536426
864.576815,1776.494261,3701.029710,-10342.289223
864.577135,666.185348,5403.503377,-10112.460574
864.577455,1332.370696,2738.761985,-9576.193725
864.577775,1850.514855,-666.185348,-9499.584175
864.578095,2072.576638,-2146.597232,-9346.365076
864.578415,1776.494261,-2072.576638,-9959.241474
864.578735,962.267725,-1480.411884,-9652.803275
864.579054,592.164754,-222.061783,-9806.022374
864.579374,222.061783,1036.288319,-9652.803275
864.579694,370.102971,666.185348,-9806.022374
864.580014,962.267725,814.226536,-10342.289223
864.580334,0.000000,1406.391290,-9729.412825
864.580654,-1110.308913,518.144159,-9882.631924
864.580974,-222.061783,0.000000,-9422.974625
864.581294,1184.329507,-740.205942,-9882.631924
864.581614,592.164754,-1406.391290,-9729.412825
864.581934,-222.061783,-1110.308913,-10189.070123
864.582253,-1554.432478,740.205942,-10495.508323
864.582573,-1184.329507,2368.659014,-10189.070123
864.582893,-1998.556043,2738.761985,-10418.898773
864.583213,-2368.659014,2220.617826,-10265.679673
864.583533,-296.082377,222.061783,-9806.022374
864.583853,-888.247130,-1702.473667,-9959.241474
864.584173,0.000000,-1406.391290,-10495.508323
864.584493,740.205942,1036.288319,-10801.946522
864.584813,666.185348,1850.514855,-9806.022374
864.585132,962.267725,1998.556043,-9959.241474
864.585452,1332.370696,814.226536,-10648.727422
864.585772,1110.308913,0.000000,-9882.631924
864.586092,962.267725,-222.061783,-10265.679673
864.586412,1110.308913,-444.123565,-9806.022374
864.586732,-148.041188,-370.102971,-10035.851024
864.587052,-962.267725,-1184.329507,-10112.460574
864.587372,-1036.288319,-2146.597232,-9346.365076
864.587692,0.000000,-370.102971,-10265.679673
864.588012,148.041188,-444.123565,-9882.631924
864.588331,-740.205942,962.267725,-10035.851024
864.588651,-888.247130,1258.350101,-10112.460574
864.588971,0.000000,296.082377,-9806.022374
864.589291,222.061783,-1850.514855,-10035.851024
864.589611,1702.473667,-2072.576638,-9806.022374
864.589931,2442.679609,-1406.391290,-9959.241474
864.590251,0.000000,0.000000,-10265.679673
864.590571,370.102971,1850.514855,-10418.898773
864.590891,-222.061783,2220.617826,-10112.460574
864.591211,-1110.308913,1184.329507,-10112.460574
864.591530,148.041188,444.123565,-9882.631924
864.591850,888.247130,148.041188,-10189.070123
864.592170,2072.576638,-370.102971,-10801.946522
864.592490,1998.556043,0.000000,-10342.289223
864.592810,814.226536,-814.226536,-10035.851024
864.593130,-666.185348,-592.164754,-10189.070123
864.593450,-666.185348,-814.226536,-11108.384721
864.593770,1258.350101,888.247130,-10495.508323
864.594090,1628.453072,2664.741391,-10801.946522
864.594409,518.144159,2368.659014,-10189.070123
864.594729,-148.041188,888.247130,-10495.508323
864.595049,-1332.370696,-740.205942,-9806.022374
864.595369,-518.144159,-2294.638420,-9959.241474
864.595689,740.205942,-1850.514855,-10112.460574
864.596009,1554.432478,-740.205942,-10189.070123
864.596329,1110.308913,1924.535449,-10189.070123
864.596649,296.082377,3034.844362,-10955.165621
864.596969,296.082377,3330.926739,-10112.460574
864.597289,0.000000,1036.288319,-9882.631924
864.597608,1036.288319,-518.144159,-10189.070123
864.597928,2072.576638,-2220.617826,-9959.241474
864.598248,2146.597232,-1258.350101,-10495.508323
864.598568,1554.432478,666.185348,-10189.070123
864.598888,962.267725,3775.050304,-10189.070123
864.599208,370.102971,4811.338623,-10035.851024
864.599528,444.123565,2590.720797,-9806.022374
864.599848,1110.308913,814.226536,-9959.241474
864.600168,2294.638420,-1110.308913,-9499.584175
864.600488,2368.659014,-2738.761985,-9729.412825
864.600807,296.082377,-2146.597232,-9346.365076
864.601127,-592.164754,-740.205942,-9346.365076
864.601447,518.144159,518.144159,-10112.460574
864.601767,740.205942,1924.535449,-10495.508323
864.602087,962.267725,2442.679609,-10112.460574
864.602407,-814.226536,2368.659014,-10342.289223
864.602727,-1036.288319,962.267725,-10035.851024
864.603047,222.061783,-592.164754,-9959.241474
864.603367,666.185348,-2220.617826,-9806.022374
864.603686,1406.391290,-3404.947333,-9806.022374
864.604006,1036.288319,-2516.700203,-9346.365076
864.604326,666.185348,0.000000,-10725.336972
864.604646,592.164754,2072.576638,-10725.336972
864.604966,666.185348,2442.679609,-10265.679673
864.605286,-814.226536,2664.741391,-10801.946522
864.605606,740.205942,518.144159,-10265.679673
864.605926,2812.782580,-1480.411884,-10035.851024
864.606246,592.164754,-1258.350101,-9882.631924
864.606566,-222.061783,-1702.473667,-9959.241474
864.606885,0.000000,-740.205942,-10035.851024
864.607205,-1184.329507,0.000000,-9959.241474
864.607525,-370.102971,222.061783,-9959.241474
864.607845,0.000000,1110.308913,-9959.241474
864.608165,-370.102971,296.082377,-9806.022374
864.608485,222.061783,296.082377,-10955.165621
864.608805,148.041188,1554.432478,-10342.289223
864.609125,370.102971,148.041188,-10112.460574
864.609445,1554.432478,-1184.329507,-9806.022374
864.609765,1332.370696,-2072.576638,-9806.022374
864.610084,-296.082377,-518.144159,-9959.241474
864.610404,-1332.370696,888.247130,-10035.851024
864.610724,-740.205942,2368.659014,-10189.070123
864.611044,0.000000,1110.308913,-9959.241474
864.611364,666.185348,0.000000,-10035.851024
864.611684,0.000000,-1924.535449,-10112.460574
864.612004,0.000000,-2738.761985,-11261.603821
864.612324,0.000000,-1998.556043,-9806.022374
864.612644,-370.102971,-370.102971,-10265.679673
864.612963,148.041188,1628.453072,-10418.898773
864.613283,74.020594,1998.556043,-10342.289223
864.613603,1110.308913,740.205942,-11491.432470
864.613923,2738.761985,-296.082377,-10418.898773
864.614243,2072.576638,74.020594,-10418.898773
864.614563,1850.514855,0.000000,-10648.727422
864.614883,1258.350101,-444.123565,-10112.460574
864.615203,-222.061783,1258.350101,-10495.508323
864.615523,0.000000,1998.556043,-11031.775171
864.615843,0.000000,2294.638420,-10112.460574
864.616162,1554.432478,3330.926739,-10725.336972
864.616482,2368.659014,2442.679609,-11031.775171
864.616802,3182.885551,296.082377,-10648.727422
864.617122,2220.617826,-1332.370696,-9652.803275
864.617442,1036.288319,-2368.659014,-9346.365076
864.617762,-296.082377,-1406.391290,-9499.584175
864.618082,740.205942,0.000000,-10112.460574
864.618402,740.205942,1110.308913,-9652.803275
864.618722,518.144159,2590.720797,-10265.679673
864.619042,592.164754,2442.679609,-10418.898773
864.619361,1406.391290,666.185348,-10265.679673
864.619681,1110.308913,-1258.350101,-10265.679673
864.620001,592.164754,-888.247130,-9499.584175
864.620321,148.041188,0.000000,-9806.022374
864.620641,592.164754,1184.329507,-10955.165621
864.620961,592.164754,2516.700203,-9806.022374
864.621281,-148.041188,2294.638420,-9882.631924
864.621601,740.205942,888.247130,-10265.679673
864.621921,2220.617826,222.061783,-10955.165621
864.622240,962.267725,-888.247130,-10801.946522
864.622560,666.185348,-1110.308913,-9806.022374
864.622880,-666.185348,-370.102971,-9806.022374
864.623200,-1110.308913,0.000000,-9729.412825
864.623520,-222.061783,1406.391290,-10035.851024
864.623840,-222.061783,1628.453072,-10418.898773
864.624160,814.226536,1850.514855,-10265.679673
864.624480,74.020594,962.267725,-10725.336972
864.624800,-222.061783,-1036.288319,-9959.241474
864.625120,-666.185348,-1776.494261,-9729.412825
864.625439,-592.164754,-814.226536,-10189.070123
864.625759,962.267725,-814.226536,-9882.631924
864.626079,1850.514855,1110.308913,-10035.851024
864.626399,1776.494261,1332.370696,-10418.898773
864.626719,296.082377,1480.411884,-10112.460574
864.627039,148.041188,296.082377,-9882.631924
864.627359,0.000000,-814.226536,-9576.193725
864.627679,962.267725,-2516.700203,-9652.803275
864.627999,1554.432478,-3552.988522,-9652.803275
864.628318,0.000000,-2220.617826,-10189.070123
864.628638,-1184.329507,-370.102971,-9806.022374
864.628958,-888.247130,1776.494261,-10648.727422
864.629278,-1332.370696,2072.576638,-9806.022374
864.629598,0.000000,1406.391290,-10342.289223
864.629918,962.267725,-592.164754,-10495.508323
864.630238,1998.556043,-1776.494261,-10035.851024
864.630558,740.205942,-1036.288319,-10572.117872
864.630878,-296.082377,74.020594,-10725.336972
864.631198,-962.267725,1332.370696,-10418.898773
864.631517,-666.185348,2072.576638,-10495.508323
864.631837,0.000000,1036.288319,-10418.898773
864.632157,-666.185348,-74.020594,-10189.070123
864.632477,-740.205942,-1406.391290,-9959.241474
864.632797,592.164754,-2220.617826,-10265.679673
864.633117,1036.288319,-962.267725,-10265.679673
864.633437,1332.370696,296.082377,-10418.898773
864.633757,962.267725,222.061783,-10112.460574
864.634077,518.144159,444.123565,-10189.070123
864.634397,-888.247130,0.000000,-9806.022374
864.634716,-1184.329507,444.123565,-9806.022374
864.635036,0.000000,518.144159,-10035.851024
864.635356,0.000000,592.164754,-9882.631924
864.635676,962.267725,-962.267725,-10035.851024
864.635996,1184.329507,-2220.617826,-9422.974625
864.636316,2294.638420,-1110.308913,-9039.926876
864.636636,1702.473667,0.000000,-9729.412825
864.636956,2442.679609,2442.679609,-10495.508323
864.637276,1850.514855,3108.864956,-9959.241474
864.637595,888.247130,2294.638420,-9806.022374
864.637915,1406.391290,-814.226536,-9652.803275
864.638235,1184.329507,-1406.391290,-9576.193725
864.638555,1184.329507,-592.164754,-10035.851024
864.638875,1554.432478,0.000000,-10495.508323
864.639195,666.185348,2738.761985,-10342.289223
864.639515,1184.329507,4145.153275,-10112.460574
864.639835,1110.308913,3627.009116,-10572.117872
864.640155,592.164754,1184.329507,-9959.241474
864.640475,-1110.308913,-666.185348,-9806.022374
864.640794,3627.009116,-1184.329507,-10189.070123
864.641114,2516.700203,-296.082377,-10725.336972
864.641434,-666.185348,1184.329507,-10418.898773
864.641754,148.041188,2664.741391,-10112.460574
864.642074,2886.803174,2960.823768,-10418.898773
864.642394,2072.576638,2220.617826,-10265.679673
864.642714,1702.473667,1184.329507,-10495.508323
864.643034,1258.350101,222.061783,-9959.241474
864.643354,-740.205942,-370.102971,-9116.536426
864.643674,-1480.411884,-370.102971,-9576.193725
864.643993,-148.041188,-1184.329507,-9346.365076
864.644313,1258.350101,-296.082377,-9806.022374
864.644633,2072.576638,814.226536,-9882.631924
864.644953,2590.720797,2072.576638,-10725.336972
864.645273,-222.061783,2516.700203,-10189.070123
864.645593,-2146.597232,1850.514855,-9806.022374
864.645913,-2220.617826,0.000000,-10035.851024
864.646233,-296.082377,-1036.288319,-9652.803275
864.646553,740.205942,-2072.576638,-10189.070123
864.646872,222.061783,-962.267725,-10418.898773
864.647192,-888.247130,1332.370696,-10342.289223
864.647512,-1332.370696,2812.782580,-10418.898773
864.647832,444.123565,2812.782580,-10342.289223
864.648152,2072.576638,2368.659014,-10955.165621
864.648472,1332.370696,1110.308913,-10035.851024
864.648792,-222.061783,-814.226536,-10572.117872
864.649112,-2220.617826,-1184.329507,-9882.631924
864.649432,-2368.659014,-1258.350101,-9576.193725
864.649752,-2146.597232,222.061783,-10035.851024
864.650071,-1406.391290,444.123565,-9729.412825
864.650391,814.226536,666.185348,-10418.898773
864.650711,592.164754,148.041188,-9959.241474
864.651031,444.123565,0.000000,-10265.679673
864.651351,-148.041188,222.061783,-9959.241474
864.651671,0.000000,-222.061783,-9576.193725
864.651991,0.000000,-1184.329507,-9729.412825
864.652311,-444.123565,-2072.576638,-9882.631924
864.652631,-148.041188,-1850.514855,-9729.412825
864.652951,1258.350101,-518.144159,-9729.412825
864.653270,1850.514855,1332.370696,-9039.926876
864.653590,1258.350101,1332.370696,-10112.460574
864.653910,666.185348,444.123565,-9882.631924
864.654230,888.247130,-814.226536,-10265.679673
864.654550,1110.308913,-1924.535449,-9806.022374
864.654870,888.247130,-1406.391290,-9806.022374
864.655190,0.000000,-888.247130,-10265.679673
864.655510,-148.041188,814.226536,-10112.460574
864.655830,-148.041188,1110.308913,-10189.070123
864.656149,1332.370696,2294.638420,-12027.699319
864.656469,1776.494261,2220.617826,-10495.508323
864.656789,3034.844362,2146.597232,-10495.508323
864.657109,3849.070898,370.102971,-10878.556072
864.657429,1702.473667,444.123565,-9652.803275
864.657749,-592.164754,0.000000,-10801.946522
864.658069,-444.123565,444.123565,-9499.584175
864.658389,2072.576638,888.247130,-10342.289223
864.658709,3182.885551,1332.370696,-10112.460574
864.659029,3182.885551,814.226536,-9806.022374
864.659348,1628.453072,1332.370696,-9652.803275
864.659668,-370.102971,1036.288319,-10265.679673
864.659988,444.123565,-296.082377,-9269.755526
864.660308,1258.350101,-518.144159,-9652.803275
864.660628,1110.308913,-666.185348,-9499.584175
864.660948,1110.308913,0.000000,-9729.412825
864.661268,1406.391290,-444.123565,-10035.851024
864.661588,74.020594,1628.453072,-9346.365076
864.661908,-740.205942,1702.473667,-9959.241474
864.662227,888.247130,814.226536,-9499.584175
864.662547,740.205942,-518.144159,-9882.631924
864.662867,1554.432478,-666.185348,-10189.070123
864.663187,666.185348,-592.164754,-9959.241474
864.663507,222.061783,518.144159,-9652.803275
864.663827,740.205942,1554.432478,-9959.241474
864.664147,1924.535449,2220.617826,-10342.289223
864.664467,1628.453072,2220.617826,-10725.336972
864.664787,518.144159,666.185348,-10418.898773
864.665107,222.061783,-814.226536,-10418.898773
864.665426,-1998.556043,-370.102971,-10265.679673
864.665746,-2590.720797,296.082377,-9882.631924
864.666066,-1850.514855,814.226536,-10112.460574
864.666386,-1110.308913,888.247130,-10495.508323
864.666706,-740.205942,962.267725,-10189.070123
864.667026,-814.226536,1628.453072,-10801.946522
864.667346,296.082377,1850.514855,-10418.898773
864.667666,-592.164754,1184.329507,-10112.460574
864.667986,74.020594,74.020594,-10189.070123
864.668305,1998.556043,-888.247130,-10035.851024
864.668625,2368.659014,-2072.576638,-9882.631924
864.668945,1998.556043,-666.185348,-9269.755526
864.669265,888.247130,814.226536,-10035.851024
864.669585,-666.185348,2220.617826,-9882.631924
864.669905,-444.123565,1554.432478,-9806.022374
864.670225,296.082377,-296.082377,-9806.022374
864.670545,666.185348,-2072.576638,-9882.631924
864.670865,-222.061783,-1998.556043,-10342.289223
864.671185,-740.205942,-1258.350101,-9806.022374
864.671504,-1702.473667,1332.370696,-9652.803275
864.671824,-1480.411884,2960.823768,-10035.851024
864.672144,-1554.432478,1998.556043,-9729.412825
864.672464,1110.308913,-592.164754,-9729.412825
864.672784,1850.514855,-2664.741391,-9882.631924
864.673104,2738.761985,-2368.659014,-10035.851024
864.673424,1258.350101,-740.205942,-9652.803275
864.673744,-222.061783,1628.453072,-10265.679673
864.674064,-1258.350101,2220.617826,-9806.022374
864.674383,370.102971,1554.432478,-10648.727422
864.674703,1406.391290,296.082377,-10495.508323
864.675023,2294.638420,0.000000,-10495.508323
864.675343,1110.308913,222.061783,-10418.898773
864.675663,0.000000,1036.288319,-10418.898773
864.675983,-74.020594,592.164754,-10189.070123
864.676303,222.061783,-518.144159,-10495.508323
864.676623,592.164754,-814.226536,-10342.289223
864.676943,0.000000,296.082377,-10418.898773
864.677262,1332.370696,2072.576638,-11261.603821
864.677582,0.000000,3034.844362,-10189.070123
864.677902,370.102971,2664.741391,-9882.631924
864.678222,1776.494261,296.082377,-10265.679673
864.678542,3330.926739,-1998.556043,-10189.070123
864.678862,3182.885551,-2960.823768,-9882.631924
864.679182,2368.659014,-2812.782580,-9806.022374
864.679502,2072.576638,0.000000,-10035.851024
864.679822,962.267725,2368.659014,-10035.851024
864.680142,-888.247130,3330.926739,-10112.460574
864.680461,74.020594,2146.597232,-9576.193725
864.680781,370.102971,148.041188,-9959.241474
864.681101,1036.288319,-1850.514855,-9882.631924
864.681421,1776.494261,-1776.494261,-9729.412825
864.681741,74.020594,-1036.288319,-9729.412825
864.682061,-1480.411884,1702.473667,-9882.631924
864.682381,-518.144159,2368.659014,-9729.412825
864.682701,1110.308913,2072.576638,-10725.336972
864.683021,1776.494261,888.247130,-9959.241474
864.683340,1480.411884,-666.185348,-10035.851024
864.683660,1702.473667,-1258.350101,-9882.631924
864.683980,1480.411884,0.000000,-9806.022374
864.684300,0.000000,0.000000,-10265.679673
864.684620,1332.370696,1628.453072,-9806.022374
864.684940,962.267725,2516.700203,-10648.727422
864.685260,962.267725,2368.659014,-10801.946522
864.685580,-444.123565,1406.391290,-10189.070123
864.685900,-592.164754,888.247130,-9959.241474
864.686219,1332.370696,-222.061783,-9806.022374
864.686539,3108.864956,-740.205942,-10189.070123
864.686859,2738.761985,-1258.350101,-10495.508323
864.687179,1628.453072,-296.082377,-10342.289223
864.687499,-518.144159,1036.288319,-10725.336972
864.687819,-1702.473667,1332.370696,-10112.460574
864.688139,-2886.803174,2516.700203,-10342.289223
864.688459,0.000000,1554.432478,-10265.679673
864.688779,2516.700203,370.102971,-10495.508323
864.689099,3034.844362,814.226536,-10878.556072
864.689418,1628.453072,222.061783,-10342.289223
864.689738,0.000000,-148.041188,-9882.631924
864.690058,-1184.329507,-962.267725,-9346.365076
864.690378,-74.020594,-1406.391290,-9729.412825
864.690698,74.020594,-1258.350101,-9499.584175
864.691018,-1332.370696,-148.041188,-9806.022374
864.691338,-1998.556043,814.226536,-9729.412825
864.691658,-2146.597232,1184.329507,-9882.631924
864.691978,-3478.967927,592.164754,-9806.022374
864.692297,-3256.906145,-518.144159,-9652.803275
864.692617,-2294.638420,-1406.391290,-9499.584175
864.692937,0.000000,-518.144159,-9729.412825
864.693257,444.123565,-74.020594,-10342.289223
864.693577,518.144159,222.061783,-10035.851024
864.693897,-518.144159,1258.350101,-10035.851024
864.694217,-814.226536,1480.411884,-10112.460574
864.694537,296.082377,1702.473667,-10035.851024
864.694857,1480.411884,592.164754,-10418.898773
864.695177,666.185348,0.000000,-10418.898773
864.695496,0.000000,-370.102971,-10801.946522
864.695816,-814.226536,-592.164754,-10572.117872
864.696136,-1110.308913,0.000000,-10418.898773
864.696456,0.000000,1554.432478,-10955.165621
864.696776,1554.432478,2368.659014,-11108.384721
864.697096,2072.576638,1702.473667,-11031.775171
864.697416,1628.453072,1258.350101,-10418.898773
864.697736,1258.350101,296.082377,-11261.603821
864.698056,74.020594,-1184.329507,-10418.898773
864.698375,-222.061783,-1702.473667,-10189.070123
864.698695,1184.329507,222.061783,-9959.241474
864.699015,2812.782580,2368.659014,-9959.241474
864.699335,2590.720797,3923.091493,-10801.946522
864.699655,2516.700203,3034.844362,-10035.851024
864.699975,1924.535449,1036.288319,-8963.317327
864.700295,740.205942,-1480.411884,-9806.022374
864.700615,2146.597232,-2516.700203,-8886.707777
864.700935,2368.659014,-2960.823768,-9346.365076
864.701254,2738.761985,-1036.288319,-9346.365076
864.701574,814.226536,1110.308913,-9806.022374
864.701894,0.000000,1776.494261,-9346.365076
864.702214,-592.164754,2442.679609,-9116.536426
864.702534,-814.226536,666.185348,-9576.193725
864.702854,666.185348,-666.185348,-9269.755526
864.703174,1110.308913,-1998.556043,-9806.022374
864.703494,1702.473667,-1258.350101,-9806.022374
864.703814,0.000000,-666.185348,-9806.022374
864.704134,-740.205942,518.144159,-10035.851024
864.704453,-370.102971,1406.391290,-10342.289223
864.704773,666.185348,1036.288319,-10035.851024
864.705093,1036.288319,296.082377,-10648.727422
864.705413,74.020594,0.000000,-10648.727422
864.705733,222.061783,0.000000,-10955.165621
864.706053,-296.082377,148.041188,-10189.070123
864.706373,-518.144159,222.061783,-10495.508323
864.706693,-370.102971,444.123565,-10955.165621
864.707013,-148.041188,666.185348,-11031.775171
864.707332,814.226536,1184.329507,-11261.603821
864.707652,1702.473667,1554.432478,-11338.213370
864.707972,518.144159,1924.535449,-10878.556072
864.708292,-888.247130,1554.432478,-10725.336972
864.708612,-148.041188,0.000000,-10801.946522
864.708932,1258.350101,-1258.350101,-10495.508323
864.709252,1998.556043,-1628.453072,-9729.412825
864.709572,1110.308913,-444.123565,-10342.289223
864.709892,444.123565,1184.329507,-9806.022374
864.710211,888.247130,1924.535449,-9039.926876
864.710531,444.123565,1332.370696,-9499.584175
864.710851,444.123565,-740.205942,-9729.412825
864.711171,888.247130,-2516.700203,-9346.365076
864.711491,0.000000,-3108.864956,-9652.803275
864.711811,1480.411884,-666.185348,-9806.022374
864.712131,666.185348,1406.391290,-9652.803275
864.712451,-222.061783,2960.823768,-9959.241474
864.712771,-888.247130,2442.679609,-9806.022374
864.713091,-1480.411884,1554.432478,-10112.460574
864.713410,-1332.370696,-592.164754,-9422.974625
864.713730,-370.102971,-1924.535449,-9959.241474
864.714050,962.267725,-3330.926739,-9269.755526
864.714370,1110.308913,-2220.617826,-9729.412825
864.714690,1406.391290,-1554.432478,-10112.460574
864.715010,814.226536,1036.288319,-10189.070123
864.715330,370.102971,2590.720797,-11261.603821
864.715650,666.185348,2960.823768,-11108.384721
864.715970,592.164754,2738.761985,-10189.070123
864.716289,-1184.329507,74.020594,-10418.898773
864.716609,-222.061783,-1924.535449,-10035.851024
864.716929,1110.308913,-2220.617826,-10495.508323
864.717249,1110.308913,-962.267725,-10648.727422
864.717569,296.082377,518.144159,-10648.727422
864.717889,740.205942,1850.514855,-10418.898773
864.718209,740.205942,3034.844362,-10342.289223
864.718529,740.205942,2220.617826,-10648.727422
864.718849,0.000000,1480.411884,-10189.070123
864.719169,1628.453072,0.000000,-10112.460574
864.719488,2072.576638,-1406.391290,-9806.022374
864.719808,2368.659014,-666.185348,-9806.022374
864.720128,1332.370696,888.247130,-9652.803275
864.720448,74.020594,1998.556043,-9652.803275
864.720768,740.205942,2146.597232,-9806.022374
864.721088,1554.432478,1036.288319,-9499.584175
864.721408,1702.473667,-666.185348,-9346.365076
864.721728,2072.576638,-1036.288319,-9422.974625
864.722048,1110.308913,-814.226536,-9652.803275
864.722367,-518.144159,-370.102971,-9499.584175
864.722687,-444.123565,74.020594,-9806.022374
864.723007,1184.329507,222.061783,-9806.022374
864.723327,1850.514855,1258.350101,-10189.070123
864.723647,1480.411884,1702.473667,-10342.289223
864.723967,592.164754,1480.411884,-10495.508323
864.724287,740.205942,74.020594,-10265.679673
864.724607,2220.617826,-888.247130,-9959.241474
864.724927,2146.597232,-1628.453072,-10572.117872
864.725246,1258.350101,-962.267725,-9959.241474
864.725566,148.041188,666.185348,-10495.508323
864.725886,370.102971,2812.782580,-11108.384721
864.726206,-444.123565,3404.947333,-10878.556072
864.726526,-1258.350101,3182.885551,-10725.336972
864.726846,-1554.432478,1110.308913,-10418.898773
864.727166,74.020594,-740.205942,-10418.898773
864.727486,296.082377,-1924.535449,-10342.289223
864.727806,-222.061783,-1924.535449,-10265.679673
864.728126,-814.226536,-222.061783,-10112.460574
864.728445,-1998.556043,962.267725,-10035.851024
864.728765,-1110.308913,2294.638420,-9959.241474
864.729085,-370.102971,1702.473667,-9959.241474
864.729405,0.000000,1258.350101,-10342.289223
864.729725,1184.329507,740.205942,-9959.241474
864.730045,1332.370696,-222.061783,-9806.022374
864.730365,888.247130,-1702.473667,-10648.727422
864.730685,-296.082377,-2886.803174,-9652.803275
864.731005,-740.205942,-2812.782580,-9499.584175
864.731324,-740.205942,-1036.288319,-9576.193725
864.731644,-518.144159,1406.391290,-9959.241474
864.731964,-222.061783,2146.597232,-10648.727422
864.732284,-1406.391290,2368.659014,-10112.460574
864.732604,-592.164754,444.123565,-10035.851024
864.732924,1258.350101,-740.205942,-10035.851024
864.733244,1480.411884,-2664.741391,-9882.631924
864.733564,-518.144159,-2442.679609,-9882.631924
864.733884,-814.226536,-1258.350101,-9806.022374
864.734203,518.144159,148.041188,-9882.631924
864.734523,2294.638420,1480.411884,-10112.460574
864.734843,2516.700203,1628.453072,-10495.508323
864.735163,3256.906145,1776.494261,-10495.508323
864.735483,3182.885551,1184.329507,-10648.727422
864.735803,3552.988522,-148.041188,-10725.336972
864.736123,444.123565,-1332.370696,-10725.336972
864.736443,-962.267725,-888.247130,-10035.851024
864.736763,-888.247130,740.205942,-10342.289223
864.737083,-962.267725,2590.720797,-11108.384721
864.737402,-296.082377,3256.906145,-10342.289223
864.737722,666.185348,2368.659014,-10648.727422
864.738042,888.247130,1258.350101,-10495.508323
864.738362,370.102971,0.000000,-10112.460574
864.738682,2294.638420,-1036.288319,-9959.241474
864.739002,2590.720797,-1258.350101,-10265.679673
864.739322,2442.679609,-518.144159,-9806.022374
864.739642,2294.638420,962.267725,-10189.070123
864.739962,2368.659014,2368.659014,-10189.070123
864.740281,1554.432478,3478.967927,-11721.261119
864.740601,888.247130,3034.844362,-10265.679673
864.740921,888.247130,888.247130,-9959.241474
864.741241,666.185348,-148.041188,-9882.631924
864.741561,-222.061783,-888.247130,-9269.755526
864.741881,-888.247130,-296.082377,-9116.536426
864.742201,-2146.597232,1036.288319,-10189.070123
864.742521,-1998.556043,518.144159,-9499.584175
864.742841,-2812.782580,0.000000,-9806.022374
864.743161,148.041188,-2220.617826,-9806.022374
864.743480,0.000000,-1258.350101,-9269.755526
864.743800,1332.370696,0.000000,-9806.022374
864.744120,666.185348,1332.370696,-10418.898773
864.744440,370.102971,2146.597232,-9499.584175
864.744760,-1554.432478,2146.597232,-9882.631924
864.745080,0.000000,740.205942,-10495.508323
864.745400,1850.514855,0.000000,-9729.412825
864.745720,888.247130,-740.205942,-10189.070123
864.746040,962.267725,-370.102971,-9806.022374
864.746359,0.000000,-222.061783,-10112.460574
864.746679,-740.205942,-518.144159,-10495.508323
864.746999,-370.102971,-1480.411884,-9652.803275
864.747319,-1110.308913,-1036.288319,-9806.022374
864.747639,-666.185348,0.000000,-10035.851024
864.747959,-370.102971,962.267725,-10495.508323
864.748279,1184.329507,1110.308913,-10418.898773
864.748599,1406.391290,962.267725,-10572.117872
864.748919,1480.411884,-666.185348,-9959.241474
864.749238,2294.638420,-814.226536,-9959.241474
864.749558,1554.432478,-1480.411884,-10112.460574
864.749878,-370.102971,-814.226536,-10342.289223
864.750198,-296.082377,-222.061783,-10035.851024
864.750518,-814.226536,-592.164754,-9806.022374
864.750838,-814.226536,-1110.308913,-9576.193725
864.751158,370.102971,-1702.473667,-9652.803275
864.751478,1406.391290,-814.226536,-10035.851024
864.751798,2220.617826,296.082377,-10495.508323
864.752118,2220.617826,1702.473667,-10112.460574
864.752437,148.041188,1036.288319,-10035.851024
864.752757,-148.041188,-296.082377,-10189.070123
864.753077,518.144159,-2368.659014,-10035.851024
864.753397,814.226536,-3404.947333,-9729.412825
864.753717,-444.123565,-962.267725,-9882.631924
864.754037,0.000000,1628.453072,-10648.727422
864.754357,-148.041188,3627.009116,-10495.508323
864.754677,444.123565,3701.029710,-10495.508323
864.754997,1036.288319,1998.556043,-10572.117872
864.755316,1628.453072,-1628.453072,-10035.851024
864.755636,1628.453072,-3997.112087,-9806.022374
864.755956,1628.453072,-3256.906145,-11338.213370
864.756276,1628.453072,-2368.659014,-10265.679673
864.756596,1776.494261,962.267725,-10418.898773
864.756916,1850.514855,2960.823768,-10725.336972
864.757236,740.205942,3627.009116,-10572.117872
864.757556,-1110.308913,2294.638420,-11108.384721
864.757876,-444.123565,592.164754,-10112.460574
864.758195,-222.061783,-1036.288319,-10035.851024
864.758515,-666.185348,-2442.679609,-9422.974625
864.758835,962.267725,-3923.091493,-9652.803275
864.759155,1850.514855,-2220.617826,-9652.803275
864.759475,2516.700203,0.000000,-10189.070123
864.759795,1776.494261,2368.659014,-10418.898773
864.760115,1554.432478,3849.070898,-9959.241474
864.760435,1110.308913,3701.029710,-9806.022374
864.760755,1258.350101,3034.844362,-10112.460574
864.761075,1406.391290,0.000000,-9729.412825
864.761394,888.247130,-2516.700203,-9652.803275
864.761714,-962.267725,-2368.659014,-9576.193725
864.762034,-888.247130,-962.267725,-9882.631924
864.762354,-1110.308913,1924.535449,-9882.631924
864.762674,-1258.350101,3478.967927,-9806.022374
864.762994,-740.205942,2886.803174,-9959.241474
864.763314,370.102971,814.226536,-9729.412825
864.763634,1110.308913,-666.185348,-9806.022374
864.763954,1628.453072,-1554.432478,-10112.460574
864.764274,2738.761985,-1480.411884,-10265.679673
864.764594,1850.514855,518.144159,-10265.679673
864.764914,1110.308913,1554.432478,-9959.241474
864.765234,962.267725,1702.473667,-10189.070123
864.765554,74.020594,148.041188,-9882.631924
864.765874,0.000000,296.082377,-10342.289223
864.766194,592.164754,296.082377,-10342.289223
864.766514,-296.082377,222.061783,-10035.851024
864.766834,148.041188,0.000000,-10495.508323
864.767154,0.000000,0.000000,-10265.679673
864.767474,666.185348,962.267725,-10189.070123
864.767794,222.061783,2146.597232,-10801.946522
864.768114,888.247130,2442.679609,-10572.117872
864.768434,518.144159,2516.700203,-10725.336972
864.768754,296.082377,1628.453072,-9729.412825
864.769074,1184.329507,740.205942,-10189.070123
864.769394,2368.659014,148.041188,-10265.679673
864.769714,3034.844362,-222.061783,-10035.851024
864.770034,2960.823768,740.205942,-10572.117872
864.770354,2442.679609,1406.391290,-10495.508323
864.770674,74.020594,1406.391290,-9729.412825
864.770994,-1036.288319,814.226536,-9882.631924
864.771314,-1406.391290,370.102971,-9882.631924
864.771634,0.000000,0.000000,-10495.508323
864.771954,518.144159,-592.164754,-9959.241474
864.772274,370.102971,-888.247130,-10418.898773
864.772594,-518.144159,-740.205942,-9499.584175
864.772914,-1480.411884,-296.082377,-11108.384721
864.773234,-1332.370696,0.000000,-9806.022374
864.773554,-518.144159,0.000000,-9959.241474
864.773874,296.082377,-296.082377,-9806.022374
864.774194,1332.370696,-370.102971,-10418.898773
864.774514,1554.432478,-148.041188,-10112.460574
864.774834,444.123565,0.000000,-10035.851024
864.775154,222.061783,148.041188,-10035.851024
864.775474,1258.350101,444.123565,-10342.289223
864.775794,888.247130,888.247130,-9959.241474
864.776114,-222.061783,222.061783,-10418.898773
864.776434,-814.226536,592.164754,-10189.070123
864.776754,-296.082377,370.102971,-9959.241474
864.777074,518.144159,814.226536,-10955.165621
864.777394,1628.453072,222.061783,-10495.508323
864.777714,1850.514855,-518.144159,-10342.289223
864.778034,1110.308913,-444.123565,-10572.117872
864.778354,-370.102971,0.000000,-10801.946522
864.778674,-888.247130,518.144159,-9652.803275
864.778994,-1258.350101,888.247130,-10572.117872
864.779314,1036.288319,814.226536,-10112.460574
864.779634,1998.556043,296.082377,-9959.241474
864.779954,3478.967927,-74.020594,-10265.679673
864.780274,1850.514855,-444.123565,-9729.412825
864.780594,1850.514855,-666.185348,-10342.289223
864.780914,1036.288319,-666.185348,-9576.193725
864.781234,1628.453072,-222.061783,-10342.289223
864.781554,962.267725,888.247130,-11338.213370
864.781874,0.000000,1332.370696,-10189.070123
864.782194,-814.226536,2146.597232,-10035.851024
864.782514,-1184.329507,1628.453072,-10035.851024
864.782834,-1036.288319,0.000000,-8656.879127
864.783154,444.123565,-2442.679609,-9729.412825
864.783474,1554.432478,-3034.844362,-9576.193725
864.783794,1554.432478,-2368.659014,-9959.241474
864.784114,1554.432478,-814.226536,-9652.803275
864.784434,1998.556043,296.082377,-10265.679673
864.784754,1702.473667,1924.535449,-9806.022374
864.785075,148.041188,2516.700203,-10035.851024
864.785395,-1110.308913,1258.350101,-10189.070123
864.785715,-1036.288319,370.102971,-9193.145976
864.786035,-1258.350101,-814.226536,-10112.460574
864.786355,814.226536,0.000000,-10648.727422
864.786675,1110.308913,-296.082377,-10265.679673
864.786995,-148.041188,518.144159,-10342.289223
864.787315,-1406.391290,888.247130,-10265.679673
864.787635,-1628.453072,1406.391290,-10495.508323
864.787955,0.000000,1480.411884,-10878.556072
864.788275,1702.473667,962.267725,-11108.384721
864.788595,2590.720797,0.000000,-10648.727422
864.788915,1258.350101,0.000000,-10418.898773
864.789235,0.000000,-148.041188,-10572.117872
864.789555,74.020594,296.082377,-10572.117872
864.789875,518.144159,666.185348,-10342.289223
864.790195,222.061783,888.247130,-10648.727422
864.790515,592.164754,814.226536,-10495.508323
864.790835,740.205942,-370.102971,-9806.022374
864.791155,370.102971,-888.247130,-10035.851024
864.791475,1036.288319,-296.082377,-9346.365076
864.791795,0.000000,148.041188,-9806.022374
864.792115,-1036.288319,592.164754,-9806.022374
864.792435,-518.144159,592.164754,-9576.193725
864.792755,-296.082377,1036.288319,-9346.365076
864.793075,0.000000,1184.329507,-9269.755526
864.793395,0.000000,444.123565,-9576.193725
864.793715,518.144159,370.102971,-9806.022374
864.794035,1554.432478,370.102971,-9729.412825
864.794355,1998.556043,740.205942,-8886.707777
864.794675,1184.329507,518.144159,-10035.851024
864.794995,74.020594,592.164754,-9576.193725
864.795315,0.000000,962.267725,-9882.631924
864.795635,0.000000,1554.432478,-10418.898773
864.795955,222.061783,1628.453072,-9652.803275
864.796275,-370.102971,444.123565,-10342.289223
864.796595,0.000000,-814.226536,-9959.241474
864.796915,444.123565,-222.061783,-10648.727422
864.797235,0.000000,740.205942,-10495.508323
864.797555,1110.308913,1036.288319,-10725.336972
864.797875,1110.308913,1554.432478,-10572.117872
864.798195,740.205942,1332.370696,-10648.727422
864.798515,1554.432478,962.267725,-10495.508323
864.798835,1258.350101,74.020594,-10265.679673
864.799155,814.226536,-1110.308913,-10265.679673
864.799475,1036.288319,-962.267725,-10189.070123
864.799795,1554.432478,-962.267725,-10265.679673
864.800115,1998.556043,666.185348,-10265.679673
864.800435,1628.453072,1924.535449,-10342.289223
864.800755,0.000000,2368.659014,-10495.508323
864.801075,-592.164754,1628.453072,-9882.631924
864.801395,-370.102971,814.226536,-9806.022374
864.801715,1628.453072,-888.247130,-9729.412825
864.802035,2146.597232,-1924.535449,-9116.536426
864.802355,2590.720797,-1258.350101,-9959.241474
864.802675,2146.597232,-370.102971,-9806.022374
864.802995,1628.453072,1184.329507,-9269.755526
864.803315,592.164754,1184.329507,-9806.022374
864.803635,1110.308913,1258.350101,-9499.584175
864.803955,1110.308913,518.144159,-9806.022374
864.804275,1184.329507,148.041188,-10955.165621
864.804595,2516.700203,-1110.308913,-9806.022374
864.804915,1110.308913,-148.041188,-10495.508323
864.805235,666.185348,444.123565,-9806.022374
864.805555,1406.391290,518.144159,-10572.117872
864.805875,444.123565,592.164754,-11261.603821
864.806195,-370.102971,296.082377,-10265.679673
864.806515,-962.267725,0.000000,-10112.460574
864.806835,-370.102971,-444.123565,-10495.508323
864.807155,-740.205942,-962.267725,-10265.679673
864.807475,-1110.308913,-222.061783,-10418.898773
864.807795,74.020594,444.123565,-10648.727422
864.808115,1036.288319,444.123565,-10801.946522
864.808435,1406.391290,888.247130,-11108.384721
864.808755,-666.185348,148.041188,-10725.336972
864.809075,-3627.009116,518.144159,-10035.851024
864.809395,-2368.659014,222.061783,-10189.070123
864.809715,666.185348,0.000000,-10112.460574
864.810035,1036.288319,0.000000,-10112.460574
864.810355,-1036.288319,-518.144159,-10189.070123
864.810675,-2590.720797,0.000000,-9882.631924
864.810995,-2220.617826,962.267725,-9729.412825
864.811315,-1258.350101,666.185348,-9882.631924
864.811635,148.041188,296.082377,-9959.241474
864.811955,1184.329507,-518.144159,-9882.631924
864.812275,592.164754,-740.205942,-9652.803275
864.812595,370.102971,0.000000,-10189.070123
864.812915,-518.144159,1258.350101,-9806.022374
864.813235,-1554.432478,1258.350101,-9652.803275
864.813555,-444.123565,296.082377,-9806.022374
864.813875,1850.514855,0.000000,-10189.070123
864.814195,962.267725,0.000000,-10189.070123
864.814515,-444.123565,-962.267725,-9959.241474
864.814835,-962.267725,296.082377,-9882.631924
864.815155,518.144159,296.082377,-10112.460574
864.815475,2294.638420,370.102971,-10035.851024
864.815795,3923.091493,814.226536,-10572.117872
864.816115,3034.844362,1850.514855,-10112.460574
864.816435,1850.514855,2442.679609,-10572.117872
864.816755,2368.659014,2146.597232,-10648.727422
864.817075,2886.803174,1184.329507,-9959.241474
864.817395,1184.329507,-592.164754,-10112.460574
864.817715,666.185348,-592.164754,-9959.241474
864.818035,518.144159,0.000000,-10495.508323
864.818355,1480.411884,1332.370696,-10265.679673
864.818675,1258.350101,2368.659014,-10189.070123
864.818995,1702.473667,1850.514855,-10035.851024
864.819315,1998.556043,740.205942,-9729.412825
864.819635,1924.535449,222.061783,-9959.241474
864.819955,962.267725,370.102971,-9959.241474
864.820275,1184.329507,-666.185348,-9882.631924
864.820595,2072.576638,-222.061783,-9959.241474
864.820915,1776.494261,148.041188,-10112.460574
864.821236,888.247130,0.000000,-9959.241474
864.821556,-666.185348,74.020594,-9652.803275
864.821876,-222.061783,1332.370696,-9806.022374
864.822196,-222.061783,2220.617826,-9806.022374
864.822516,222.061783,1702.473667,-10112.460574
864.822836,962.267725,-666.185348,-9576.193725
864.823156,370.102971,-2812.782580,-9576.193725
864.823476,0.000000,-4145.153275,-9576.193725
864.823796,888.247130,-3108.864956,-9729.412825
864.824116,0.000000,0.000000,-9882.631924
864.824436,-518.144159,3775.050304,-10495.508323
864.824756,444.123565,4959.379811,-10725.336972
864.825076,370.102971,3627.009116,-11108.384721
864.825396,0.000000,962.267725,-10189.070123
864.825716,0.000000,-1702.473667,-9193.145976
864.826036,0.000000,-3034.844362,-10035.851024
864.826356,888.247130,-2368.659014,-10648.727422
864.826676,2886.803174,-888.247130,-10189.070123
864.826996,2072.576638,1776.494261,-10265.679673
864.827316,-666.185348,3923.091493,-10342.289223
864.827636,-1554.432478,4145.153275,-11031.775171
864.827956,0.000000,3108.864956,-10648.727422
864.828276,1258.350101,888.247130,-10495.508323
864.828596,1036.288319,-1776.494261,-9959.241474
864.828916,0.000000,-3182.885551,-9959.241474
864.829236,0.000000,-2368.659014,-9652.803275
864.829556,-444.123565,-814.226536,-9882.631924
864.829876,962.267725,1554.432478,-10035.851024
864.830196,444.123565,2590.720797,-10418.898773
864.830516,-370.102971,1776.494261,-9959.241474
864.830836,-1036.288319,148.041188,-10342.289223
864.831156,-2072.576638,-814.226536,-9729.412825
864.831476,-888.247130,-2960.823768,-9882.631924
864.831796,0.000000,-2072.576638,-9499.584175
864.832116,666.185348,-1776.494261,-9652.803275
864.832436,1850.514855,0.000000,-9652.803275
864.832756,3478.967927,1332.370696,-10418.898773
864.833076,1850.514855,2590.720797,-9959.241474
864.833396,-370.102971,2812.782580,-10418.898773
864.833716,-1258.350101,1776.494261,-10112.460574
864.834036,-962.267725,-962.267725,-10035.851024
864.834356,370.102971,-3108.864956,-9576.193725
864.834676,740.205942,-2368.659014,-9729.412825
864.834996,444.123565,444.123565,-10418.898773
864.835316,444.123565,3034.844362,-10725.336972
864.835636,148.041188,3997.112087,-9882.631924
864.835956,666.185348,3182.885551,-10418.898773
864.836276,-370.102971,1184.329507,-10342.289223
864.836596,-370.102971,-740.205942,-9882.631924
864.836916,814.226536,-1776.494261,-10342.289223
864.837236,1184.329507,-444.123565,-10265.679673
864.837556,1036.288319,1036.288319,-10648.727422
864.837876,962.267725,1184.329507,-10342.289223
864.838196,1702.473667,518.144159,-10189.070123
864.838516,2886.803174,740.205942,-10725.336972
864.838836,2294.638420,296.082377,-10572.117872
864.839156,1184.329507,0.000000,-10035.851024
864.839476,370.102971,0.000000,-9806.022374
864.839796,74.020594,-888.247130,-9269.755526
864.840116,1702.473667,-1110.308913,-9806.022374
864.840436,1184.329507,-666.185348,-9806.022374
864.840756,444.123565,370.102971,-9806.022374
864.841076,-222.061783,1924.535449,-9806.022374
864.841396,370.102971,1628.453072,-9269.755526
864.841716,740.205942,518.144159,-9729.412825
864.842036,0.000000,-1110.308913,-9806.022374
864.842356,-148.041188,-1554.432478,-9346.365076
864.842676,0.000000,-1702.473667,-9729.412825
864.842996,888.247130,-518.144159,-9882.631924
864.843316,666.185348,888.247130,-9882.631924
864.843636,370.102971,1924.535449,-9882.631924
864.843956,1776.494261,1850.514855,-10265.679673
864.844276,1184.329507,444.123565,-10112.460574
864.844596,1924.535449,-962.267725,-10189.070123
864.844916,1480.411884,-1406.391290,-10495.508323
864.845236,-518.144159,-1184.329507,-10035.851024
864.845556,-2738.761985,-370.102971,-10265.679673
864.845876,-962.267725,0.000000,-10112.460574
864.846196,370.102971,1406.391290,-10495.508323
864.846516,1258.350101,2294.638420,-10648.727422
864.846836,1998.556043,2368.659014,-11108.384721
864.847156,1776.494261,1554.432478,-10725.336972
864.847476,962.267725,-518.144159,-10112.460574
864.847796,814.226536,-1628.453072,-10342.289223
864.848116,962.267725,-1924.535449,-10035.851024
864.848436,0.000000,-1184.329507,-11031.775171
864.848756,0.000000,222.061783,-10572.117872
864.849076,444.123565,2442.679609,-10572.117872
864.849396,-1110.308913,2664.741391,-10342.289223
864.849716,-518.144159,1480.411884,-10035.851024
864.850036,444.123565,0.000000,-10189.070123
864.850356,222.061783,-2442.679609,-9576.193725
864.850676,962.267725,-2146.597232,-9499.584175
864.850996,740.205942,-666.185348,-9959.241474
864.851316,-592.164754,888.247130,-9193.145976
864.851636,-1110.308913,1110.308913,-9652.803275
864.851956,370.102971,0.000000,-9576.193725
864.852276,370.102971,-518.144159,-9652.803275
864.852596,1480.411884,222.061783,-10418.898773
864.852916,0.000000,888.247130,-10495.508323
864.853236,-962.267725,592.164754,-10112.460574
864.853556,-1554.432478,222.061783,-9959.241474
864.853876,-1406.391290,-1480.411884,-9882.631924
864.854196,-444.123565,-1554.432478,-9806.022374
864.854516,814.226536,-296.082377,-10112.460574
864.854836,2442.679609,666.185348,-10955.165621
864.855156,1850.514855,1628.453072,-10648.727422
864.855476,74.020594,2220.617826,-10572.117872
864.855796,-1110.308913,1332.370696,-10418.898773
864.856116,-296.082377,1110.308913,-10189.070123
864.856436,74.020594,740.205942,-10112.460574
864.856756,0.000000,1110.308913,-10035.851024
864.857076,1184.329507,1036.288319,-10342.289223
864.857397,1406.391290,1110.308913,-10572.117872
864.857717,888.247130,222.061783,-10035.851024
864.858037,740.205942,-148.041188,-10418.898773
864.858357,1036.288319,592.164754,-8963.317327
864.858677,2442.679609,1628.453072,-9806.022374
864.858997,3182.885551,2146.597232,-10418.898773
864.859317,1406.391290,518.144159,-9806.022374
864.859637,0.000000,148.041188,-9806.022374
864.859957,1110.308913,0.000000,-9039.926876
864.860277,1924.535449,444.123565,-9882.631924
864.860597,2368.659014,1702.473667,-10035.851024
864.860917,2220.617826,1258.350101,-10342.289223
864.861237,2368.659014,888.247130,-9806.022374
864.861557,518.144159,74.020594,-9806.022374
864.861877,-962.267725,-518.144159,-9652.803275
864.862197,888.247130,-370.102971,-9806.022374
864.862517,2442.679609,518.144159,-10265.679673
864.862836,2220.617826,2146.597232,-10189.070123
864.863156,962.267725,1628.453072,-10648.727422
864.863476,-148.041188,148.041188,-9806.022374
864.863796,-444.123565,-666.185348,-10189.070123
864.864116,1184.329507,-1924.535449,-10112.460574
864.864436,962.267725,-444.123565,-10418.898773
864.864756,1480.411884,1702.473667,-10955.165621
864.865076,1850.514855,1924.535449,-11108.384721
864.865396,-518.144159,1924.535449,-10189.070123
864.865716,-2368.659014,296.082377,-10035.851024
864.866036,-1184.329507,222.061783,-10495.508323
864.866356,-740.205942,0.000000,-10035.851024
864.866676,-1184.329507,-222.061783,-10112.460574
864.866996,0.000000,-370.102971,-10189.070123
864.867316,2294.638420,740.205942,-10342.289223
864.867635,222.061783,518.144159,-9959.241474
864.867955,-1406.391290,962.267725,-9806.022374
864.868275,-370.102971,1036.288319,-9959.241474
864.868595,2516.700203,296.082377,-9576.193725
864.868915,3034.844362,-1184.329507,-9346.365076
864.869235,1110.308913,-740.205942,-9882.631924
864.869555,444.123565,-1110.308913,-9729.412825
864.869875,-962.267725,-592.164754,-8963.317327
864.870195,74.020594,-592.164754,-10035.851024
864.870515,1480.411884,-592.164754,-9269.755526
864.870835,1776.494261,-1480.411884,-9959.241474
864.871155,1998.556043,-962.267725,-9806.022374
864.871475,2146.597232,-888.247130,-9882.631924
864.871795,370.102971,148.041188,-9959.241474
864.872115,666.185348,296.082377,-9959.241474
864.872434,592.164754,296.082377,-10112.460574
864.872754,222.061783,0.000000,-10418.898773
864.873074,-740.205942,-518.144159,-9959.241474
864.873394,-1184.329507,74.020594,-10648.727422
864.873714,-2220.617826,888.247130,-10495.508323
864.874034,-2368.659014,2072.576638,-9806.022374
864.874354,-1924.535449,1554.432478,-10342.289223
864.874674,-1110.308913,74.020594,-10572.117872
864.874994,74.020594,-296.082377,-10955.165621
864.875314,888.247130,296.082377,-10878.556072
864.875634,-518.144159,1628.453072,-10265.679673
864.875954,-1480.411884,1554.432478,-10342.289223
864.876274,-962.267725,2072.576638,-10342.289223
864.876594,-518.144159,1998.556043,-10418.898773
864.876913,-962.267725,962.267725,-11184.994271
864.877233,222.061783,370.102971,-10725.336972
864.877553,1406.391290,74.020594,-10112.460574
864.877873,1110.308913,370.102971,-9806.022374
864.878193,-296.082377,740.205942,-8886.707777
864.878513,814.226536,666.185348,-9806.022374
864.878833,1702.473667,-370.102971,-9652.803275
864.879153,814.226536,-962.267725,-9882.631924
864.879473,0.000000,-1110.308913,-9729.412825
864.879793,0.000000,-666.185348,-9039.926876
864.880113,0.000000,592.164754,-9269.755526
864.880433,0.000000,1406.391290,-10035.851024
864.880753,814.226536,2294.638420,-10035.851024
864.881073,1332.370696,1702.473667,-10342.289223
864.881393,2294.638420,-296.082377,-10265.679673
864.881712,1406.391290,-2294.638420,-9729.412825
864.882032,444.123565,-1702.473667,-9269.755526
864.882352,1332.370696,518.144159,-10418.898773
864.882672,3108.864956,1702.473667,-10189.070123
864.882992,3701.029710,2072.576638,-10572.117872
864.883312,2960.823768,1110.308913,-10801.946522
864.883632,1776.494261,-740.205942,-10035.851024
864.883952,1554.432478,-962.267725,-9806.022374
864.884272,1702.473667,74.020594,-10112.460574
864.884592,2294.638420,1036.288319,-10265.679673
864.884912,1480.411884,740.205942,-10495.508323
864.885232,1258.350101,74.020594,-10725.336972
864.885552,592.164754,-888.247130,-10189.070123
864.885872,0.000000,-888.247130,-9882.631924
864.886192,592.164754,1036.288319,-10112.460574
864.886511,1628.453072,1628.453072,-10572.117872
864.886831,2294.638420,1850.514855,-11261.603821
864.887151,1998.556043,444.123565,-10342.289223
864.887471,1036.288319,-222.061783,-10112.460574
864.887791,222.061783,-740.205942,-9652.803275
864.888111,74.020594,-296.082377,-9882.631924
864.888431,0.000000,592.164754,-10725.336972
864.888751,666.185348,296.082377,-9806.022374
864.889071,592.164754,0.000000,-9729.412825
864.889391,370.102971,-1036.288319,-10035.851024
864.889711,-148.041188,0.000000,-9269.755526
864.890031,-1924.535449,0.000000,-9882.631924
864.890351,-1406.391290,592.164754,-9652.803275
864.890671,-740.205942,-370.102971,-9806.022374
864.890990,-1184.329507,-888.247130,-9422.974625
864.891310,-814.226536,-1998.556043,-9806.022374
864.891630,148.041188,-740.205942,-10342.289223
864.891950,-148.041188,518.144159,-9882.631924
864.892270,-814.226536,1554.432478,-10418.898773
864.892590,-962.267725,1924.535449,-11031.775171
864.892910,148.041188,370.102971,-10572.117872
864.893230,962.267725,0.000000,-10265.679673
864.893550,0.000000,0.000000,-10189.070123
864.893870,-2072.576638,666.185348,-10572.117872
864.894190,-1924.535449,444.123565,-10265.679673
864.894510,-740.205942,-666.185348,-10342.289223
864.894830,0.000000,-1776.494261,-9882.631924
864.895150,-222.061783,-592.164754,-9882.631924
864.895470,370.102971,1258.350101,-10725.336972
864.895789,814.226536,3330.926739,-10495.508323
864.896109,1036.288319,3627.009116,-10801.946522
864.896429,0.000000,2590.720797,-10265.679673
864.896749,740.205942,-444.123565,-10035.851024
864.897069,1850.514855,-1998.556043,-9882.631924
864.897389,2220.617826,-2146.597232,-9806.022374
864.897709,1554.432478,370.102971,-10112.460574
864.898029,1184.329507,2368.659014,-9882.631924
864.898349,2072.576638,2368.659014,-10035.851024
864.898669,1628.453072,2220.617826,-10035.851024
864.898989,444.123565,444.123565,-10112.460574
864.899309,1036.288319,-1406.391290,-9576.193725
864.899629,1998.556043,-1110.308913,-9729.412825
864.899949,1702.473667,0.000000,-9806.022374
864.900268,1480.411884,1554.432478,-9652.803275
864.900588,1258.350101,1480.411884,-9882.631924
864.900908,1998.556043,370.102971,-9959.241474
864.901228,2886.803174,444.123565,-9882.631924
864.901548,2072.576638,0.000000,-10035.851024
864.901868,1554.432478,-222.061783,-9882.631924
864.902188,962.267725,888.247130,-9882.631924
864.902508,1036.288319,1184.329507,-9882.631924
864.902828,518.144159,74.020594,-10112.460574
864.903148,1554.432478,296.082377,-10648.727422
864.903468,1406.391290,0.000000,-10418.898773
864.903788,1776.494261,1406.391290,-10725.336972
864.904108,-1332.370696,2368.659014,-10495.508323
864.904428,-1184.329507,1184.329507,-10648.727422
864.904748,-666.185348,-296.082377,-10265.679673
864.905067,0.000000,-1554.432478,-10878.556072
864.905387,888.247130,-814.226536,-10725.336972
864.905707,518.144159,74.020594,-10878.556072
864.906027,0.000000,1776.494261,-10418.898773
864.906347,-1184.329507,2664.741391,-10495.508323
864.906667,-592.164754,2294.638420,-10495.508323
864.906987,1036.288319,0.000000,-10342.289223
864.907307,1480.411884,-1776.494261,-9806.022374
864.907627,1332.370696,-2738.761985,-9729.412825
864.907947,888.247130,-2294.638420,-9652.803275
864.908267,-148.041188,-148.041188,-9422.974625
864.908587,-1628.453072,814.226536,-9729.412825
864.908907,-2220.617826,1998.556043,-9422.974625
864.909227,-1406.391290,1776.494261,-10035.851024
864.909547,-222.061783,-222.061783,-9652.803275
864.909866,444.123565,-1850.514855,-9193.145976
864.910186,-592.164754,-2738.761985,-9193.145976
864.910506,0.000000,-2590.720797,-9576.193725
864.910826,1036.288319,-1332.370696,-9729.412825
864.911146,592.164754,0.000000,-9576.193725
864.911466,-1406.391290,296.082377,-9652.803275
864.911786,-1332.370696,1110.308913,-10572.117872
864.912106,-888.247130,1110.308913,-10112.460574
864.912426,-814.226536,74.020594,-10495.508323
864.912746,666.185348,148.041188,-10112.460574
864.913066,1258.350101,-1480.411884,-10189.070123
864.913386,1776.494261,-740.205942,-10648.727422
864.913706,1628.453072,0.000000,-10878.556072
864.914026,666.185348,1480.411884,-11261.603821
864.914345,-518.144159,1110.308913,-10265.679673
864.914665,-222.061783,1258.350101,-10572.117872
864.914985,0.000000,814.226536,-10878.556072
864.915305,0.000000,0.000000,-9882.631924
864.915625,1258.350101,0.000000,-11031.775171
864.915945,1702.473667,74.020594,-10265.679673
864.916265,1036.288319,1110.308913,-10418.898773
864.916585,0.000000,1406.391290,-10572.117872
864.916905,296.082377,962.267725,-9882.631924
864.917225,1850.514855,1924.535449,-10035.851024
864.917545,1110.308913,1036.288319,-9729.412825
864.917865,962.267725,74.020594,-9729.412825
864.918185,962.267725,-592.164754,-9806.022374
864.918505,-518.144159,-1554.432478,-8733.488677
864.918825,3108.864956,-1554.432478,-9346.365076
864.919144,3034.844362,962.267725,-9499.584175
864.919464,1776.494261,1924.535449,-9422.974625
864.919784,2516.700203,3256.906145,-9806.022374
864.920104,2886.803174,2220.617826,-9806.022374
864.920424,1332.370696,888.247130,-9576.193725
864.920744,148.041188,-222.061783,-9499.584175
864.921064,-148.041188,-888.247130,-9422.974625
864.921384,0.000000,-370.102971,-9882.631924
864.921704,74.020594,-296.082377,-10112.460574
864.922024,296.082377,0.000000,-9729.412825
864.922344,592.164754,592.164754,-10189.070123
864.922664,1480.411884,1036.288319,-10572.117872
864.922984,3775.050304,1554.432478,-10572.117872
864.923304,3478.967927,2812.782580,-10801.946522
864.923623,2886.803174,3256.906145,-10955.165621
864.923943,1924.535449,2442.679609,-11184.994271
864.924263,-148.041188,814.226536,-10342.289223
864.924583,-518.144159,0.000000,-10572.117872
864.924903,-592.164754,-148.041188,-10572.117872
864.925223,-148.041188,518.144159,-10265.679673
864.925543,0.000000,1258.350101,-11108.384721
864.925863,-962.267725,666.185348,-10112.460574
864.926183,-1554.432478,962.267725,-10112.460574
864.926503,-962.267725,1332.370696,-10112.460574
864.926823,0.000000,1110.308913,-10035.851024
864.927143,-592.164754,814.226536,-10189.070123
864.927463,0.000000,888.247130,-10342.289223
864.927783,444.123565,0.000000,-9729.412825
864.928103,1036.288319,-518.144159,-9576.193725
864.928422,-370.102971,-370.102971,-9193.145976
864.928742,-666.185348,-1332.370696,-9422.974625
864.929062,74.020594,-888.247130,-9652.803275
864.929382,0.000000,444.123565,-9576.193725
864.929702,370.102971,1110.308913,-9959.241474
864.930022,-1406.391290,74.020594,-9729.412825
864.930342,-2368.659014,-1184.329507,-9422.974625
864.930662,-1184.329507,-1480.411884,-9576.193725
864.930982,-592.164754,-1406.391290,-9806.022374
864.931302,1850.514855,-1998.556043,-9806.022374
864.931622,1628.453072,-370.102971,-10342.289223
864.931942,0.000000,-740.205942,-9959.241474
864.932262,0.000000,296.082377,-10418.898773
864.932582,-1702.473667,0.000000,-9806.022374
864.932902,-444.123565,518.144159,-10342.289223
864.933221,222.061783,-370.102971,-10189.070123
864.933541,1332.370696,-1850.514855,-10572.117872
864.933861,2072.576638,-1776.494261,-10418.898773
864.934181,518.144159,-962.267725,-10418.898773
864.934501,-666.185348,-444.123565,-10418.898773
864.934821,222.061783,-148.041188,-10342.289223
864.935141,1628.453072,74.020594,-10801.946522
864.935461,1480.411884,74.020594,-10418.898773
864.935781,0.000000,0.000000,-10495.508323
864.936101,-740.205942,666.185348,-9959.241474
864.936421,592.164754,1332.370696,-10648.727422
864.936741,1776.494261,1628.453072,-9576.193725
864.937061,2368.659014,1258.350101,-10495.508323
864.937381,1776.494261,-148.041188,-9806.022374
864.937700,444.123565,-592.164754,-10265.679673
864.938020,0.000000,-962.267725,-10342.289223
864.938340,0.000000,-888.247130,-9422.974625
864.938660,-740.205942,-148.041188,-9346.365076
864.938980,1110.308913,370.102971,-9422.974625
864.939300,2516.700203,592.164754,-9269.755526
864.939620,1998.556043,1554.432478,-10418.898773
864.939940,1998.556043,1184.329507,-9959.241474
864.940260,1480.411884,1480.411884,-9422.974625
864.940580,1332.370696,1036.288319,-9576.193725
864.940900,2590.720797,74.020594,-9882.631924
864.941220,444.123565,-592.164754,-9193.145976
864.941540,-666.185348,-592.164754,-9882.631924
864.941860,-888.247130,74.020594,-9652.803275
864.942180,444.123565,518.144159,-9959.241474
864.942499,2072.576638,1258.350101,-10265.679673
864.942819,2368.659014,1110.308913,-10112.460574
864.943139,1850.514855,1924.535449,-10725.336972
864.943459,1184.329507,2220.617826,-10189.070123
864.943779,296.082377,2220.617826,-10648.727422
864.944099,222.061783,1258.350101,-10648.727422
864.944419,148.041188,518.144159,-10572.117872
864.944739,1184.329507,296.082377,-10878.556072
864.945059,814.226536,518.144159,-10572.117872
864.945379,370.102971,1406.391290,-10342.289223
864.945699,-296.082377,2738.761985,-11031.775171
864.946019,-592.164754,2664.741391,-10801.946522
864.946339,-888.247130,1554.432478,-10189.070123
864.946659,-2442.679609,1924.535449,-9806.022374
864.946978,-814.226536,814.226536,-10189.070123
864.947298,814.226536,0.000000,-9806.022374
864.947618,2442.679609,296.082377,-10265.679673
864.947938,2886.803174,0.000000,-9652.803275
864.948258,1702.473667,592.164754,-9576.193725
864.948578,0.000000,148.041188,-9269.755526
864.948898,814.226536,1480.411884,-9346.365076
864.949218,296.082377,814.226536,-9729.412825
864.949538,296.082377,0.000000,-10725.336972
864.949858,-1332.370696,-222.061783,-9576.193725
864.950178,-1924.535449,-1332.370696,-9652.803275
864.950498,-1480.411884,-1776.494261,-9039.926876
864.950818,-370.102971,-1406.391290,-9806.022374
864.951138,592.164754,0.000000,-9499.584175
864.951458,962.267725,814.226536,-9959.241474
864.951777,1036.288319,1702.473667,-10189.070123
864.952097,814.226536,1332.370696,-10572.117872
864.952417,592.164754,444.123565,-10189.070123
864.952737,-444.123565,-518.144159,-10648.727422
864.953057,1184.329507,-2072.576638,-10418.898773
864.953377,1110.308913,-1776.494261,-9959.241474
864.953697,444.123565,148.041188,-10572.117872
864.954017,814.226536,1998.556043,-10725.336972
864.954337,0.000000,2812.782580,-11261.603821
864.954657,-888.247130,2294.638420,-11031.775171
864.954977,-296.082377,518.144159,-10725.336972
864.955297,592.164754,-740.205942,-10189.070123
864.955617,296.082377,-2368.659014,-10418.898773
864.955937,444.123565,-1776.494261,-10189.070123
864.956257,-222.061783,-296.082377,-10725.336972
864.956576,-592.164754,814.226536,-10112.460574
864.956896,-222.061783,1406.391290,-10112.460574
864.957216,1184.329507,1850.514855,-10265.679673
864.957536,1258.350101,740.205942,-10189.070123
864.957856,2590.720797,-592.164754,-10189.070123
864.958176,1702.473667,-1110.308913,-9806.022374
864.958496,1184.329507,-1924.535449,-9346.365076
864.958816,1480.411884,-1184.329507,-9576.193725
864.959136,740.205942,-1258.350101,-9576.193725
864.959456,814.226536,-444.123565,-9346.365076
864.959776,1036.288319,814.226536,-9806.022374
864.960096,1110.308913,1110.308913,-10189.070123
864.960416,296.082377,666.185348,-9806.022374
864.960736,-1184.329507,222.061783,-9729.412825
864.961055,-666.185348,-740.205942,-8733.488677
864.961375,814.226536,-2294.638420,-9729.412825
864.961695,2220.617826,-1998.556043,-9959.241474
864.962015,1776.494261,0.000000,-10189.070123
864.962335,1406.391290,2072.576638,-9959.241474
864.962655,1776.494261,3552.988522,-10112.460574
864.962975,2812.782580,1184.329507,-10189.070123
864.963295,2368.659014,0.000000,-9959.241474
864.963615,444.123565,-1776.494261,-10189.070123
864.963935,888.247130,-1184.329507,-10112.460574
864.964255,-1110.308913,-592.164754,-9882.631924
864.964575,-1776.494261,1184.329507,-10495.508323
864.964895,-1480.411884,1924.535449,-10418.898773
864.965215,-296.082377,2146.597232,-11644.651570
864.965535,-296.082377,1110.308913,-10342.289223
864.965854,-592.164754,666.185348,-10342.289223
864.966174,-296.082377,222.061783,-10495.508323
864.966494,-148.041188,0.000000,-10035.851024
864.966814,0.000000,1332.370696,-10112.460574
864.967134,74.020594,1628.453072,-10495.508323
864.967454,814.226536,1332.370696,-10418.898773
864.967774,740.205942,2368.659014,-10572.117872
864.968094,1924.535449,888.247130,-10572.117872
864.968414,2960.823768,1184.329507,-10035.851024
864.968734,2220.617826,0.000000,-10189.070123
864.969054,1036.288319,-370.102971,-9806.022374
864.969374,-222.061783,-1036.288319,-9269.755526
864.969694,-888.247130,148.041188,-9422.974625
864.970014,0.000000,1258.350101,-9882.631924
864.970334,592.164754,1628.453072,-9959.241474
864.970653,-740.205942,814.226536,-9652.803275
864.970973,-2516.700203,-962.267725,-9269.755526
864.971293,-814.226536,-888.247130,-9422.974625
864.971613,740.205942,-1184.329507,-9806.022374
864.971933,2664.741391,592.164754,-9576.193725
864.972253,1480.411884,1776.494261,-10495.508323
864.972573,-518.144159,1554.432478,-10112.460574
864.972893,0.000000,740.205942,-9959.241474
864.973213,1258.350101,-222.061783,-10112.460574
864.973533,2072.576638,-1110.308913,-10189.070123
864.973853,2812.782580,-1036.288319,-12180.918418
864.974173,1406.391290,814.226536,-10801.946522
864.974493,-814.226536,1332.370696,-10112.460574
864.974813,-2368.659014,2812.782580,-10495.508323
864.975133,-2516.700203,2294.638420,-10112.460574
864.975452,-814.226536,592.164754,-11031.775171
864.975772,0.000000,444.123565,-10342.289223
864.976092,0.000000,1036.288319,-10725.336972
864.976412,444.123565,666.185348,-10495.508323
864.976732,1554.432478,-1628.453072,-10648.727422
864.977052,592.164754,-1332.370696,-10418.898773
864.977372,666.185348,-370.102971,-9806.022374
864.977692,-1332.370696,962.267725,-10112.460574
864.978012,814.226536,2664.741391,-10112.460574
864.978332,1776.494261,1702.473667,-10112.460574
864.978652,-296.082377,666.185348,-9806.022374
864.978972,-1184.329507,-592.164754,-9652.803275
864.979292,962.267725,-1184.329507,-9959.241474
864.979612,2516.700203,-666.185348,-9806.022374
864.979932,2368.659014,-518.144159,-10035.851024
864.980251,1110.308913,0.000000,-9652.803275
864.980571,444.123565,814.226536,-9806.022374
864.980891,740.205942,1924.535449,-9269.755526
864.981211,1406.391290,296.082377,-10265.679673
864.981531,2220.617826,-592.164754,-9422.974625
864.981851,2516.700203,-592.164754,-9806.022374
864.982171,1332.370696,-1110.308913,-9806.022374
864.982491,1776.494261,-444.123565,-9806.022374
864.982811,592.164754,740.205942,-9806.022374
864.983131,666.185348,1110.308913,-9729.412825
864.983451,1850.514855,1332.370696,-9959.241474
864.983771,1776.494261,962.267725,-10189.070123
864.984091,1406.391290,0.000000,-10495.508323
864.984411,518.144159,444.123565,-10495.508323
864.984731,592.164754,-518.144159,-9882.631924
864.985051,518.144159,-888.247130,-9959.241474
864.985370,296.082377,-666.185348,-10189.070123
864.985690,0.000000,0.000000,-9959.241474
864.986010,1184.329507,2072.576638,-10725.336972
864.986330,444.123565,2368.659014,-10955.165621
864.986650,1110.308913,2812.782580,-10189.070123
864.986970,0.000000,370.102971,-10035.851024
864.987290,370.102971,-2146.597232,-10189.070123
864.987610,1258.350101,-3478.967927,-9729.412825
864.987930,1332.370696,-1998.556043,-10265.679673
864.988250,1184.329507,1110.308913,-10495.508323
864.988570,740.205942,2664.741391,-10801.946522
864.988890,-592.164754,4811.338623,-10495.508323
864.989210,-1554.432478,3478.967927,-10112.460574
864.989530,-1776.494261,1628.453072,-10648.727422
864.989850,-592.164754,-1776.494261,-9806.022374
864.990169,518.144159,-1924.535449,-9959.241474
864.990489,0.000000,-1184.329507,-9806.022374
864.990809,-518.144159,-1776.494261,-9882.631924
864.991129,-1406.391290,-888.247130,-9499.584175
864.991449,148.041188,222.061783,-9652.803275
864.991769,0.000000,1110.308913,-9806.022374
864.992089,-592.164754,1628.453072,-9652.803275
864.992409,-888.247130,1702.473667,-10035.851024
864.992729,-1036.288319,370.102971,-9806.022374
864.993049,-1850.514855,-592.164754,-9499.584175
864.993369,-444.123565,-2072.576638,-9959.241474
864.993689,444.123565,-2220.617826,-10418.898773
864.994009,370.102971,-888.247130,-10112.460574
864.994329,-296.082377,1776.494261,-10265.679673
864.994649,0.000000,2368.659014,-10572.117872
864.994968,74.020594,1702.473667,-10265.679673
864.995288,-444.123565,592.164754,-10572.117872
864.995608,-1628.453072,74.020594,-9959.241474
864.995928,-740.205942,-888.247130,-10725.336972
864.996248,148.041188,-1480.411884,-10265.679673
864.996568,666.185348,222.061783,-10725.336972
864.996888,1480.411884,1332.370696,-10265.679673
864.997208,1628.453072,1406.391290,-10648.727422
864.997528,2146.597232,1184.329507,-10648.727422
864.997848,1258.350101,1258.350101,-10878.556072
864.998168,740.205942,1480.411884,-9959.241474
864.998488,2368.659014,-962.267725,-10418.898773
864.998808,1776.494261,-2294.638420,-9959.241474
864.999128,444.123565,-1258.350101,-9806.022374
864.999448,296.082377,0.000000,-9806.022374
864.999767,1702.473667,1850.514855,-9959.241474
865.000087,2812.782580,2516.700203,-9806.022374
865.000407,3404.947333,2220.617826,-10572.117872
865.000727,2072.576638,296.082377,-9576.193725
865.001047,962.267725,-2072.576638,-9729.412825
865.001367,0.000000,-2368.659014,-9882.631924
865.001687,74.020594,-1924.535449,-9652.803275
865.002007,148.041188,-962.267725,-9729.412825
865.002327,2368.659014,592.164754,-9882.631924
865.002647,2664.741391,1258.350101,-10342.289223
865.002967,1406.391290,2368.659014,-10342.289223
865.003287,444.123565,1554.432478,-10265.679673
865.003607,888.247130,740.205942,-10035.851024
865.003927,1258.350101,-962.267725,-9729.412825
865.004247,1850.514855,-444.123565,-10189.070123
865.004566,1702.473667,-1036.288319,-9959.241474
865.004886,1332.370696,-296.082377,-10342.289223
865.005206,148.041188,1110.308913,-9116.536426
865.005526,444.123565,2294.638420,-10955.165621
865.005846,0.000000,2220.617826,-10418.898773
865.006166,-370.102971,1628.453072,-10572.117872
865.006486,-962.267725,0.000000,-10648.727422
865.006806,-2294.638420,-888.247130,-10035.851024
865.007126,-2220.617826,-1036.288319,-10035.851024
865.007446,-814.226536,-592.164754,-10495.508323
865.007766,740.205942,518.144159,-10035.851024
865.008086,1850.514855,2664.741391,-11491.432470
865.008406,370.102971,2220.617826,-9882.631924
865.008726,444.123565,740.205942,-10572.117872
865.009046,-592.164754,-370.102971,-9729.412825
865.009365,-370.102971,-666.185348,-8886.707777
865.009685,0.000000,-1850.514855,-9499.584175
865.010005,592.164754,-1110.308913,-9269.755526
865.010325,-1036.288319,444.123565,-9729.412825
865.010645,296.082377,1036.288319,-10342.289223
865.010965,-740.205942,1850.514855,-9116.536426
865.011285,-962.267725,2368.659014,-10035.851024
865.011605,-1258.350101,1924.535449,-9193.145976
865.011925,-1184.329507,0.000000,-9422.974625
865.012245,-666.185348,-1998.556043,-9116.536426
865.012565,222.061783,-4145.153275,-9806.022374
865.012885,-444.123565,-4145.153275,-9269.755526
865.013205,-962.267725,-2294.638420,-9576.193725
865.013525,222.061783,370.102971,-9882.631924
865.013845,2516.700203,2812.782580,-10725.336972
865.014165,3923.091493,4219.173869,-11108.384721
865.014484,3997.112087,3923.091493,-10955.165621
865.014804,3552.988522,1406.391290,-11184.994271
865.015124,1480.411884,-1110.308913,-10265.679673
865.015444,-296.082377,-2146.597232,-10495.508323
865.015764,-1924.535449,-1702.473667,-10265.679673
865.016084,-1702.473667,0.000000,-10189.070123
865.016404,-370.102971,1850.514855,-10725.336972
865.016724,1406.391290,2590.720797,-11184.994271
865.017044,592.164754,2886.803174,-10725.336972
865.017364,0.000000,2960.823768,-11031.775171
865.017684,1258.350101,1406.391290,-10955.165621
865.018004,2738.761985,-148.041188,-12104.308868
865.018324,2368.659014,-1184.329507,-10418.898773
865.018644,592.164754,-962.267725,-9806.022374
865.018964,222.061783,74.020594,-9576.193725
865.019283,962.267725,1924.535449,-10418.898773
865.019603,2368.659014,1110.308913,-10418.898773
865.019923,2664.741391,592.164754,-9959.241474
865.020243,1998.556043,74.020594,-9806.022374
865.020563,1628.453072,814.226536,-9806.022374
865.020883,74.020594,1036.288319,-9422.974625
865.021203,0.000000,0.000000,-9652.803275
865.021523,592.164754,-666.185348,-9652.803275
865.021843,666.185348,-1332.370696,-9499.584175
865.022163,814.226536,-962.267725,-10342.289223
865.022483,-222.061783,0.000000,-9729.412825
865.022803,-888.247130,1110.308913,-9499.584175
865.023123,-518.144159,1554.432478,-9806.022374
865.023443,740.205942,592.164754,-9959.241474
865.023763,1036.288319,-740.205942,-10648.727422
865.024082,222.061783,-1776.494261,-9729.412825
865.024402,-296.082377,-1184.329507,-10418.898773
865.024722,-1110.308913,0.000000,-10648.727422
865.025042,-1554.432478,1702.473667,-9882.631924
865.025362,-962.267725,1628.453072,-10495.508323
865.025682,1184.329507,592.164754,-11031.775171
865.026002,1998.556043,0.000000,-10801.946522
865.026322,1110.308913,444.123565,-11031.775171
865.026642,-518.144159,1480.411884,-10648.727422
865.026962,-1110.308913,1406.391290,-10725.336972
865.027282,-2146.597232,592.164754,-10189.070123
865.027602,-1406.391290,-1258.350101,-10112.460574
865.027922,-814.226536,-2294.638420,-9806.022374
865.028242,-148.041188,-1850.514855,-10035.851024
865.028562,888.247130,0.000000,-10418.898773
865.028881,2664.741391,1628.453072,-10495.508323
865.029201,1480.411884,2590.720797,-10035.851024
865.029521,1184.329507,1406.391290,-9806.022374
865.029841,888.247130,814.226536,-9806.022374
865.030161,1776.494261,-444.123565,-9959.241474
865.030481,1998.556043,74.020594,-9806.022374
865.030801,2368.659014,74.020594,-9346.365076
865.031121,1036.288319,666.185348,-9806.022374
865.031441,296.082377,0.000000,-9346.365076
865.031761,666.185348,-1258.350101,-9652.803275
865.032081,814.226536,-1184.329507,-9729.412825
865.032401,888.247130,-740.205942,-9806.022374
865.032721,74.020594,592.164754,-9422.974625
865.033041,888.247130,296.082377,-9882.631924
865.033361,1998.556043,-370.102971,-9499.584175
865.033680,962.267725,-1776.494261,-9959.241474
865.034000,1332.370696,-666.185348,-9652.803275
865.034320,888.247130,-148.041188,-9882.631924
865.034640,-666.185348,0.000000,-10112.460574
865.034960,-888.247130,592.164754,-10265.679673
865.035280,-2738.761985,-148.041188,-10418.898773
865.035600,74.020594,-518.144159,-10648.727422
865.035920,1332.370696,-1850.514855,-9806.022374
865.036240,666.185348,-518.144159,-10495.508323
865.036560,-1406.391290,1110.308913,-10265.679673
865.036880,-2146.597232,592.164754,-10418.898773
865.037200,-444.123565,296.082377,-10265.679673
865.037520,296.082377,-1332.370696,-10035.851024
865.037840,1998.556043,-2072.576638,-9576.193725
865.038160,814.226536,-962.267725,-10342.289223
865.038479,0.000000,888.247130,-10418.898773
865.038799,-1036.288319,2886.803174,-11108.384721
865.039119,-2146.597232,3775.050304,-10725.336972
865.039439,-1258.350101,2442.679609,-9882.631924
865.039759,-592.164754,1628.453072,-10112.460574
865.040079,814.226536,0.000000,-10342.289223
865.040399,1184.329507,296.082377,-10265.679673
865.040719,2072.576638,1332.370696,-9882.631924
865.041039,962.267725,1036.288319,-9959.241474
865.041359,1332.370696,2294.638420,-10265.679673
865.041679,1554.432478,1480.411884,-10035.851024
865.041999,2220.617826,2072.576638,-10112.460574
865.042319,1110.308913,2516.700203,-9806.022374
865.042639,962.267725,814.226536,-10189.070123
865.042959,1036.288319,2146.597232,-10342.289223
865.043279,962.267725,1554.432478,-10112.460574
865.043598,2294.638420,-222.061783,-9882.631924
865.043918,1628.453072,-2146.597232,-9652.803275
865.044238,1332.370696,148.041188,-9576.193725
865.044558,1332.370696,444.123565,-9959.241474
865.044878,2368.659014,1998.556043,-10342.289223
865.045198,1406.391290,2220.617826,-9729.412825
865.045518,1776.494261,2294.638420,-10265.679673
865.045838,962.267725,1406.391290,-10112.460574
865.046158,1628.453072,-1184.329507,-10035.851024
865.046478,1406.391290,-1332.370696,-9959.241474
865.046798,962.267725,74.020594,-10035.851024
865.047118,1258.350101,1924.535449,-10265.679673
865.047438,-444.123565,2442.679609,-9652.803275
865.047758,-1184.329507,444.123565,-10189.070123
865.048078,-222.061783,-296.082377,-9882.631924
865.048397,0.000000,-1332.370696,-9729.412825
865.048717,666.185348,-148.041188,-10342.289223
865.049037,518.144159,1184.329507,-10342.289223
865.049357,0.000000,1184.329507,-10035.851024
865.049677,1110.308913,1258.350101,-10112.460574
865.049997,666.185348,148.041188,-9882.631924
865.050317,1110.308913,-296.082377,-10189.070123
865.050637,0.000000,0.000000,-10342.289223
865.050957,0.000000,-592.164754,-10035.851024
865.051277,-962.267725,-814.226536,-10035.851024
865.051597,-2738.761985,-518.144159,-9806.022374
865.051917,-1998.556043,-518.144159,-10265.679673
865.052237,0.000000,-296.082377,-11568.042020
865.052557,666.185348,0.000000,-10495.508323
865.052877,0.000000,1036.288319,-10725.336972
865.053196,-814.226536,888.247130,-10418.898773
865.053516,-666.185348,-444.123565,-9882.631924
865.053836,0.000000,-1702.473667,-10189.070123
865.054156,370.102971,-2072.576638,-10112.460574
865.054476,0.000000,-1776.494261,-9729.412825
865.054796,444.123565,148.041188,-10342.289223
865.055116,740.205942,518.144159,-10955.165621
865.055436,0.000000,962.267725,-10112.460574
865.055756,-1258.350101,370.102971,-10035.851024
865.056076,-1776.494261,-518.144159,-9729.412825
865.056396,-1924.535449,296.082377,-9652.803275
865.056716,-1554.432478,888.247130,-10265.679673
865.057036,222.061783,222.061783,-9882.631924
865.057356,1036.288319,-592.164754,-9652.803275
865.057676,2220.617826,-1406.391290,-9652.803275
865.057995,1998.556043,-3034.844362,-9576.193725
865.058315,666.185348,-2516.700203,-9729.412825
865.058635,-222.061783,0.000000,-9576.193725
865.058955,0.000000,2072.576638,-10495.508323
865.059275,-1406.391290,2960.823768,-10189.070123
865.059595,-1480.411884,888.247130,-9959.241474
865.059915,444.123565,-888.247130,-10189.070123
865.060235,2812.782580,-1036.288319,-10189.070123
865.060555,3997.112087,-592.164754,-10112.460574
865.060875,4885.359217,-740.205942,-10801.946522
865.061195,3478.967927,148.041188,-10189.070123
865.061515,814.226536,1924.535449,-10418.898773
865.061835,518.144159,2294.638420,-10648.727422
865.062155,814.226536,1924.535449,-10725.336972
865.062475,1110.308913,518.144159,-10572.117872
865.062794,1480.411884,296.082377,-10725.336972
865.063114,1480.411884,592.164754,-10878.556072
865.063434,592.164754,814.226536,-10572.117872
865.063754,74.020594,740.205942,-10112.460574
865.064074,296.082377,0.000000,-10495.508323
865.064394,1036.288319,-74.020594,-10112.460574
865.064714,2368.659014,370.102971,-10035.851024
865.065034,2738.761985,-148.041188,-9806.022374
865.065354,1554.432478,222.061783,-10112.460574
865.065674,222.061783,1776.494261,-10112.460574
865.065994,444.123565,1998.556043,-10189.070123
865.066314,1850.514855,1406.391290,-10112.460574
865.066634,1406.391290,1702.473667,-9882.631924
865.066954,740.205942,888.247130,-10189.070123
865.067274,0.000000,-370.102971,-9806.022374
865.067594,-1554.432478,-888.247130,-9269.755526
865.067914,-2590.720797,1110.308913,-9806.022374
865.068234,-1850.514855,74.020594,-9422.974625
865.068554,-296.082377,370.102971,-9576.193725
865.068874,74.020594,74.020594,-9882.631924
865.069194,1110.308913,0.000000,-9959.241474
865.069514,0.000000,1480.411884,-9576.193725
865.069834,-148.041188,1332.370696,-9806.022374
865.070154,1110.308913,1554.432478,-10189.070123
865.070474,740.205942,296.082377,-9806.022374
865.070794,518.144159,592.164754,-9959.241474
865.071114,0.000000,740.205942,-10418.898773
865.071434,-222.061783,444.123565,-10035.851024
865.071754,0.000000,444.123565,-10572.117872
865.072074,1036.288319,-148.041188,-10265.679673
865.072394,1110.308913,222.061783,-10265.679673
865.072714,-444.123565,-444.123565,-10265.679673
865.073034,-148.041188,444.123565,-10725.336972
865.073354,-962.267725,1332.370696,-10725.336972
865.073674,-2072.576638,1406.391290,-10572.117872
865.073994,-888.247130,1036.288319,-10342.289223
865.074314,1480.411884,74.020594,-10342.289223
865.074634,2146.597232,-1110.308913,-10342.289223
865.074954,814.226536,740.205942,-10112.460574
865.075274,814.226536,666.185348,-10265.679673
865.075594,0.000000,1628.453072,-10265.679673
865.075914,-1036.288319,740.205942,-9652.803275
865.076234,-666.185348,-296.082377,-10801.946522
865.076554,-518.144159,-1554.432478,-9422.974625
865.076874,-592.164754,-1258.350101,-10342.289223
865.077194,-148.041188,0.000000,-10112.460574
865.077514,1184.329507,1184.329507,-9806.022374
865.077834,1776.494261,1480.411884,-10572.117872
865.078154,2812.782580,2146.597232,-9806.022374
865.078474,1702.473667,1036.288319,-10265.679673
865.078794,1850.514855,518.144159,-9806.022374
865.079114,1406.391290,-1480.411884,-9422.974625
865.079434,444.123565,-2590.720797,-9499.584175
865.079754,-740.205942,-2442.679609,-9346.365076
865.080074,-592.164754,-1850.514855,-9882.631924
865.080394,1998.556043,0.000000,-10035.851024
865.080714,2664.741391,888.247130,-10342.289223
865.081034,1332.370696,2886.803174,-10572.117872
865.081354,-296.082377,2590.720797,-10495.508323
865.081674,-1628.453072,2146.597232,-10035.851024
865.081994,-518.144159,888.247130,-10418.898773
865.082314,888.247130,222.061783,-10265.679673
865.082634,2516.700203,-666.185348,-10035.851024
865.082954,3552.988522,-1332.370696,-10495.508323
865.083274,3330.926739,-148.041188,-10495.508323
865.083594,962.267725,1776.494261,-10418.898773
865.083913,-1110.308913,4145.153275,-10572.117872
865.084233,-518.144159,2812.782580,-10189.070123
865.084553,444.123565,814.226536,-10265.679673
865.084873,666.185348,-1110.308913,-9806.022374
865.085193,592.164754,-2516.700203,-9806.022374
865.085513,1110.308913,-3330.926739,-9959.241474
865.085833,666.185348,-1776.494261,-9652.803275
865.086153,-296.082377,666.185348,-10035.851024
865.086473,-444.123565,2294.638420,-10342.289223
865.086793,-518.144159,2294.638420,-10495.508323
865.087113,0.000000,1702.473667,-10648.727422
865.087433,0.000000,666.185348,-10418.898773
865.087753,-592.164754,-666.185348,-10035.851024
865.088073,-592.164754,-814.226536,-10112.460574
865.088393,962.267725,-962.267725,-10189.070123
865.088713,1776.494261,-888.247130,-10112.460574
865.089033,2220.617826,222.061783,-10342.289223
865.089353,2220.617826,1184.329507,-10495.508323
865.089673,888.247130,2516.700203,-10725.336972
865.089993,-222.061783,1850.514855,-10265.679673
865.090313,222.061783,518.144159,-9959.241474
865.090633,74.020594,-1184.329507,-9806.022374
865.090953,370.102971,-1036.288319,-9882.631924
865.091273,888.247130,-814.226536,-10189.070123
865.091593,814.226536,222.061783,-10112.460574
865.091913,74.020594,814.226536,-9882.631924
865.092233,-1480.411884,1332.370696,-9959.241474
865.092553,-1332.370696,-148.041188,-9576.193725
865.092873,-1628.453072,-1554.432478,-9576.193725
865.093193,-962.267725,-1628.453072,-9806.022374
865.093513,1184.329507,-666.185348,-9652.803275
865.093833,1036.288319,0.000000,-9882.631924
865.094153,888.247130,1036.288319,-10035.851024
865.094473,296.082377,740.205942,-10189.070123
865.094793,222.061783,-148.041188,-10035.851024
865.095113,518.144159,74.020594,-10112.460574
865.095433,814.226536,370.102971,-10725.336972
865.095753,-222.061783,888.247130,-10112.460574
865.096073,-2368.659014,74.020594,-10265.679673
865.096393,-1406.391290,148.041188,-10112.460574
865.096713,666.185348,296.082377,-10189.070123
865.097033,1998.556043,1332.370696,-10801.946522
865.097353,2146.597232,1776.494261,-10648.727422
865.097673,2590.720797,592.164754,-10265.679673
865.097993,2220.617826,1258.350101,-9959.241474
865.098313,1554.432478,962.267725,-10112.460574
865.098633,1924.535449,-814.226536,-9652.803275
865.098953,2368.659014,-74.020594,-9576.193725
865.099273,3404.947333,444.123565,-10265.679673
865.099593,3256.906145,2294.638420,-10418.898773
865.099913,1924.535449,2146.597232,-9959.241474
865.100233,-814.226536,1110.308913,-9729.412825
865.100553,-2516.700203,370.102971,-9269.755526
865.100873,-1850.514855,-962.267725,-9346.365076
865.101193,-222.061783,-592.164754,-9422.974625
865.101513,1406.391290,0.000000,-9652.803275
865.101833,1332.370696,962.267725,-9576.193725
865.102153,1406.391290,1110.308913,-10035.851024
865.102473,2738.761985,1554.432478,-9806.022374
865.102793,2738.761985,1184.329507,-10112.460574
865.103113,1036.288319,1332.370696,-9652.803275
865.103433,-1110.308913,1702.473667,-10035.851024
865.103753,-2368.659014,2146.597232,-10342.289223
865.104073,-3182.885551,1776.494261,-9882.631924
865.104393,-1406.391290,962.267725,-10112.460574
865.104713,1184.329507,-1110.308913,-10418.898773
865.105033,2664.741391,-1554.432478,-9959.241474
865.105353,2368.659014,-370.102971,-10572.117872
865.105673,1258.350101,1776.494261,-10725.336972
865.105993,0.000000,2664.741391,-10265.679673
865.106313,592.164754,2442.679609,-11414.822920
865.106633,1480.411884,1110.308913,-10648.727422
865.106953,962.267725,-518.144159,-10418.898773
865.107273,1258.350101,-1554.432478,-10112.460574
865.107593,962.267725,-1998.556043,-10035.851024
865.107913,-222.061783,-666.185348,-10265.679673
865.108233,-1628.453072,444.123565,-10112.460574
865.108553,-222.061783,518.144159,-10112.460574
865.108873,740.205942,0.000000,-10189.070123
865.109192,1850.514855,-444.123565,-10112.460574
865.109512,592.164754,1036.288319,-10418.898773
865.109832,296.082377,666.185348,-10189.070123
865.110152,1184.329507,-296.082377,-10112.460574
865.110472,1406.391290,-666.185348,-9729.412825
865.110792,2146.597232,-888.247130,-9806.022374
865.111112,1554.432478,0.000000,-9729.412825
865.111432,1110.308913,1110.308913,-10342.289223
865.111752,740.205942,2294.638420,-10418.898773
865.112072,-1702.473667,1850.514855,-9806.022374
865.112392,-2368.659014,-592.164754,-10112.460574
865.112712,-1702.473667,-2590.720797,-9422.974625
865.113032,-444.123565,-2664.741391,-9576.193725
865.113352,296.082377,-1998.556043,-9729.412825
865.113672,814.226536,-370.102971,-10418.898773
865.113992,3108.864956,296.082377,-9576.193725
865.114312,1554.432478,-666.185348,-10878.556072
865.114632,222.061783,-148.041188,-9806.022374
865.114952,-1110.308913,-592.164754,-10572.117872
865.115272,-444.123565,-518.144159,-9499.584175
865.115592,888.247130,444.123565,-10648.727422
865.115912,-592.164754,-370.102971,-9882.631924
865.116232,-1258.350101,-1036.288319,-9269.755526
865.116552,74.020594,-1628.453072,-10648.727422
865.116872,222.061783,-1702.473667,-9882.631924
865.117192,518.144159,370.102971,-10572.117872
865.117512,518.144159,740.205942,-10801.946522
865.117832,-1110.308913,666.185348,-9806.022374
865.118152,-3849.070898,592.164754,-9882.631924
865.118472,-1850.514855,-592.164754,-10112.460574
865.118792,1702.473667,-222.061783,-9806.022374
865.119112,2738.761985,-740.205942,-10265.679673
865.119432,1850.514855,-814.226536,-10112.460574
865.119752,592.164754,222.061783,-9882.631924
865.120072,-1036.288319,740.205942,-10035.851024
865.120392,0.000000,1776.494261,-10035.851024
865.120712,74.020594,2664.741391,-9882.631924
865.121032,-370.102971,1184.329507,-10495.508323
865.121352,148.041188,-444.123565,-9729.412825
865.121672,1998.556043,-1036.288319,-10112.460574
865.121992,2590.720797,0.000000,-8963.317327
865.122312,1924.535449,1036.288319,-10878.556072
865.122632,814.226536,2664.741391,-10572.117872
865.122952,814.226536,3330.926739,-10878.556072
865.123272,1036.288319,4071.132681,-9576.193725
865.123592,518.144159,4663.297435,-11108.384721
865.123912,-1702.473667,3256.906145,-10112.460574
865.124232,-1406.391290,814.226536,-10112.460574
865.124552,1850.514855,-370.102971,-9806.022374
865.124872,2442.679609,-1184.329507,-9806.022374
865.125192,1332.370696,-2146.597232,-9346.365076
865.125512,962.267725,-592.164754,-10189.070123
865.125832,2368.659014,1998.556043,-9882.631924
865.126152,3701.029710,3775.050304,-9959.241474
865.126472,2738.761985,3997.112087,-10112.460574
865.126792,2886.803174,2590.720797,-10342.289223
865.127112,2590.720797,2072.576638,-10112.460574
865.127432,1776.494261,1702.473667,-9652.803275
865.127752,2072.576638,1258.350101,-10112.460574
865.128072,2664.741391,518.144159,-9806.022374
865.128392,1850.514855,-296.082377,-9576.193725
865.128712,370.102971,962.267725,-9729.412825
865.129032,-222.061783,1702.473667,-9422.974625
865.129352,814.226536,2442.679609,-9576.193725
865.129672,2220.617826,3256.906145,-9959.241474
865.129992,2886.803174,2368.659014,-9806.022374
865.130312,2294.638420,518.144159,-9959.241474
865.130632,3034.844362,74.020594,-9116.536426
865.130952,3775.050304,592.164754,-9729.412825
865.131272,3034.844362,2960.823768,-10418.898773
865.131592,2368.659014,3849.070898,-9882.631924
865.131912,2516.700203,4737.318029,-10648.727422
865.132232,2072.576638,3701.029710,-10265.679673
865.132552,1332.370696,2146.597232,-9806.022374
865.132872,2738.761985,1998.556043,-10265.679673
865.133192,2886.803174,962.267725,-10955.165621
865.133512,888.247130,1332.370696,-10112.460574
865.133832,1406.391290,2516.700203,-10495.508323
865.134151,1184.329507,3182.885551,-10648.727422
865.134471,1184.329507,3478.967927,-10878.556072
865.134791,370.102971,3182.885551,-10648.727422
865.135111,740.205942,3627.009116,-10035.851024
865.135431,3997.112087,2960.823768,-10801.946522
865.135751,4959.379811,1850.514855,-10648.727422
865.136071,2220.617826,74.020594,-10189.070123
865.136391,-1184.329507,-370.102971,-9499.584175
865.136711,222.061783,888.247130,-9652.803275
865.137031,2368.659014,2368.659014,-9882.631924
865.137351,2442.679609,3478.967927,-10265.679673
865.137671,592.164754,3404.947333,-9499.584175
865.137991,888.247130,1998.556043,-10342.289223
865.138311,2886.803174,1184.329507,-9806.022374
865.138631,2294.638420,888.247130,-9959.241474
865.138951,1554.432478,2220.617826,-9729.412825
865.139271,1628.453072,1480.411884,-9729.412825
865.139591,1406.391290,2072.576638,-9652.803275
865.139911,1480.411884,2368.659014,-9806.022374
865.140231,1554.432478,2368.659014,-9576.193725
865.140551,3552.988522,2368.659014,-10112.460574
865.140871,4441.235652,2368.659014,-10189.070123
865.141191,3108.864956,2960.823768,-10495.508323
865.141511,2442.679609,4367.215058,-10035.851024
865.141831,2960.823768,3701.029710,-11338.213370
865.142151,3775.050304,3849.070898,-10955.165621
865.142471,1776.494261,2812.782580,-10801.946522
865.142791,0.000000,2072.576638,-9806.022374
865.143111,0.000000,962.267725,-9806.022374
865.143431,2590.720797,888.247130,-10189.070123
865.143751,4145.153275,2294.638420,-10495.508323
865.144071,3478.967927,3627.009116,-10572.117872
865.144391,4071.132681,4663.297435,-9882.631924
865.144711,4737.318029,4589.276840,-10495.508323
865.145031,5773.606348,4293.194464,-10801.946522
865.145351,4219.173869,3552.988522,-10342.289223
865.145671,2590.720797,1702.473667,-10035.851024
865.145991,2146.597232,1184.329507,-9806.022374
865.146311,2368.659014,1406.391290,-10648.727422
865.146631,1850.514855,2368.659014,-10342.289223
865.146951,1184.329507,2812.782580,-9652.803275
865.147271,592.164754,2812.782580,-9806.022374
865.147591,1258.350101,3182.885551,-8350.440928
865.147911,3182.885551,3034.844362,-9729.412825
865.148231,4367.215058,2516.700203,-10035.851024
865.148551,4219.173869,2516.700203,-9806.022374
865.148871,2590.720797,3256.906145,-10035.851024
865.149191,2368.659014,2590.720797,-9576.193725
865.149511,2220.617826,3182.885551,-9882.631924
865.149831,2886.803174,2368.659014,-10342.289223
865.150151,2368.659014,1480.411884,-9729.412825
865.150471,0.000000,1924.535449,-9576.193725
865.150791,-1110.308913,1628.453072,-9729.412825
865.151111,-740.205942,2146.597232,-9499.584175
865.151431,888.247130,2664.741391,-10189.070123
865.151751,3627.009116,2220.617826,-9882.631924
865.152071,4219.173869,1998.556043,-10189.070123
865.152391,2442.679609,2368.659014,-10955.165621
865.152711,592.164754,3627.009116,-10648.727422
865.153031,444.123565,4071.132681,-10495.508323
865.153351,2590.720797,2146.597232,-10648.727422
865.153671,3108.864956,1258.350101,-10342.289223
865.153991,2368.659014,296.082377,-9959.241474
865.154311,1702.473667,1110.308913,-10725.336972
865.154631,2220.617826,2960.823768,-10418.898773
865.154951,1702.473667,4885.359217,-11031.775171
865.155271,666.185348,4885.359217,-10189.070123
865.155591,1776.494261,2516.700203,-10112.460574
865.155911,3182.885551,74.020594,-10265.679673
865.156231,3330.926739,0.000000,-9269.755526
865.156551,2590.720797,1184.329507,-9959.241474
865.156871,2146.597232,2664.741391,-10035.851024
865.157191,2368.659014,3701.029710,-10035.851024
865.157511,1850.514855,3478.967927,-9269.755526
865.157831,1628.453072,2220.617826,-9499.584175
865.158151,2738.761985,962.267725,-9959.241474
865.158471,3627.009116,444.123565,-10112.460574
865.158791,3478.967927,1110.308913,-9652.803275
865.159111,3330.926739,3034.844362,-9499.584175
865.159430,3997.112087,2886.803174,-9499.584175
865.159750,4145.153275,3404.947333,-9882.631924
865.160070,2294.638420,3701.029710,-10035.851024
865.160390,74.020594,4071.132681,-10572.117872
865.160710,74.020594,2146.597232,-9806.022374
865.161030,2368.659014,296.082377,-9806.022374
865.161350,3478.967927,-592.164754,-9882.631924
865.161670,2664.741391,296.082377,-9806.022374
865.161990,1258.350101,2738.761985,-9652.803275
865.162310,2812.782580,4811.338623,-10189.070123
865.162630,4441.235652,6143.709319,-10725.336972
865.162950,4663.297435,5329.482782,-10572.117872
865.163270,3182.885551,3552.988522,-10648.727422
865.163590,1258.350101,1924.535449,-10342.289223
865.163910,-370.102971,888.247130,-9806.022374
865.164230,-1332.370696,1184.329507,-10035.851024
865.164550,-666.185348,1110.308913,-9882.631924
865.164870,1184.329507,1184.329507,-10035.851024
865.165190,1850.514855,1776.494261,-10035.851024
865.165510,2664.741391,2738.761985,-10112.460574
865.165830,4145.153275,4219.173869,-10495.508323
865.166150,6143.709319,5625.565159,-10725.336972
865.166470,6513.812290,5773.606348,-10265.679673
865.166790,4885.359217,4885.359217,-10112.460574
865.167110,2886.803174,2960.823768,-9652.803275
865.167430,1110.308913,2146.597232,-10112.460574
865.167750,666.185348,1702.473667,-10112.460574
865.168070,148.041188,1924.535449,-9959.241474
865.168390,-74.020594,1776.494261,-9652.803275
865.168710,-592.164754,1184.329507,-9729.412825
865.169029,-148.041188,962.267725,-9652.803275
865.169349,1702.473667,1036.288319,-9729.412825
865.169669,3552.988522,2368.659014,-10035.851024
865.169989,5995.668130,3330.926739,-10265.679673
865.170309,6809.894666,4367.215058,-9422.974625
865.170629,6291.750507,4663.297435,-10265.679673
865.170949,4737.318029,4737.318029,-10572.117872
865.171269,2590.720797,4663.297435,-10495.508323
865.171589,1554.432478,4071.132681,-10265.679673
865.171909,1406.391290,2516.700203,-10189.070123
865.172229,222.061783,1184.329507,-10035.851024
865.172549,-666.185348,370.102971,-9806.022374
865.172869,-740.205942,0.000000,-9729.412825
865.173189,74.020594,1554.432478,-9806.022374
865.173509,1406.391290,2590.720797,-10035.851024
865.173829,3404.947333,3627.009116,-10342.289223
865.174149,4811.338623,4293.194464,-10112.460574
865.174469,5107.421000,4367.215058,-10495.508323
865.174789,3404.947333,3552.988522,-10112.460574
865.175109,2664.741391,1628.453072,-10035.851024
865.175429,1184.329507,518.144159,-9882.631924
865.175749,-370.102971,444.123565,-9806.022374
865.176068,-2812.782580,888.247130,-9652.803275
865.176388,-2368.659014,370.102971,-9806.022374
865.176708,-1332.370696,222.061783,-9959.241474
865.177028,0.000000,222.061783,-9806.022374
865.177348,1036.288319,740.205942,-9806.022374
865.177668,2738.761985,1998.556043,-10035.851024
865.177988,3997.112087,2960.823768,-10572.117872
865.178308,4071.132681,4071.132681,-10648.727422
865.178628,3330.926739,4071.132681,-10725.336972
865.178948,3404.947333,3627.009116,-10572.117872
865.179268,2442.679609,2664.741391,-10648.727422
865.179588,1628.453072,1628.453072,-10265.679673
865.179908,592.164754,1110.308913,-10112.460574
865.180228,444.123565,888.247130,-9576.193725
865.180548,1480.411884,1036.288319,-9882.631924
865.180868,2886.803174,1332.370696,-10189.070123
865.181188,3627.009116,2294.638420,-10112.460574
865.181508,4515.256246,3256.906145,-10418.898773
865.181828,5625.565159,3923.091493,-10112.460574
865.182148,6809.894666,4737.318029,-10342.289223
865.182468,7254.018232,4959.379811,-10495.508323
865.182788,7105.977043,4885.359217,-10572.117872
865.183107,5625.565159,4885.359217,-10418.898773
865.183427,2960.823768,4441.235652,-10418.898773
865.183747,444.123565,3478.967927,-9959.241474
865.184067,-666.185348,1850.514855,-9806.022374
865.184387,-296.082377,74.020594,-9499.584175
865.184707,962.267725,-296.082377,-10725.336972
865.185027,2072.576638,-148.041188,-9499.584175
865.185347,3108.864956,1998.556043,-9576.193725
865.185667,4737.318029,4737.318029,-9806.022374
865.185987,6439.791695,7105.977043,-11261.603821
865.186307,6587.832884,7624.121203,-10878.556072
865.186627,5329.482782,7031.956449,-10495.508323
865.186947,4219.173869,5033.400406,-10265.679673
865.187267,3108.864956,3775.050304,-10035.851024
865.187587,2664.741391,1850.514855,-10342.289223
865.187907,518.144159,2368.659014,-9959.241474
865.188227,-2146.597232,2516.700203,-9576.193725
865.188547,-2960.823768,2664.741391,-9576.193725
865.188867,-1258.350101,2220.617826,-9346.365076
865.189187,1258.350101,2146.597232,-9959.241474
865.189507,2960.823768,2516.700203,-10265.679673
865.189826,3404.947333,2886.803174,-10112.460574
865.190146,3330.926739,4145.153275,-9959.241474
865.190466,3256.906145,5403.503377,-10189.070123
865.190786,4515.256246,5699.585753,-10648.727422
865.191106,4737.318029,5403.503377,-10648.727422
865.191426,2664.741391,4145.153275,-10418.898773
865.191746,-1702.473667,3108.864956,-10035.851024
865.192066,-3701.029710,1702.473667,-9959.241474
865.192386,-2886.803174,592.164754,-9882.631924
865.192706,-1480.411884,-296.082377,-9652.803275
865.193026,-148.041188,-740.205942,-9269.755526
865.193346,1184.329507,222.061783,-9193.145976
865.193666,3478.967927,2146.597232,-9806.022374
865.193986,5847.626942,4663.297435,-10495.508323
865.194306,6587.832884,6439.791695,-10801.946522
865.194626,5847.626942,6217.729913,-11797.870669
865.194946,4293.194464,4811.338623,-10418.898773
865.195266,2886.803174,2886.803174,-10495.508323
865.195586,962.267725,666.185348,-9882.631924
865.195906,-444.123565,-222.061783,-8886.707777
865.196226,-592.164754,-518.144159,-9882.631924
865.196546,-444.123565,0.000000,-9729.412825
865.196865,-888.247130,1332.370696,-9652.803275
865.197185,148.041188,2812.782580,-10189.070123
865.197505,3775.050304,2294.638420,-10035.851024
865.197825,6217.729913,2738.761985,-10418.898773
865.198145,7772.162391,2294.638420,-10495.508323
