#time,accel_x,accel_y,accel_z
851.845653,592.164754,666.185348,-10725.336972
851.845973,296.082377,666.185348,-10189.070123
851.846293,518.144159,148.041188,-10112.460574
851.846613,518.144159,0.000000,-9806.022374
851.846933,740.205942,-740.205942,-10189.070123
851.847253,814.226536,74.020594,-10112.460574
851.847573,296.082377,740.205942,-9882.631924
851.847893,74.020594,740.205942,-9959.241474
851.848213,592.164754,222.061783,-9806.022374
851.848533,518.144159,0.000000,-10189.070123
851.848853,444.123565,0.000000,-9806.022374
851.849173,740.205942,-222.061783,-10112.460574
851.849493,1036.288319,148.041188,-9882.631924
851.849813,888.247130,592.164754,-10342.289223
851.850133,296.082377,518.144159,-10112.460574
851.850453,0.000000,74.020594,-10112.460574
851.850773,222.061783,-370.102971,-10265.679673
851.851093,740.205942,-222.061783,-11108.384721
851.851413,148.041188,-296.082377,-10035.851024
851.851733,222.061783,222.061783,-10189.070123
851.852053,888.247130,962.267725,-10189.070123
851.852373,1184.329507,1110.308913,-10572.117872
851.852693,740.205942,1332.370696,-10265.679673
851.853013,222.061783,0.000000,-10495.508323
851.853333,0.000000,-444.123565,-10265.679673
851.853653,296.082377,-592.164754,-10035.851024
851.853973,-296.082377,-148.041188,-10189.070123
851.854293,-962.267725,0.000000,-10035.851024
851.854613,-1184.329507,370.102971,-10265.679673
851.854933,-518.144159,148.041188,-10189.070123
851.855253,-518.144159,0.000000,-10112.460574
851.855573,-1184.329507,0.000000,-10495.508323
851.855893,-370.102971,-592.164754,-10418.898773
851.856213,0.000000,-592.164754,-9882.631924
851.856533,-222.061783,-444.123565,-10112.460574
851.856853,-1036.288319,-666.185348,-10035.851024
851.857173,-1110.308913,-814.226536,-9882.631924
851.857493,-814.226536,-740.205942,-10035.851024
851.857813,-1036.288319,-1110.308913,-9806.022374
851.858133,-1850.514855,-1702.473667,-10112.460574
851.858453,-2146.597232,-1702.473667,-9806.022374
851.858773,-1406.391290,-1480.411884,-9806.022374
851.859093,-666.185348,-814.226536,-9882.631924
851.859413,-1036.288319,-666.185348,-10112.460574
851.859733,-1406.391290,-888.247130,-11338.213370
851.860053,-814.226536,-1406.391290,-9806.022374
851.860373,-148.041188,-1184.329507,-10112.460574
851.860693,-592.164754,-888.247130,-9959.241474
851.861013,-1924.535449,-2072.576638,-10112.460574
851.861333,-2516.700203,-2738.761985,-9882.631924
851.861653,-2368.659014,-3627.009116,-9652.803275
851.861973,-1850.514855,-3997.112087,-9806.022374
851.862293,-2294.638420,-4145.153275,-9806.022374
851.862613,-2738.761985,-3701.029710,-10265.679673
851.862933,-1850.514855,-3182.885551,-9576.193725
851.863253,148.041188,-1628.453072,-10189.070123
851.863573,1184.329507,-370.102971,-10572.117872
851.863893,222.061783,-592.164754,-10495.508323
851.864213,-888.247130,-1924.535449,-10189.070123
851.864533,-1924.535449,-2812.782580,-10189.070123
851.864853,-2960.823768,-3923.091493,-10572.117872
851.865173,-4515.256246,-4441.235652,-9806.022374
851.865493,-5699.585753,-4737.318029,-9576.193725
851.865813,-4515.256246,-5699.585753,-9882.631924
851.866133,-2516.700203,-5403.503377,-9806.022374
851.866453,-666.185348,-3701.029710,-10189.070123
851.866773,74.020594,-1184.329507,-11568.042020
851.867093,1258.350101,148.041188,-10495.508323
851.867413,2516.700203,740.205942,-10495.508323
851.867733,2368.659014,888.247130,-10725.336972
851.868053,1924.535449,-296.082377,-10725.336972
851.868373,148.041188,-2072.576638,-10648.727422
851.868693,-1924.535449,-3701.029710,-10112.460574
851.869013,-3478.967927,-4367.215058,-9882.631924
851.869333,-5403.503377,-4441.235652,-9806.022374
851.869653,-6735.874072,-5107.421000,-9269.755526
851.869973,-4737.318029,-5699.585753,-9193.145976
851.870293,-814.226536,-5329.482782,-9806.022374
851.870613,1332.370696,-3182.885551,-10035.851024
851.870933,2664.741391,-888.247130,-10035.851024
851.871253,3627.009116,962.267725,-10265.679673
851.871573,4441.235652,1850.514855,-10572.117872
851.871893,3404.947333,2220.617826,-10878.556072
851.872213,-222.061783,888.247130,-10648.727422
851.872533,-4441.235652,-1332.370696,-10189.070123
851.872853,-5995.668130,-4071.132681,-9576.193725
851.873173,-5699.585753,-5921.647536,-9576.193725
851.873493,-4737.318029,-7328.038826,-9269.755526
851.873813,-4071.132681,-6735.874072,-9269.755526
851.874133,-2294.638420,-4219.173869,-9652.803275
851.874453,370.102971,0.000000,-10342.289223
851.874773,1998.556043,2886.803174,-10878.556072
851.875093,1554.432478,5033.400406,-10572.117872
851.875413,1776.494261,4071.132681,-10725.336972
851.875733,2516.700203,1850.514855,-11184.994271
851.876053,1850.514855,-1406.391290,-10342.289223
851.876373,-1628.453072,-2590.720797,-10265.679673
851.876693,-4515.256246,-2368.659014,-10801.946522
851.877013,-6217.729913,-2442.679609,-9806.022374
851.877333,-6883.915261,-3330.926739,-9882.631924
851.877653,-8068.244768,-4737.318029,-9193.145976
851.877973,-6883.915261,-5699.585753,-9346.365076
851.878293,-2812.782580,-3627.009116,-9193.145976
851.878613,1998.556043,-444.123565,-10495.508323
851.878933,3775.050304,2886.803174,-10878.556072
851.879253,3256.906145,4959.379811,-10801.946522
851.879573,1776.494261,5181.441594,-10648.727422
851.879893,2220.617826,2886.803174,-10572.117872
851.880213,2294.638420,370.102971,-10878.556072
851.880533,-592.164754,-2812.782580,-10495.508323
851.880853,-4663.297435,-5551.544565,-9882.631924
851.881173,-7624.121203,-5033.400406,-9269.755526
851.881493,-8882.471304,-3997.112087,-9039.926876
851.881813,-7476.080014,-3849.070898,-8886.707777
851.882134,-3478.967927,-3997.112087,-9116.536426
851.882454,296.082377,-3849.070898,-8503.660028
851.882774,2812.782580,-2812.782580,-9959.241474
851.883094,2516.700203,-1036.288319,-10035.851024
851.883414,3182.885551,444.123565,-9806.022374
851.883734,3997.112087,2220.617826,-10265.679673
851.884054,4367.215058,3256.906145,-10265.679673
851.884374,1850.514855,2072.576638,-10801.946522
851.884694,-2516.700203,-592.164754,-10418.898773
851.885014,-6143.709319,-3256.906145,-10035.851024
851.885334,-7105.977043,-5329.482782,-9959.241474
851.885654,-6217.729913,-8068.244768,-9576.193725
851.885974,-5477.523971,-9178.553681,-9269.755526
851.886294,-5107.421000,-6809.894666,-9499.584175
851.886614,-2442.679609,-3182.885551,-11031.775171
851.886934,2072.576638,592.164754,-11031.775171
851.887254,5921.647536,3330.926739,-11261.603821
851.887574,6069.688724,3923.091493,-11568.042020
851.887894,2960.823768,2146.597232,-11184.994271
851.888214,-370.102971,592.164754,-10878.556072
851.888534,-2516.700203,-2812.782580,-10189.070123
851.888854,-3775.050304,-4737.318029,-10189.070123
851.889174,-4885.359217,-5921.647536,-10112.460574
851.889494,-7254.018232,-6809.894666,-9422.974625
851.889814,-7624.121203,-6365.771101,-8886.707777
851.890134,-5033.400406,-6365.771101,-9806.022374
851.890454,-2664.741391,-4663.297435,-9806.022374
851.890774,-1850.514855,-3627.009116,-9499.584175
851.891094,-1036.288319,-444.123565,-8963.317327
851.891414,814.226536,666.185348,-9652.803275
851.891734,3552.988522,148.041188,-10725.336972
851.892054,4737.318029,1110.308913,-10495.508323
851.892374,2590.720797,222.061783,-10418.898773
851.892694,592.164754,-2220.617826,-10265.679673
851.893014,-1036.288319,-3478.967927,-10112.460574
851.893334,-3552.988522,-3108.864956,-9806.022374
851.893654,-7105.977043,-3478.967927,-9576.193725
851.893974,-5625.565159,-5329.482782,-9193.145976
851.894294,-3404.947333,-4441.235652,-9652.803275
851.894614,-2368.659014,-3404.947333,-10035.851024
851.894934,-1332.370696,-1924.535449,-10112.460574
851.895254,1554.432478,-592.164754,-10418.898773
851.895574,3256.906145,1184.329507,-10878.556072
851.895894,3182.885551,3034.844362,-10955.165621
851.896214,2072.576638,4589.276840,-11261.603821
851.896534,2516.700203,2442.679609,-10572.117872
851.896854,1924.535449,-148.041188,-10955.165621
851.897174,-1332.370696,-1628.453072,-10342.289223
851.897494,-4737.318029,-4737.318029,-9806.022374
851.897814,-3849.070898,-4663.297435,-9729.412825
851.898134,-2812.782580,-2886.803174,-9959.241474
851.898454,-3256.906145,-1850.514855,-10035.851024
851.898774,-1998.556043,-740.205942,-9346.365076
851.899094,888.247130,-888.247130,-9576.193725
851.899414,3256.906145,0.000000,-10265.679673
851.899734,4737.318029,1480.411884,-9806.022374
851.900054,3775.050304,3404.947333,-10418.898773
851.900374,2960.823768,4293.194464,-10648.727422
851.900694,740.205942,3478.967927,-10342.289223
851.901014,222.061783,0.000000,-9882.631924
851.901334,-1998.556043,-3627.009116,-9346.365076
851.901654,-3627.009116,-5477.523971,-9116.536426
851.901974,-4441.235652,-4589.276840,-8963.317327
851.902294,-2516.700203,-888.247130,-9576.193725
851.902614,-1776.494261,1998.556043,-9729.412825
851.902934,-1480.411884,2812.782580,-10495.508323
851.903254,1480.411884,1776.494261,-9499.584175
851.903573,4219.173869,1850.514855,-10878.556072
851.903893,4441.235652,814.226536,-10801.946522
851.904213,5551.544565,1110.308913,-10572.117872
851.904533,3182.885551,1258.350101,-10878.556072
851.904853,2442.679609,2516.700203,-10572.117872
851.905173,-518.144159,3108.864956,-10342.289223
851.905493,-2146.597232,740.205942,-10265.679673
851.905812,-2368.659014,-888.247130,-9882.631924
851.906132,-2812.782580,-2368.659014,-10342.289223
851.906452,-1480.411884,-2368.659014,-10418.898773
851.906772,370.102971,-1702.473667,-9806.022374
851.907092,74.020594,-370.102971,-10035.851024
851.907412,-740.205942,2146.597232,-10418.898773
851.907732,1258.350101,3108.864956,-10648.727422
851.908051,3701.029710,3034.844362,-9882.631924
851.908371,4663.297435,2886.803174,-10418.898773
851.908691,3552.988522,1036.288319,-10648.727422
851.909011,3330.926739,0.000000,-10495.508323
851.909331,814.226536,-444.123565,-10189.070123
851.909651,-2442.679609,-1036.288319,-9422.974625
851.909971,-4589.276840,-1332.370696,-9193.145976
851.910290,-4071.132681,-2738.761985,-9652.803275
851.910610,-1924.535449,-3108.864956,-8963.317327
851.910930,518.144159,-2442.679609,-9039.926876
851.911250,1110.308913,-2442.679609,-9499.584175
851.911570,1036.288319,-962.267725,-9806.022374
851.911890,222.061783,2072.576638,-9882.631924
851.912210,1036.288319,3849.070898,-10648.727422
851.912529,2072.576638,4293.194464,-10572.117872
851.912849,1628.453072,1776.494261,-10725.336972
851.913169,2294.638420,-740.205942,-10112.460574
851.913489,1998.556043,-592.164754,-10878.556072
851.913809,0.000000,-1998.556043,-11261.603821
851.914129,-3404.947333,-2590.720797,-10035.851024
851.914449,-3256.906145,-1924.535449,-9806.022374
851.914768,-3775.050304,-1628.453072,-9959.241474
851.915088,-1258.350101,-1850.514855,-10265.679673
851.915408,1776.494261,-1332.370696,-10265.679673
851.915728,2590.720797,444.123565,-10878.556072
851.916048,2294.638420,2886.803174,-10725.336972
851.916368,2886.803174,3997.112087,-10878.556072
851.916688,3034.844362,2146.597232,-11184.994271
851.917007,962.267725,1036.288319,-10572.117872
851.917327,-370.102971,0.000000,-10572.117872
851.917647,740.205942,-1998.556043,-10495.508323
851.917967,148.041188,-1184.329507,-9959.241474
851.918287,-2368.659014,-2590.720797,-9806.022374
851.918607,-3108.864956,-1776.494261,-9576.193725
851.918927,-1850.514855,-1998.556043,-9576.193725
851.919246,148.041188,-1850.514855,-9806.022374
851.919566,2960.823768,-222.061783,-9422.974625
851.919886,3701.029710,222.061783,-10265.679673
851.920206,3404.947333,1184.329507,-9422.974625
851.920526,2368.659014,1554.432478,-9806.022374
851.920846,2368.659014,1924.535449,-9346.365076
851.921166,2146.597232,888.247130,-10265.679673
851.921485,444.123565,518.144159,-9806.022374
851.921805,444.123565,-1628.453072,-10342.289223
851.922125,-592.164754,-3404.947333,-9806.022374
851.922445,-1850.514855,-3627.009116,-9269.755526
851.922765,-3997.112087,-1776.494261,-9116.536426
851.923085,-2146.597232,-1184.329507,-9959.241474
851.923405,592.164754,-592.164754,-9806.022374
851.923725,1628.453072,888.247130,-10342.289223
851.924044,2960.823768,2220.617826,-10955.165621
851.924364,3701.029710,2812.782580,-10878.556072
851.924684,3256.906145,4145.153275,-10725.336972
851.925004,2294.638420,2886.803174,-10648.727422
851.925324,962.267725,666.185348,-10418.898773
851.925644,222.061783,-666.185348,-10189.070123
851.925964,-888.247130,-2442.679609,-10725.336972
851.926283,-1776.494261,-2294.638420,-10035.851024
851.926603,-1480.411884,-740.205942,-10495.508323
851.926923,-1554.432478,1184.329507,-10342.289223
851.927243,444.123565,1850.514855,-10112.460574
851.927563,1850.514855,1406.391290,-10648.727422
851.927883,2072.576638,0.000000,-9422.974625
851.928203,3034.844362,-222.061783,-10342.289223
851.928522,3775.050304,-444.123565,-10112.460574
851.928842,2146.597232,814.226536,-10189.070123
851.929162,-518.144159,2812.782580,-10112.460574
851.929482,-1924.535449,3775.050304,-8886.707777
851.929802,-1184.329507,1702.473667,-9806.022374
851.930122,-814.226536,-740.205942,-9729.412825
851.930442,-888.247130,-1924.535449,-9499.584175
851.930761,-888.247130,-2960.823768,-9193.145976
851.931081,222.061783,-3256.906145,-9269.755526
851.931401,0.000000,-2590.720797,-8886.707777
851.931721,-370.102971,518.144159,-8963.317327
851.932041,74.020594,2664.741391,-9806.022374
851.932361,1036.288319,2960.823768,-9269.755526
851.932681,2146.597232,2368.659014,-10189.070123
851.933000,2442.679609,1258.350101,-10418.898773
851.933320,2516.700203,592.164754,-10265.679673
851.933640,0.000000,148.041188,-9806.022374
851.933960,-1480.411884,0.000000,-10648.727422
851.934280,-2664.741391,296.082377,-10035.851024
851.934600,-3330.926739,74.020594,-10342.289223
851.934920,-2146.597232,-1406.391290,-10495.508323
851.935239,-296.082377,-1628.453072,-10112.460574
851.935559,666.185348,296.082377,-10725.336972
851.935879,1258.350101,2220.617826,-10878.556072
851.936199,2368.659014,2516.700203,-11184.994271
851.936519,2220.617826,3627.009116,-11184.994271
851.936839,1258.350101,3108.864956,-10801.946522
851.937159,1702.473667,2146.597232,-10495.508323
851.937478,1628.453072,1184.329507,-10572.117872
851.937798,592.164754,-296.082377,-10801.946522
851.938118,-1258.350101,-666.185348,-10035.851024
851.938438,-1554.432478,-1554.432478,-9729.412825
851.938758,-592.164754,-1332.370696,-9729.412825
851.939078,1036.288319,-1184.329507,-10035.851024
851.939398,1776.494261,-222.061783,-9806.022374
851.939717,2072.576638,962.267725,-9806.022374
851.940037,1184.329507,2146.597232,-9806.022374
851.940357,1184.329507,3108.864956,-9806.022374
851.940677,1332.370696,1258.350101,-9959.241474
851.940997,1998.556043,1258.350101,-9499.584175
851.941317,1850.514855,-814.226536,-9959.241474
851.941637,3182.885551,-2368.659014,-9576.193725
851.941957,2886.803174,-814.226536,-9959.241474
851.942276,370.102971,1184.329507,-10801.946522
851.942596,-518.144159,370.102971,-9652.803275
851.942916,-148.041188,-222.061783,-9959.241474
851.943236,296.082377,-1110.308913,-10035.851024
851.943556,1258.350101,-3108.864956,-9499.584175
851.943876,2516.700203,-1332.370696,-10418.898773
851.944196,2664.741391,592.164754,-10495.508323
851.944515,1554.432478,5107.421000,-10801.946522
851.944835,740.205942,3997.112087,-10495.508323
851.945155,1406.391290,3034.844362,-10648.727422
851.945475,1628.453072,296.082377,-10495.508323
851.945795,-370.102971,-1628.453072,-10495.508323
851.946115,-814.226536,-1332.370696,-10418.898773
851.946435,-2590.720797,-1184.329507,-10342.289223
851.946754,-2220.617826,-444.123565,-10648.727422
851.947074,-888.247130,0.000000,-9576.193725
851.947394,-1110.308913,-444.123565,-10112.460574
851.947714,-1480.411884,962.267725,-10495.508323
851.948034,1406.391290,1850.514855,-10878.556072
851.948354,2590.720797,1702.473667,-10725.336972
851.948674,3701.029710,2442.679609,-10648.727422
851.948993,2368.659014,1628.453072,-10189.070123
851.949313,1924.535449,0.000000,-10572.117872
851.949633,518.144159,-370.102971,-9806.022374
851.949953,-518.144159,0.000000,-9652.803275
851.950273,-740.205942,-740.205942,-9806.022374
851.950593,-2220.617826,0.000000,-9499.584175
851.950913,-3404.947333,-740.205942,-9652.803275
851.951232,-2146.597232,-2368.659014,-9346.365076
851.951552,-1110.308913,-2368.659014,-9346.365076
851.951872,-1036.288319,-962.267725,-9576.193725
851.952192,518.144159,1110.308913,-10035.851024
851.952512,2960.823768,1776.494261,-10112.460574
851.952832,3256.906145,814.226536,-10035.851024
851.953152,1850.514855,-148.041188,-9882.631924
851.953471,1036.288319,-592.164754,-9806.022374
851.953791,888.247130,0.000000,-10725.336972
851.954111,-444.123565,444.123565,-10265.679673
851.954431,-1628.453072,-370.102971,-10648.727422
851.954751,-1406.391290,-148.041188,-10418.898773
851.955071,-2368.659014,0.000000,-10265.679673
851.955391,-2146.597232,-444.123565,-11031.775171
851.955710,0.000000,-666.185348,-10572.117872
851.956030,1036.288319,444.123565,-10189.070123
851.956350,1628.453072,740.205942,-10801.946522
851.956670,2590.720797,814.226536,-10572.117872
851.956990,1480.411884,1258.350101,-10955.165621
851.957310,0.000000,962.267725,-10418.898773
851.957630,-666.185348,1406.391290,-9959.241474
851.957949,1776.494261,666.185348,-10418.898773
851.958269,1850.514855,666.185348,-9806.022374
851.958589,1332.370696,296.082377,-10648.727422
851.958909,296.082377,74.020594,-9652.803275
851.959229,962.267725,-148.041188,-10572.117872
851.959549,2146.597232,-148.041188,-9652.803275
851.959869,1702.473667,222.061783,-10035.851024
851.960188,2368.659014,1406.391290,-9806.022374
851.960508,148.041188,814.226536,-9806.022374
851.960828,1184.329507,444.123565,-9729.412825
851.961148,1332.370696,666.185348,-10035.851024
851.961468,2220.617826,814.226536,-9806.022374
851.961788,1924.535449,1702.473667,-9652.803275
851.962108,296.082377,1258.350101,-9959.241474
851.962428,-444.123565,370.102971,-9652.803275
851.962747,-1036.288319,-814.226536,-9806.022374
851.963067,-740.205942,-740.205942,-9959.241474
851.963387,1332.370696,-814.226536,-9576.193725
851.963707,1628.453072,-814.226536,-10189.070123
851.964027,1184.329507,0.000000,-10035.851024
851.964347,1776.494261,0.000000,-9806.022374
851.964667,1998.556043,296.082377,-10189.070123
851.964986,2664.741391,2442.679609,-10265.679673
851.965306,1480.411884,2812.782580,-10495.508323
851.965626,0.000000,1702.473667,-10418.898773
851.965946,-370.102971,-370.102971,-10189.070123
851.966266,-1332.370696,-1924.535449,-10035.851024
851.966586,-370.102971,-1184.329507,-9959.241474
851.966906,-370.102971,148.041188,-9806.022374
851.967225,-1332.370696,518.144159,-10725.336972
851.967545,0.000000,444.123565,-10418.898773
851.967865,222.061783,814.226536,-10189.070123
851.968185,-370.102971,1924.535449,-10342.289223
851.968505,888.247130,3034.844362,-10035.851024
851.968825,814.226536,2738.761985,-10648.727422
851.969145,814.226536,2960.823768,-10648.727422
851.969464,-962.267725,962.267725,-10189.070123
851.969784,2886.803174,1110.308913,-10035.851024
851.970104,2960.823768,1258.350101,-10189.070123
851.970424,2220.617826,1776.494261,-10418.898773
851.970744,592.164754,296.082377,-9806.022374
851.971064,-296.082377,-2220.617826,-9806.022374
851.971384,-814.226536,-3330.926739,-8810.098227
851.971703,-1480.411884,-2664.741391,-9652.803275
851.972023,444.123565,-1332.370696,-9269.755526
851.972343,1776.494261,1258.350101,-10112.460574
851.972663,2220.617826,2664.741391,-10418.898773
851.972983,3552.988522,2368.659014,-9806.022374
851.973303,2368.659014,444.123565,-10035.851024
851.973623,1184.329507,-962.267725,-11184.994271
851.973942,1628.453072,-1480.411884,-9422.974625
851.974262,1480.411884,-1110.308913,-9882.631924
851.974582,888.247130,740.205942,-10189.070123
851.974902,-1406.391290,1554.432478,-9882.631924
851.975222,-1110.308913,592.164754,-10112.460574
851.975542,-592.164754,1184.329507,-9959.241474
851.975862,666.185348,814.226536,-10342.289223
851.976181,1184.329507,222.061783,-10342.289223
851.976501,296.082377,666.185348,-10342.289223
851.976821,148.041188,148.041188,-10035.851024
851.977141,-888.247130,2072.576638,-10495.508323
851.977461,-1480.411884,1184.329507,-9959.241474
851.977781,-1480.411884,2146.597232,-11031.775171
851.978101,-2368.659014,1110.308913,-9959.241474
851.978420,-1184.329507,0.000000,-10189.070123
851.978740,-296.082377,-518.144159,-10418.898773
851.979060,-1110.308913,-1480.411884,-9729.412825
851.979380,-2812.782580,-1480.411884,-9269.755526
851.979700,-296.082377,0.000000,-10572.117872
851.980020,814.226536,888.247130,-9729.412825
851.980340,1110.308913,2516.700203,-10878.556072
851.980660,1850.514855,3182.885551,-10418.898773
851.980979,2072.576638,2738.761985,-11184.994271
851.981299,2664.741391,740.205942,-10112.460574
851.981619,1924.535449,222.061783,-10112.460574
851.981939,814.226536,-222.061783,-10035.851024
851.982259,-592.164754,-370.102971,-10189.070123
851.982579,592.164754,0.000000,-10648.727422
851.982899,296.082377,1406.391290,-9882.631924
851.983218,0.000000,3552.988522,-10265.679673
851.983538,222.061783,3701.029710,-9959.241474
851.983858,1258.350101,3182.885551,-10035.851024
851.984178,962.267725,0.000000,-9806.022374
851.984498,2146.597232,-2368.659014,-9116.536426
851.984818,1184.329507,-2442.679609,-8810.098227
851.985138,1628.453072,-2368.659014,-8886.707777
851.985457,1998.556043,0.000000,-9959.241474
851.985777,148.041188,2294.638420,-9806.022374
851.986097,740.205942,2738.761985,-9806.022374
851.986417,1258.350101,74.020594,-9729.412825
851.986737,1036.288319,-1406.391290,-9882.631924
851.987057,296.082377,-1258.350101,-9652.803275
851.987377,1036.288319,-2146.597232,-10189.070123
851.987696,370.102971,-1628.453072,-9652.803275
851.988016,148.041188,-1036.288319,-9576.193725
851.988336,888.247130,-444.123565,-9959.241474
851.988656,666.185348,444.123565,-10495.508323
851.988976,1036.288319,1110.308913,-10648.727422
851.989296,1406.391290,888.247130,-10112.460574
851.989616,1184.329507,592.164754,-10572.117872
851.989935,-444.123565,740.205942,-10495.508323
851.990255,-148.041188,740.205942,-10265.679673
851.990575,-444.123565,666.185348,-10418.898773
851.990895,444.123565,-148.041188,-10725.336972
851.991215,74.020594,962.267725,-10342.289223
851.991535,74.020594,296.082377,-10189.070123
851.991855,-222.061783,148.041188,-10035.851024
851.992174,148.041188,0.000000,-10189.070123
851.992494,74.020594,0.000000,-9652.803275
851.992814,888.247130,-740.205942,-10035.851024
851.993134,1332.370696,1036.288319,-10112.460574
851.993454,888.247130,1776.494261,-10112.460574
851.993774,1554.432478,2072.576638,-10189.070123
851.994094,888.247130,2368.659014,-10112.460574
851.994413,148.041188,444.123565,-10035.851024
851.994733,-444.123565,-1036.288319,-9729.412825
851.995053,666.185348,-1406.391290,-9959.241474
851.995373,740.205942,-2220.617826,-9652.803275
851.995693,-444.123565,-1554.432478,-10035.851024
851.996013,0.000000,74.020594,-10035.851024
851.996333,-148.041188,1406.391290,-9806.022374
851.996652,-1110.308913,666.185348,-9806.022374
851.996972,1184.329507,370.102971,-10112.460574
851.997292,2294.638420,1110.308913,-10801.946522
851.997612,1184.329507,962.267725,-10418.898773
851.997932,370.102971,1110.308913,-10342.289223
851.998252,-370.102971,1258.350101,-10725.336972
851.998572,-1184.329507,518.144159,-10265.679673
851.998891,-1924.535449,0.000000,-10035.851024
851.999211,-1702.473667,74.020594,-10035.851024
851.999531,-1258.350101,222.061783,-9882.631924
851.999851,-1332.370696,1924.535449,-10725.336972
852.000171,74.020594,814.226536,-10112.460574
852.000491,666.185348,0.000000,-10342.289223
852.000811,1258.350101,148.041188,-10725.336972
852.001131,1776.494261,222.061783,-9576.193725
852.001450,2812.782580,370.102971,-10112.460574
852.001770,2664.741391,1554.432478,-10035.851024
852.002090,1184.329507,814.226536,-10572.117872
852.002410,2220.617826,-222.061783,-10189.070123
852.002730,740.205942,296.082377,-10112.460574
852.003050,-148.041188,1184.329507,-10189.070123
852.003370,-666.185348,1110.308913,-9652.803275
852.003690,-296.082377,814.226536,-9959.241474
852.004010,814.226536,0.000000,-9652.803275
852.004330,222.061783,-1110.308913,-9806.022374
852.004650,1332.370696,-888.247130,-9882.631924
852.004969,2368.659014,666.185348,-9959.241474
852.005289,2072.576638,1258.350101,-10189.070123
852.005609,1628.453072,2516.700203,-10265.679673
852.005929,370.102971,2220.617826,-10495.508323
852.006249,962.267725,1036.288319,-10342.289223
852.006569,1776.494261,-148.041188,-10035.851024
852.006889,1406.391290,444.123565,-10572.117872
852.007209,740.205942,1554.432478,-10648.727422
852.007529,222.061783,1184.329507,-10035.851024
852.007849,814.226536,-518.144159,-10495.508323
852.008169,962.267725,-444.123565,-10112.460574
852.008489,666.185348,-962.267725,-9346.365076
852.008808,444.123565,-518.144159,-10189.070123
852.009128,1554.432478,592.164754,-10189.070123
852.009448,518.144159,1554.432478,-10342.289223
852.009768,-740.205942,1850.514855,-9806.022374
852.010088,518.144159,296.082377,-10035.851024
852.010408,1332.370696,-1258.350101,-9882.631924
852.010728,592.164754,-1480.411884,-10265.679673
852.011048,-222.061783,-1480.411884,-9806.022374
852.011368,0.000000,-222.061783,-9882.631924
852.011688,-592.164754,370.102971,-9652.803275
852.012008,-1110.308913,888.247130,-9729.412825
852.012328,-444.123565,0.000000,-10112.460574
852.012648,0.000000,-296.082377,-9882.631924
852.012967,222.061783,-888.247130,-10342.289223
852.013287,1406.391290,-740.205942,-10418.898773
852.013607,1776.494261,962.267725,-9959.241474
852.013927,296.082377,2664.741391,-10725.336972
852.014247,-148.041188,3849.070898,-10418.898773
852.014567,222.061783,2960.823768,-11108.384721
852.014887,370.102971,296.082377,-10265.679673
852.015207,-370.102971,-1998.556043,-9959.241474
852.015527,-1036.288319,-3330.926739,-9959.241474
852.015847,-962.267725,-2516.700203,-10035.851024
852.016167,-814.226536,-1258.350101,-10112.460574
852.016487,222.061783,666.185348,-10112.460574
852.016806,666.185348,1036.288319,-10418.898773
852.017126,1406.391290,592.164754,-10342.289223
852.017446,1850.514855,666.185348,-10648.727422
852.017766,1332.370696,1036.288319,-9576.193725
852.018086,592.164754,1036.288319,-9882.631924
852.018406,-1480.411884,0.000000,-9959.241474
852.018726,-296.082377,-2294.638420,-9576.193725
852.019046,0.000000,-3034.844362,-9652.803275
852.019366,0.000000,-2294.638420,-9806.022374
852.019686,-296.082377,-666.185348,-9652.803275
852.020006,0.000000,1702.473667,-10648.727422
852.020326,-222.061783,2368.659014,-10112.460574
852.020646,-1628.453072,1702.473667,-9806.022374
852.020965,-666.185348,-1110.308913,-9576.193725
852.021285,0.000000,-2516.700203,-9193.145976
852.021605,444.123565,-2368.659014,-9806.022374
852.021925,2294.638420,-1110.308913,-9882.631924
852.022245,1924.535449,1480.411884,-10112.460574
852.022565,1628.453072,2442.679609,-10572.117872
852.022885,-444.123565,3034.844362,-10112.460574
852.023205,-888.247130,1258.350101,-10572.117872
852.023525,-888.247130,518.144159,-9959.241474
852.023845,0.000000,-518.144159,-10342.289223
852.024165,1776.494261,-1702.473667,-10035.851024
852.024485,1998.556043,-666.185348,-10495.508323
852.024804,1776.494261,962.267725,-10572.117872
852.025124,370.102971,2220.617826,-10189.070123
852.025444,592.164754,3404.947333,-11338.213370
852.025764,888.247130,4367.215058,-11338.213370
852.026084,1036.288319,4145.153275,-11184.994271
852.026404,1628.453072,3108.864956,-12027.699319
852.026724,1184.329507,1184.329507,-10495.508323
852.027044,1998.556043,592.164754,-10572.117872
852.027364,1554.432478,-296.082377,-10189.070123
852.027684,1406.391290,-592.164754,-9269.755526
852.028004,740.205942,666.185348,-10189.070123
852.028324,370.102971,1776.494261,-10342.289223
852.028644,1850.514855,2220.617826,-10572.117872
852.028963,1776.494261,1776.494261,-10112.460574
852.029283,518.144159,1702.473667,-10189.070123
852.029603,518.144159,1406.391290,-10035.851024
852.029923,814.226536,1554.432478,-10112.460574
852.030243,444.123565,1406.391290,-9346.365076
852.030563,370.102971,666.185348,-11031.775171
852.030883,3256.906145,888.247130,-9422.974625
852.031203,666.185348,148.041188,-9806.022374
852.031523,-296.082377,-1036.288319,-8503.660028
852.031843,-2146.597232,-1332.370696,-8963.317327
852.032163,518.144159,-3478.967927,-9039.926876
852.032483,1406.391290,-3034.844362,-8810.098227
852.032802,518.144159,-2220.617826,-9116.536426
852.033122,1998.556043,-592.164754,-9576.193725
852.033442,1554.432478,888.247130,-9959.241474
852.033762,74.020594,1406.391290,-9806.022374
852.034082,-1036.288319,740.205942,-10112.460574
852.034402,148.041188,-1036.288319,-9959.241474
852.034722,370.102971,-1924.535449,-10342.289223
852.035042,296.082377,-2072.576638,-10265.679673
852.035362,-962.267725,-592.164754,-10265.679673
852.035682,-2442.679609,1554.432478,-10725.336972
852.036002,-222.061783,2590.720797,-10878.556072
852.036322,962.267725,2664.741391,-10265.679673
852.036642,666.185348,1480.411884,-10725.336972
852.036961,-592.164754,-148.041188,-10955.165621
852.037281,740.205942,-1184.329507,-9959.241474
852.037601,1110.308913,444.123565,-10342.289223
852.037921,-666.185348,1332.370696,-10112.460574
852.038241,-962.267725,1628.453072,-10572.117872
852.038561,-1036.288319,666.185348,-10648.727422
852.038881,296.082377,666.185348,-10725.336972
852.039201,1184.329507,1702.473667,-9422.974625
852.039521,1036.288319,74.020594,-10955.165621
852.039841,0.000000,-296.082377,-9576.193725
852.040161,-2072.576638,-962.267725,-10418.898773
852.040481,-1258.350101,-1998.556043,-10189.070123
852.040801,-1110.308913,-2368.659014,-9193.145976
852.041120,370.102971,-1554.432478,-9806.022374
852.041440,1850.514855,-296.082377,-9729.412825
852.041760,2368.659014,814.226536,-10035.851024
852.042080,2146.597232,74.020594,-9806.022374
852.042400,-222.061783,0.000000,-9729.412825
852.042720,-296.082377,-1406.391290,-9499.584175
852.043040,0.000000,-1258.350101,-9729.412825
852.043360,518.144159,-1332.370696,-9346.365076
852.043680,1110.308913,-962.267725,-9499.584175
852.044000,1480.411884,370.102971,-10418.898773
852.044320,518.144159,1110.308913,-10035.851024
852.044640,592.164754,2368.659014,-9882.631924
852.044959,1184.329507,1184.329507,-10265.679673
852.045279,1776.494261,370.102971,-10035.851024
852.045599,1184.329507,222.061783,-10342.289223
852.045919,444.123565,740.205942,-10035.851024
852.046239,1036.288319,1406.391290,-9882.631924
852.046559,2072.576638,1036.288319,-10801.946522
852.046879,1480.411884,1332.370696,-10342.289223
852.047199,1480.411884,444.123565,-10572.117872
852.047519,666.185348,888.247130,-10342.289223
852.047839,0.000000,1036.288319,-10725.336972
852.048159,-222.061783,1332.370696,-10801.946522
852.048479,-666.185348,666.185348,-10495.508323
852.048799,-740.205942,1110.308913,-10189.070123
852.049118,-592.164754,666.185348,-10878.556072
852.049438,518.144159,0.000000,-10418.898773
852.049758,1332.370696,-518.144159,-9729.412825
852.050078,1184.329507,-518.144159,-10035.851024
852.050398,2294.638420,0.000000,-10572.117872
852.050718,1776.494261,888.247130,-10648.727422
852.051038,370.102971,814.226536,-9652.803275
852.051358,-296.082377,1036.288319,-9499.584175
852.051678,0.000000,444.123565,-9729.412825
852.051998,1184.329507,-1480.411884,-9499.584175
852.052318,962.267725,-1036.288319,-9576.193725
852.052638,2146.597232,-1258.350101,-9959.241474
852.052957,1554.432478,148.041188,-9652.803275
852.053277,-296.082377,592.164754,-9422.974625
852.053597,-740.205942,888.247130,-9729.412825
852.053917,-296.082377,1924.535449,-9806.022374
852.054237,74.020594,1258.350101,-10265.679673
852.054557,444.123565,814.226536,-10572.117872
852.054877,0.000000,518.144159,-10035.851024
852.055197,740.205942,-888.247130,-9882.631924
852.055517,1184.329507,-888.247130,-9959.241474
852.055837,1406.391290,-296.082377,-10189.070123
852.056157,148.041188,0.000000,-10342.289223
852.056477,296.082377,1406.391290,-10648.727422
852.056797,-518.144159,1850.514855,-10648.727422
852.057116,-296.082377,1998.556043,-10801.946522
852.057436,444.123565,1850.514855,-10725.336972
852.057756,296.082377,222.061783,-10648.727422
852.058076,1554.432478,-444.123565,-10878.556072
852.058396,1776.494261,-1554.432478,-10418.898773
852.058716,962.267725,-1258.350101,-10572.117872
852.059036,74.020594,-740.205942,-11797.870669
852.059356,-1702.473667,370.102971,-10955.165621
852.059676,-1480.411884,1480.411884,-10955.165621
852.059996,-148.041188,592.164754,-9806.022374
852.060316,1924.535449,0.000000,-10495.508323
852.060636,1554.432478,-1702.473667,-9806.022374
852.060955,666.185348,-2664.741391,-9882.631924
852.061275,592.164754,-1702.473667,-9882.631924
852.061595,-888.247130,-296.082377,-9729.412825
852.061915,-740.205942,444.123565,-9729.412825
852.062235,592.164754,518.144159,-9422.974625
852.062555,0.000000,1184.329507,-9806.022374
852.062875,-222.061783,74.020594,-9806.022374
852.063195,1628.453072,-1258.350101,-9729.412825
852.063515,2738.761985,-1850.514855,-9652.803275
852.063835,1628.453072,-1036.288319,-9499.584175
852.064155,-666.185348,-1184.329507,-9039.926876
852.064475,-296.082377,-1628.453072,-9269.755526
852.064795,0.000000,-740.205942,-9193.145976
852.065114,0.000000,-518.144159,-10112.460574
852.065434,518.144159,740.205942,-10189.070123
852.065754,0.000000,1406.391290,-10265.679673
852.066074,-222.061783,888.247130,-10035.851024
852.066394,370.102971,-444.123565,-10112.460574
852.066714,1850.514855,-1702.473667,-10648.727422
852.067034,1554.432478,-1924.535449,-10495.508323
852.067354,888.247130,-592.164754,-10801.946522
852.067674,0.000000,1776.494261,-10572.117872
852.067994,-518.144159,3108.864956,-10878.556072
852.068314,-370.102971,3775.050304,-10801.946522
852.068634,444.123565,2960.823768,-10725.336972
852.068953,1924.535449,1480.411884,-11108.384721
852.069273,1924.535449,0.000000,-10725.336972
852.069593,1406.391290,-740.205942,-10725.336972
852.069913,1850.514855,370.102971,-10572.117872
852.070233,1332.370696,370.102971,-10572.117872
852.070553,592.164754,814.226536,-10342.289223
852.070873,74.020594,1628.453072,-10035.851024
852.071193,666.185348,2442.679609,-9959.241474
852.071513,2442.679609,2590.720797,-10189.070123
852.071833,2886.803174,1258.350101,-9576.193725
852.072153,3182.885551,444.123565,-9882.631924
852.072473,1110.308913,-1554.432478,-9652.803275
852.072793,-740.205942,-1850.514855,-9269.755526
852.073112,0.000000,-888.247130,-9499.584175
852.073432,518.144159,740.205942,-9422.974625
852.073752,0.000000,2294.638420,-9806.022374
852.074072,-444.123565,4071.132681,-10189.070123
852.074392,0.000000,4737.318029,-10801.946522
852.074712,-222.061783,5033.400406,-9729.412825
852.075032,-370.102971,2960.823768,-10112.460574
852.075352,592.164754,-666.185348,-10035.851024
852.075672,1702.473667,-3627.009116,-9346.365076
852.075992,1036.288319,-5107.421000,-9193.145976
852.076312,444.123565,-3849.070898,-8963.317327
852.076632,296.082377,-814.226536,-9959.241474
852.076951,962.267725,2664.741391,-10265.679673
852.077271,222.061783,4441.235652,-10112.460574
852.077591,888.247130,3182.885551,-10725.336972
852.077911,148.041188,814.226536,-9806.022374
852.078231,-592.164754,-2146.597232,-9882.631924
852.078551,888.247130,-3627.009116,-9499.584175
852.078871,962.267725,-2664.741391,-9806.022374
852.079191,1258.350101,-888.247130,-9959.241474
852.079511,0.000000,740.205942,-9652.803275
852.079831,-666.185348,1702.473667,-10189.070123
852.080151,-444.123565,2146.597232,-10035.851024
852.080471,-296.082377,1924.535449,-9652.803275
852.080791,1258.350101,888.247130,-10495.508323
852.081110,1702.473667,296.082377,-10035.851024
852.081430,740.205942,-1406.391290,-9806.022374
852.081750,148.041188,-2294.638420,-9729.412825
852.082070,-592.164754,-1258.350101,-10112.460574
852.082390,-222.061783,-370.102971,-9806.022374
852.082710,-370.102971,1702.473667,-10035.851024
852.083030,148.041188,2368.659014,-10495.508323
852.083350,74.020594,2738.761985,-10572.117872
852.083670,-1184.329507,1554.432478,-10342.289223
852.083990,-444.123565,-296.082377,-10342.289223
852.084310,148.041188,-2738.761985,-10035.851024
852.084630,518.144159,-4515.256246,-9959.241474
852.084950,0.000000,-3775.050304,-10418.898773
852.085269,740.205942,-1702.473667,-9806.022374
852.085589,-1036.288319,1332.370696,-10495.508323
852.085909,-370.102971,2886.803174,-10495.508323
852.086229,1850.514855,1628.453072,-11031.775171
852.086549,1628.453072,148.041188,-10418.898773
852.086869,1110.308913,-2442.679609,-10495.508323
852.087189,370.102971,-3404.947333,-9729.412825
852.087509,-962.267725,-2812.782580,-9959.241474
852.087829,-1628.453072,-2146.597232,-9729.412825
852.088149,-222.061783,-740.205942,-9652.803275
852.088469,444.123565,1258.350101,-10342.289223
852.088789,740.205942,2294.638420,-10189.070123
852.089108,1332.370696,2368.659014,-10418.898773
852.089428,1110.308913,2368.659014,-10495.508323
852.089748,888.247130,1110.308913,-10035.851024
852.090068,148.041188,-740.205942,-10189.070123
852.090388,74.020594,-2146.597232,-8197.221829
852.090708,518.144159,-2220.617826,-9652.803275
852.091028,1184.329507,-740.205942,-9959.241474
852.091348,1554.432478,1850.514855,-10572.117872
852.091668,1850.514855,4367.215058,-10878.556072
852.091988,2368.659014,4589.276840,-9959.241474
852.092308,1850.514855,2516.700203,-10418.898773
852.092628,1258.350101,-888.247130,-9959.241474
852.092948,1702.473667,-2590.720797,-9729.412825
852.093267,740.205942,-3108.864956,-10342.289223
852.093587,1924.535449,-814.226536,-10342.289223
852.093907,2516.700203,1776.494261,-10495.508323
852.094227,1998.556043,3182.885551,-10801.946522
852.094547,-222.061783,3627.009116,-9499.584175
852.094867,-296.082377,2960.823768,-10265.679673
852.095187,518.144159,1776.494261,-10112.460574
852.095507,4219.173869,-592.164754,-9652.803275
852.095827,2516.700203,-2516.700203,-10495.508323
852.096147,1554.432478,-2368.659014,-9116.536426
852.096467,-148.041188,-1184.329507,-9652.803275
852.096787,-1702.473667,814.226536,-9422.974625
852.097106,296.082377,3330.926739,-10342.289223
852.097426,1110.308913,4441.235652,-10342.289223
852.097746,740.205942,3849.070898,-10112.460574
852.098066,666.185348,1184.329507,-9882.631924
852.098386,370.102971,-592.164754,-9882.631924
852.098706,-592.164754,-1924.535449,-9499.584175
852.099026,-222.061783,-2072.576638,-9193.145976
852.099346,814.226536,-1258.350101,-9806.022374
852.099666,518.144159,888.247130,-9729.412825
852.099986,-740.205942,2294.638420,-10189.070123
852.100306,-666.185348,3108.864956,-9882.631924
852.100626,-962.267725,3330.926739,-9959.241474
852.100946,-1406.391290,2664.741391,-10189.070123
852.101265,-1036.288319,148.041188,-9806.022374
852.101585,814.226536,-1998.556043,-10112.460574
852.101905,1406.391290,-3775.050304,-9652.803275
852.102225,1480.411884,-3478.967927,-9729.412825
852.102545,0.000000,-518.144159,-10342.289223
852.102865,0.000000,2368.659014,-10418.898773
852.103185,0.000000,4737.318029,-11951.089769
852.103505,296.082377,3849.070898,-10801.946522
852.103825,1628.453072,1702.473667,-10725.336972
852.104145,0.000000,-1480.411884,-10189.070123
852.104465,-814.226536,-2886.803174,-10342.289223
852.104784,370.102971,-2590.720797,-11031.775171
852.105104,74.020594,-888.247130,-10035.851024
852.105424,-370.102971,1332.370696,-10495.508323
852.105744,-888.247130,1998.556043,-9806.022374
852.106064,0.000000,1036.288319,-10648.727422
852.106384,592.164754,1184.329507,-10112.460574
852.106704,2294.638420,1480.411884,-10418.898773
852.107024,1628.453072,1036.288319,-10572.117872
852.107344,518.144159,-666.185348,-9729.412825
852.107663,-518.144159,-1554.432478,-9576.193725
852.107983,1110.308913,-1998.556043,-9806.022374
852.108303,148.041188,-1702.473667,-9576.193725
852.108623,-370.102971,-814.226536,-9576.193725
852.108943,1036.288319,-222.061783,-10035.851024
852.109263,1554.432478,1924.535449,-10418.898773
852.109583,-222.061783,1036.288319,-9806.022374
852.109903,-444.123565,740.205942,-9806.022374
852.110223,-222.061783,0.000000,-8810.098227
852.110542,1184.329507,-888.247130,-9806.022374
852.110862,1998.556043,-2072.576638,-9882.631924
852.111182,1258.350101,-962.267725,-9959.241474
852.111502,740.205942,814.226536,-10189.070123
852.111822,296.082377,2072.576638,-9576.193725
852.112142,296.082377,2368.659014,-9959.241474
852.112462,-370.102971,1628.453072,-10189.070123
852.112782,74.020594,592.164754,-10418.898773
852.113101,1184.329507,0.000000,-10572.117872
852.113421,1628.453072,-1554.432478,-10035.851024
852.113741,1406.391290,-1036.288319,-10112.460574
852.114061,592.164754,592.164754,-10342.289223
852.114381,1258.350101,1480.411884,-10112.460574
852.114701,1924.535449,2738.761985,-10418.898773
852.115021,1258.350101,2368.659014,-10495.508323
852.115341,592.164754,1554.432478,-10495.508323
852.115661,1554.432478,0.000000,-10495.508323
852.115980,1258.350101,-1702.473667,-9806.022374
852.116300,814.226536,-1480.411884,-9576.193725
852.116620,148.041188,-518.144159,-10035.851024
852.116940,518.144159,0.000000,-10342.289223
852.117260,888.247130,1110.308913,-10725.336972
852.117580,296.082377,2516.700203,-10955.165621
852.117900,74.020594,2738.761985,-10189.070123
852.118220,-222.061783,2664.741391,-10112.460574
852.118540,518.144159,1998.556043,-9882.631924
852.118859,1184.329507,0.000000,-9959.241474
852.119179,1998.556043,-1628.453072,-9806.022374
852.119499,1110.308913,-1924.535449,-9269.755526
852.119819,2738.761985,-1776.494261,-9346.365076
852.120139,4515.256246,888.247130,-10189.070123
852.120459,2146.597232,1850.514855,-10035.851024
852.120779,-1406.391290,2442.679609,-9729.412825
852.121099,-1776.494261,1554.432478,-9959.241474
852.121418,-1258.350101,0.000000,-9806.022374
852.121738,-1036.288319,-888.247130,-10035.851024
852.122058,0.000000,-1480.411884,-9959.241474
852.122378,0.000000,0.000000,-9806.022374
852.122698,-592.164754,1258.350101,-9729.412825
852.123018,-666.185348,1776.494261,-10648.727422
852.123338,-814.226536,1702.473667,-10265.679673
852.123658,74.020594,888.247130,-10035.851024
852.123978,814.226536,0.000000,-9882.631924
852.124297,1998.556043,-592.164754,-10418.898773
852.124617,1258.350101,-296.082377,-12104.308868
852.124937,-296.082377,0.000000,-10725.336972
852.125257,-1258.350101,888.247130,-10648.727422
852.125577,-740.205942,1036.288319,-10495.508323
852.125897,0.000000,1036.288319,-10572.117872
852.126217,518.144159,1554.432478,-10495.508323
852.126537,518.144159,1850.514855,-11108.384721
852.126857,-370.102971,1332.370696,-10725.336972
852.127176,-1406.391290,814.226536,-10495.508323
852.127496,-814.226536,-592.164754,-9652.803275
852.127816,-962.267725,-1258.350101,-9806.022374
852.128136,-814.226536,-814.226536,-10112.460574
852.128456,740.205942,-740.205942,-9882.631924
852.128776,2368.659014,0.000000,-9882.631924
852.129096,1776.494261,-518.144159,-9806.022374
852.129416,444.123565,-592.164754,-9576.193725
852.129735,-296.082377,-814.226536,-9576.193725
852.130055,-518.144159,148.041188,-9422.974625
852.130375,296.082377,296.082377,-9652.803275
852.130695,2368.659014,-222.061783,-10035.851024
852.131015,3108.864956,-370.102971,-9959.241474
852.131335,2516.700203,-740.205942,-9652.803275
852.131655,666.185348,-296.082377,-9422.974625
852.131975,-592.164754,-1036.288319,-9499.584175
852.132295,-592.164754,148.041188,-9806.022374
852.132614,-296.082377,-296.082377,-9959.241474
852.132934,296.082377,0.000000,-9882.631924
852.133254,962.267725,592.164754,-10418.898773
852.133574,296.082377,1184.329507,-10189.070123
852.133894,740.205942,1258.350101,-10418.898773
852.134214,1110.308913,740.205942,-10955.165621
852.134534,1776.494261,370.102971,-10418.898773
852.134854,2294.638420,-222.061783,-10648.727422
852.135173,2072.576638,444.123565,-10572.117872
852.135493,370.102971,1184.329507,-10801.946522
852.135813,-148.041188,2368.659014,-11031.775171
852.136133,-370.102971,2146.597232,-10265.679673
852.136453,666.185348,1628.453072,-10418.898773
852.136773,1554.432478,-148.041188,-10418.898773
852.137093,2072.576638,-1776.494261,-10342.289223
852.137413,1850.514855,-370.102971,-10189.070123
852.137733,-666.185348,370.102971,-9882.631924
852.138052,-1924.535449,2442.679609,-10035.851024
852.138372,-1628.453072,2738.761985,-10189.070123
852.138692,-222.061783,1924.535449,-9882.631924
852.139012,888.247130,444.123565,-9806.022374
852.139332,1628.453072,-1258.350101,-9806.022374
852.139652,1998.556043,-1998.556043,-9882.631924
852.139972,1184.329507,-814.226536,-9806.022374
852.140292,666.185348,1184.329507,-9193.145976
852.140612,370.102971,1702.473667,-9806.022374
852.140931,814.226536,1628.453072,-10035.851024
852.141251,222.061783,0.000000,-9576.193725
852.141571,1110.308913,-1258.350101,-9652.803275
852.141891,2664.741391,0.000000,-9729.412825
852.142211,1924.535449,0.000000,-9652.803275
852.142531,296.082377,0.000000,-10035.851024
852.142851,148.041188,0.000000,-10189.070123
852.143171,518.144159,740.205942,-10189.070123
852.143490,148.041188,888.247130,-9959.241474
852.143810,0.000000,1480.411884,-10035.851024
852.144130,0.000000,1924.535449,-10648.727422
852.144450,296.082377,1850.514855,-9806.022374
852.144770,1628.453072,444.123565,-10265.679673
852.145090,1924.535449,-296.082377,-10189.070123
852.145410,1924.535449,-148.041188,-10572.117872
852.145730,2368.659014,1184.329507,-11031.775171
852.146050,2294.638420,1776.494261,-10572.117872
852.146369,370.102971,2220.617826,-10418.898773
852.146689,0.000000,1628.453072,-10648.727422
852.147009,148.041188,0.000000,-9959.241474
852.147329,814.226536,-1036.288319,-11108.384721
852.147649,962.267725,-1184.329507,-10342.289223
852.147969,148.041188,0.000000,-10035.851024
852.148289,296.082377,1776.494261,-10648.727422
852.148609,74.020594,2146.597232,-10342.289223
852.148929,-1036.288319,2442.679609,-10265.679673
852.149248,-1628.453072,592.164754,-9806.022374
852.149568,-1184.329507,-1036.288319,-9882.631924
852.149888,-1184.329507,-2368.659014,-9729.412825
852.150208,0.000000,-1998.556043,-9959.241474
852.150528,888.247130,-518.144159,-10342.289223
852.150848,-148.041188,962.267725,-9959.241474
852.151168,-1998.556043,1702.473667,-9269.755526
852.151488,-2294.638420,1702.473667,-9806.022374
852.151807,-2294.638420,1036.288319,-9269.755526
852.152127,-1110.308913,-888.247130,-9729.412825
852.152447,296.082377,-2220.617826,-9652.803275
852.152767,0.000000,-2220.617826,-9576.193725
852.153087,-592.164754,-1258.350101,-9499.584175
852.153407,740.205942,888.247130,-9959.241474
852.153727,1406.391290,2812.782580,-10265.679673
852.154047,814.226536,3404.947333,-10265.679673
852.154367,-296.082377,1998.556043,-10495.508323
852.154686,518.144159,-296.082377,-10495.508323
852.155006,1036.288319,-1258.350101,-10265.679673
852.155326,444.123565,-370.102971,-10189.070123
852.155646,-148.041188,888.247130,-10495.508323
852.155966,-222.061783,2072.576638,-10418.898773
852.156286,-148.041188,1554.432478,-10342.289223
852.156606,1850.514855,518.144159,-10725.336972
852.156926,2368.659014,-148.041188,-10648.727422
852.157246,296.082377,-962.267725,-10035.851024
852.157565,1184.329507,444.123565,-9882.631924
852.157885,1924.535449,1110.308913,-10418.898773
852.158205,2960.823768,1258.350101,-10342.289223
852.158525,1480.411884,0.000000,-10035.851024
852.158845,1036.288319,-1184.329507,-10035.851024
852.159165,2220.617826,-888.247130,-10035.851024
852.159485,1998.556043,222.061783,-10189.070123
852.159805,666.185348,962.267725,-9806.022374
852.160124,0.000000,814.226536,-9959.241474
852.160444,-370.102971,-444.123565,-10035.851024
852.160764,74.020594,-2146.597232,-9652.803275
852.161084,0.000000,-2812.782580,-9806.022374
852.161404,0.000000,-1702.473667,-10418.898773
852.161724,1258.350101,-740.205942,-9959.241474
852.162044,1702.473667,2294.638420,-10265.679673
852.162364,1480.411884,2368.659014,-10189.070123
852.162684,-518.144159,518.144159,-10112.460574
852.163003,444.123565,-1850.514855,-10189.070123
852.163323,1036.288319,-3478.967927,-9806.022374
852.163643,1110.308913,-2960.823768,-9882.631924
852.163963,962.267725,-1628.453072,-9959.241474
852.164283,-370.102971,74.020594,-10035.851024
852.164603,-518.144159,1850.514855,-10189.070123
852.164923,-888.247130,1554.432478,-10035.851024
852.165243,370.102971,296.082377,-10265.679673
852.165562,888.247130,-814.226536,-10418.898773
852.165882,1924.535449,-888.247130,-10035.851024
852.166202,740.205942,-1628.453072,-9959.241474
852.166522,814.226536,-1258.350101,-9806.022374
852.166842,740.205942,-888.247130,-10342.289223
852.167162,0.000000,74.020594,-9959.241474
852.167482,296.082377,1702.473667,-10342.289223
852.167802,1628.453072,2368.659014,-10495.508323
852.168122,1776.494261,2442.679609,-10572.117872
852.168441,1258.350101,888.247130,-10265.679673
852.168761,74.020594,-444.123565,-9806.022374
852.169081,-1480.411884,-1850.514855,-9729.412825
852.169401,-962.267725,-888.247130,-9882.631924
852.169721,370.102971,740.205942,-9959.241474
852.170041,1406.391290,1924.535449,-9039.926876
852.170361,1776.494261,2220.617826,-10418.898773
852.170681,1258.350101,1332.370696,-10648.727422
852.171001,1036.288319,-740.205942,-10112.460574
852.171320,666.185348,-1036.288319,-9959.241474
852.171640,0.000000,370.102971,-9806.022374
852.171960,-444.123565,2590.720797,-10572.117872
852.172280,518.144159,2886.803174,-10725.336972
852.172600,296.082377,1998.556043,-10418.898773
852.172920,-962.267725,740.205942,-9959.241474
852.173240,-666.185348,-1184.329507,-9806.022374
852.173560,0.000000,-1332.370696,-10035.851024
852.173879,296.082377,-666.185348,-10112.460574
852.174199,1110.308913,0.000000,-10495.508323
852.174519,962.267725,592.164754,-10418.898773
852.174839,74.020594,1924.535449,-10112.460574
852.175159,-740.205942,3404.947333,-10035.851024
852.175479,-814.226536,3701.029710,-10189.070123
852.175799,0.000000,2738.761985,-10342.289223
852.176119,518.144159,370.102971,-9959.241474
852.176439,1924.535449,-2294.638420,-9729.412825
852.176758,814.226536,-2146.597232,-9269.755526
852.177078,-148.041188,-666.185348,-9959.241474
852.177398,-148.041188,2516.700203,-10265.679673
852.177718,-148.041188,3923.091493,-9882.631924
852.178038,-370.102971,3775.050304,-9729.412825
852.178358,740.205942,1332.370696,-9806.022374
852.178678,2368.659014,-296.082377,-11184.994271
852.178998,1406.391290,-1332.370696,-10189.070123
852.179318,1850.514855,-370.102971,-9806.022374
852.179637,2146.597232,888.247130,-10035.851024
852.179957,2886.803174,1628.453072,-10112.460574
852.180277,2146.597232,1628.453072,-9882.631924
852.180597,814.226536,814.226536,-10572.117872
852.180917,1184.329507,592.164754,-9806.022374
852.181237,666.185348,814.226536,-10418.898773
852.181557,1554.432478,-222.061783,-10265.679673
852.181877,1406.391290,-1110.308913,-10418.898773
852.182196,444.123565,-1628.453072,-9652.803275
852.182516,-666.185348,-1480.411884,-10112.460574
852.182836,-666.185348,-740.205942,-9882.631924
852.183156,-296.082377,0.000000,-10801.946522
852.183476,370.102971,1332.370696,-10265.679673
852.183796,0.000000,1554.432478,-10035.851024
852.184116,962.267725,1184.329507,-10725.336972
852.184436,1480.411884,296.082377,-10572.117872
852.184756,1332.370696,-1036.288319,-10265.679673
852.185075,1998.556043,-1184.329507,-10418.898773
852.185395,1924.535449,-1184.329507,-9959.241474
852.185715,888.247130,148.041188,-10112.460574
852.186035,0.000000,148.041188,-9652.803275
852.186355,-222.061783,0.000000,-10112.460574
852.186675,-444.123565,-962.267725,-10112.460574
852.186995,-518.144159,-444.123565,-10035.851024
852.187315,0.000000,518.144159,-10112.460574
852.187635,0.000000,0.000000,-10342.289223
852.187954,-370.102971,-518.144159,-9959.241474
852.188274,-888.247130,-1036.288319,-9806.022374
852.188594,-1258.350101,-962.267725,-9882.631924
852.188914,-1110.308913,-444.123565,-10495.508323
852.189234,-1554.432478,-444.123565,-10035.851024
852.189554,962.267725,0.000000,-10495.508323
852.189874,1110.308913,444.123565,-10189.070123
852.190194,2294.638420,-296.082377,-10265.679673
852.190513,1628.453072,-1332.370696,-10112.460574
852.190833,1036.288319,-1480.411884,-10265.679673
852.191153,518.144159,-962.267725,-10189.070123
852.191473,370.102971,0.000000,-10189.070123
852.191793,518.144159,518.144159,-10648.727422
852.192113,666.185348,370.102971,-10648.727422
852.192433,444.123565,666.185348,-10418.898773
852.192753,814.226536,1184.329507,-10418.898773
852.193073,-592.164754,1480.411884,-10418.898773
852.193392,-1776.494261,444.123565,-10265.679673
852.193712,-1554.432478,-148.041188,-10112.460574
852.194032,-962.267725,-814.226536,-10495.508323
852.194352,0.000000,-148.041188,-9806.022374
852.194672,-444.123565,1406.391290,-9959.241474
852.194992,0.000000,2442.679609,-10189.070123
852.195312,1258.350101,3627.009116,-10495.508323
852.195632,3552.988522,3923.091493,-10801.946522
852.195951,3330.926739,2294.638420,-10112.460574
852.196271,2590.720797,592.164754,-9959.241474
852.196591,814.226536,-1036.288319,-9729.412825
852.196911,518.144159,-1776.494261,-8733.488677
852.197231,444.123565,-1036.288319,-9652.803275
852.197551,222.061783,518.144159,-9422.974625
852.197871,-592.164754,1628.453072,-9806.022374
852.198191,-592.164754,2220.617826,-10342.289223
852.198511,592.164754,2072.576638,-9806.022374
852.198830,518.144159,1406.391290,-9806.022374
852.199150,-518.144159,1406.391290,-9729.412825
852.199470,444.123565,1406.391290,-9959.241474
852.199790,296.082377,370.102971,-10112.460574
852.200110,2590.720797,-666.185348,-9729.412825
852.200430,2368.659014,370.102971,-10495.508323
852.200750,2886.803174,962.267725,-10035.851024
852.201070,592.164754,2146.597232,-10112.460574
852.201390,0.000000,2590.720797,-10495.508323
852.201709,962.267725,1924.535449,-9959.241474
852.202029,1406.391290,222.061783,-10342.289223
852.202349,1554.432478,-1406.391290,-9882.631924
852.202669,2146.597232,-1924.535449,-9959.241474
852.202989,1850.514855,-1036.288319,-8963.317327
852.203309,444.123565,740.205942,-10418.898773
852.203592,-296.082377,1702.473667,-10265.679673
852.203912,-592.164754,2368.659014,-10572.117872
852.204232,-444.123565,888.247130,-10418.898773
852.204552,814.226536,-1036.288319,-10112.460574
852.204872,740.205942,-1332.370696,-10495.508323
852.205192,-444.123565,-1480.411884,-10265.679673
852.205512,-814.226536,-962.267725,-10035.851024
852.205832,370.102971,-296.082377,-10725.336972
852.206152,222.061783,-296.082377,-10035.851024
852.206472,1406.391290,-888.247130,-10265.679673
852.206792,1110.308913,-592.164754,-9806.022374
852.207112,1480.411884,-518.144159,-10342.289223
852.207433,1184.329507,-1184.329507,-9806.022374
852.207753,222.061783,-1628.453072,-9806.022374
852.208073,0.000000,-1776.494261,-9806.022374
852.208393,-592.164754,-2516.700203,-9806.022374
852.208713,74.020594,-2886.803174,-9422.974625
852.209033,1184.329507,-2072.576638,-10035.851024
852.209353,1258.350101,-592.164754,-10112.460574
852.209673,-1110.308913,-148.041188,-10035.851024
852.209993,-1702.473667,0.000000,-9959.241474
852.210313,-1036.288319,-370.102971,-9882.631924
852.210633,148.041188,-814.226536,-9882.631924
852.210953,1110.308913,-962.267725,-10418.898773
852.211274,1554.432478,-1332.370696,-10418.898773
852.211594,222.061783,-1258.350101,-10112.460574
852.211914,-296.082377,0.000000,-10265.679673
852.212234,-666.185348,222.061783,-9882.631924
852.212554,-740.205942,1258.350101,-10572.117872
852.212874,-296.082377,1776.494261,-10648.727422
852.213194,-814.226536,1258.350101,-10495.508323
852.213514,740.205942,296.082377,-10648.727422
852.213834,814.226536,-1406.391290,-10112.460574
852.214154,-592.164754,-1924.535449,-10112.460574
852.214474,0.000000,-1702.473667,-10035.851024
852.214794,-592.164754,666.185348,-9882.631924
852.215115,222.061783,3182.885551,-10342.289223
852.215435,1036.288319,4367.215058,-11031.775171
852.215755,1036.288319,3775.050304,-10418.898773
852.216075,888.247130,444.123565,-10035.851024
852.216395,888.247130,-296.082377,-10035.851024
852.216715,444.123565,-740.205942,-9959.241474
852.217035,-444.123565,0.000000,-9806.022374
852.217355,1406.391290,1480.411884,-10035.851024
852.217675,1258.350101,1480.411884,-10112.460574
852.217995,222.061783,1110.308913,-10265.679673
852.218315,-148.041188,1184.329507,-9729.412825
852.218636,74.020594,1554.432478,-9959.241474
852.218956,2146.597232,1776.494261,-9882.631924
852.219276,3256.906145,2220.617826,-10035.851024
852.219596,2146.597232,2812.782580,-10112.460574
852.219916,962.267725,1110.308913,-9652.803275
852.220236,-370.102971,888.247130,-10035.851024
852.220556,1554.432478,814.226536,-9729.412825
852.220876,1258.350101,148.041188,-9422.974625
852.221196,0.000000,444.123565,-9269.755526
852.221516,370.102971,2220.617826,-9806.022374
852.221836,74.020594,2738.761985,-10112.460574
852.222156,814.226536,2220.617826,-10189.070123
852.222477,1480.411884,1924.535449,-10035.851024
852.222797,-296.082377,1480.411884,-9806.022374
852.223117,666.185348,2368.659014,-10342.289223
852.223437,2368.659014,1480.411884,-9959.241474
852.223757,2442.679609,666.185348,-9729.412825
852.224077,2738.761985,888.247130,-9959.241474
852.224397,2812.782580,1332.370696,-10035.851024
852.224717,1406.391290,1702.473667,-10342.289223
852.225037,-296.082377,2294.638420,-10342.289223
852.225357,-1258.350101,1406.391290,-9806.022374
852.225677,74.020594,888.247130,-10418.898773
852.225997,222.061783,-592.164754,-10189.070123
852.226318,592.164754,-1258.350101,-10189.070123
852.226638,148.041188,-814.226536,-10342.289223
852.226958,-962.267725,444.123565,-10112.460574
852.227278,-444.123565,1776.494261,-10189.070123
852.227598,-518.144159,444.123565,-10265.679673
852.227918,-1036.288319,-148.041188,-10112.460574
852.228238,-1184.329507,-1184.329507,-10265.679673
852.228558,1332.370696,-1406.391290,-9959.241474
852.228878,2812.782580,74.020594,-10495.508323
852.229198,1850.514855,222.061783,-10342.289223
852.229518,814.226536,222.061783,-10265.679673
852.229838,0.000000,-1184.329507,-10112.460574
852.230159,814.226536,-3034.844362,-9729.412825
852.230479,-518.144159,-2220.617826,-9346.365076
852.230799,-222.061783,-1776.494261,-9576.193725
852.231119,444.123565,-370.102971,-9959.241474
852.231439,592.164754,148.041188,-9806.022374
852.231759,0.000000,-148.041188,-9959.241474
852.232079,-444.123565,-370.102971,-9806.022374
852.232399,-1184.329507,-1406.391290,-10035.851024
852.232719,-962.267725,-1184.329507,-10572.117872
852.233039,592.164754,-1258.350101,-10035.851024
852.233359,888.247130,-888.247130,-10265.679673
852.233679,814.226536,-222.061783,-9959.241474
852.234000,1184.329507,-666.185348,-10112.460574
852.234320,2812.782580,-962.267725,-10418.898773
852.234640,3775.050304,-1480.411884,-10495.508323
852.234960,2886.803174,-1998.556043,-10495.508323
852.235280,1554.432478,-1702.473667,-10648.727422
852.235600,-296.082377,222.061783,-10265.679673
852.235920,-1554.432478,1924.535449,-10725.336972
852.236240,-1924.535449,666.185348,-10648.727422
852.236560,-370.102971,0.000000,-10648.727422
852.236880,-740.205942,-1628.453072,-10418.898773
852.237200,-296.082377,-1554.432478,-10418.898773
852.237520,370.102971,-888.247130,-10495.508323
852.237841,-370.102971,296.082377,-10265.679673
852.238161,-148.041188,814.226536,-9959.241474
852.238481,2146.597232,370.102971,-9269.755526
852.238801,2442.679609,-222.061783,-9806.022374
852.239121,962.267725,-962.267725,-9806.022374
852.239441,0.000000,0.000000,-9652.803275
852.239761,-148.041188,1036.288319,-10112.460574
852.240081,-148.041188,2664.741391,-9499.584175
852.240401,-444.123565,2664.741391,-9422.974625
852.240721,-518.144159,2072.576638,-9959.241474
852.241041,0.000000,666.185348,-9806.022374
852.241361,592.164754,-1258.350101,-9652.803275
852.241682,814.226536,-1480.411884,-9729.412825
852.242002,148.041188,0.000000,-9652.803275
852.242322,-1258.350101,1332.370696,-9729.412825
852.242642,0.000000,3478.967927,-9652.803275
852.242962,-370.102971,3701.029710,-10035.851024
852.243282,666.185348,2442.679609,-10189.070123
852.243602,1184.329507,1480.411884,-10035.851024
852.243922,3330.926739,666.185348,-10342.289223
852.244242,2886.803174,1110.308913,-10112.460574
852.244562,1406.391290,1924.535449,-10265.679673
852.244882,518.144159,2072.576638,-9959.241474
852.245202,962.267725,2516.700203,-10342.289223
852.245523,1702.473667,2738.761985,-10878.556072
852.245843,1258.350101,1776.494261,-10495.508323
852.246163,962.267725,1924.535449,-10342.289223
852.246483,370.102971,1924.535449,-10418.898773
852.246803,296.082377,2368.659014,-10035.851024
852.247123,888.247130,666.185348,-10342.289223
852.247443,1776.494261,0.000000,-10342.289223
852.247763,888.247130,-370.102971,-10112.460574
852.248083,888.247130,74.020594,-10035.851024
852.248403,1184.329507,1406.391290,-9806.022374
852.248723,888.247130,1924.535449,-10342.289223
852.249043,2146.597232,2812.782580,-9806.022374
852.249364,962.267725,740.205942,-10112.460574
852.249684,222.061783,-1036.288319,-9422.974625
852.250004,444.123565,-1628.453072,-9652.803275
852.250324,1036.288319,-2220.617826,-9346.365076
852.250644,1406.391290,-1036.288319,-9499.584175
852.250964,1110.308913,592.164754,-9806.022374
852.251284,0.000000,592.164754,-10572.117872
852.251604,-370.102971,148.041188,-9806.022374
852.251924,0.000000,-74.020594,-10035.851024
852.252244,0.000000,-666.185348,-9882.631924
852.252564,592.164754,-740.205942,-10648.727422
852.252884,888.247130,444.123565,-11721.261119
852.253205,370.102971,-444.123565,-10342.289223
852.253525,0.000000,-740.205942,-10725.336972
852.253845,-222.061783,-1554.432478,-10418.898773
852.254165,-1258.350101,-1554.432478,-10495.508323
852.254485,-962.267725,-518.144159,-10648.727422
852.254805,592.164754,592.164754,-10648.727422
852.255125,1258.350101,1258.350101,-11338.213370
852.255445,-296.082377,518.144159,-11184.994271
852.255765,-1406.391290,-444.123565,-10648.727422
852.256085,-148.041188,-592.164754,-10801.946522
852.256405,222.061783,-592.164754,-10418.898773
852.256725,148.041188,-814.226536,-10725.336972
852.257046,962.267725,-1184.329507,-9959.241474
852.257366,592.164754,-1110.308913,-9959.241474
852.257686,-962.267725,0.000000,-9882.631924
852.258006,-2738.761985,-222.061783,-9882.631924
852.258326,-2220.617826,-1110.308913,-9806.022374
852.258646,-444.123565,-1702.473667,-8886.707777
852.258966,1036.288319,-1480.411884,-9576.193725
852.259286,1110.308913,-296.082377,-9882.631924
852.259606,0.000000,592.164754,-9652.803275
852.259926,-222.061783,1332.370696,-9269.755526
852.260246,296.082377,370.102971,-9269.755526
852.260566,-518.144159,-740.205942,-9499.584175
852.260887,-148.041188,-2368.659014,-9193.145976
852.261207,296.082377,-2738.761985,-9652.803275
852.261527,2220.617826,-1480.411884,-9652.803275
852.261847,888.247130,518.144159,-9959.241474
852.262167,0.000000,2368.659014,-10265.679673
852.262487,148.041188,1998.556043,-10725.336972
852.262807,518.144159,74.020594,-9959.241474
852.263127,-592.164754,0.000000,-10418.898773
852.263447,518.144159,0.000000,-10035.851024
852.263767,888.247130,444.123565,-10495.508323
852.264087,1036.288319,1554.432478,-11031.775171
852.264407,962.267725,888.247130,-10418.898773
852.264728,814.226536,1258.350101,-11031.775171
852.265048,1184.329507,1258.350101,-10648.727422
852.265368,2072.576638,1628.453072,-10418.898773
852.265688,3256.906145,3182.885551,-10648.727422
852.266008,2664.741391,2368.659014,-10878.556072
852.266328,1110.308913,2220.617826,-10112.460574
852.266648,-370.102971,1036.288319,-9806.022374
852.266968,1036.288319,296.082377,-9959.241474
852.267288,3627.009116,-148.041188,-9959.241474
852.267608,4441.235652,0.000000,-9806.022374
852.267928,3849.070898,370.102971,-9652.803275
852.268248,2072.576638,888.247130,-9499.584175
852.268569,444.123565,1480.411884,-9499.584175
852.268889,-148.041188,1406.391290,-9806.022374
852.269209,-444.123565,1332.370696,-9576.193725
852.269529,-592.164754,1036.288319,-9882.631924
852.269849,-518.144159,666.185348,-9652.803275
852.270169,740.205942,1110.308913,-9652.803275
852.270489,740.205942,444.123565,-9806.022374
852.270809,1406.391290,1110.308913,-9806.022374
852.271129,666.185348,370.102971,-9729.412825
852.271449,-666.185348,222.061783,-9652.803275
852.271769,-444.123565,0.000000,-10112.460574
852.272089,1628.453072,222.061783,-9882.631924
852.272410,1110.308913,814.226536,-10572.117872
852.272730,0.000000,1554.432478,-9806.022374
852.273050,296.082377,2368.659014,-10112.460574
852.273370,888.247130,2664.741391,-10878.556072
852.273690,0.000000,1776.494261,-10418.898773
852.274010,-962.267725,518.144159,-10418.898773
852.274330,-740.205942,518.144159,-10112.460574
852.274650,-370.102971,-370.102971,-10418.898773
852.274970,0.000000,74.020594,-10418.898773
852.275290,-148.041188,518.144159,-10189.070123
852.275610,0.000000,962.267725,-9806.022374
852.275930,370.102971,740.205942,-10035.851024
852.276251,0.000000,962.267725,-10648.727422
852.276571,0.000000,74.020594,-10265.679673
852.276891,-222.061783,740.205942,-9806.022374
852.277211,-370.102971,1776.494261,-9806.022374
852.277531,814.226536,666.185348,-9882.631924
852.277851,592.164754,-592.164754,-9576.193725
852.278171,666.185348,-2368.659014,-9806.022374
852.278491,592.164754,-2664.741391,-9346.365076
852.278811,222.061783,-1480.411884,-9806.022374
852.279131,-1406.391290,-296.082377,-9576.193725
852.279451,-1406.391290,1628.453072,-9882.631924
852.279771,-1036.288319,1110.308913,-9959.241474
852.280092,-1036.288319,518.144159,-10035.851024
852.280412,-148.041188,-1110.308913,-9806.022374
852.280732,-592.164754,-2368.659014,-9576.193725
852.281052,814.226536,-2146.597232,-9806.022374
852.281372,1332.370696,-1628.453072,-9806.022374
852.281692,148.041188,-962.267725,-9882.631924
852.282012,1184.329507,0.000000,-10035.851024
852.282332,962.267725,666.185348,-10418.898773
852.282652,1036.288319,370.102971,-11108.384721
852.282972,740.205942,148.041188,-11491.432470
852.283292,370.102971,370.102971,-10495.508323
852.283612,-1110.308913,222.061783,-10265.679673
852.283933,-1036.288319,814.226536,-10265.679673
852.284253,-370.102971,370.102971,-11031.775171
852.284573,444.123565,-666.185348,-10495.508323
852.284893,592.164754,-740.205942,-10572.117872
852.285213,1036.288319,-888.247130,-10265.679673
852.285533,1480.411884,518.144159,-10112.460574
852.285853,962.267725,1406.391290,-10495.508323
852.286173,1184.329507,2220.617826,-10418.898773
852.286493,2368.659014,2294.638420,-10572.117872
852.286813,3182.885551,814.226536,-10265.679673
852.287133,3404.947333,-1332.370696,-10342.289223
852.287454,1924.535449,-1702.473667,-9806.022374
852.287774,-148.041188,-1850.514855,-9806.022374
852.288094,-1036.288319,-444.123565,-9576.193725
852.288414,148.041188,296.082377,-9806.022374
852.288734,1258.350101,1332.370696,-10189.070123
852.289054,1480.411884,1184.329507,-9882.631924
852.289374,0.000000,666.185348,-9882.631924
852.289694,740.205942,0.000000,-9806.022374
852.290014,0.000000,-740.205942,-9422.974625
852.290334,148.041188,-1036.288319,-9499.584175
852.290654,-370.102971,-1554.432478,-9499.584175
852.290974,444.123565,-592.164754,-9806.022374
852.291295,1702.473667,-666.185348,-9729.412825
852.291615,2220.617826,370.102971,-9806.022374
852.291935,1998.556043,740.205942,-10189.070123
852.292255,1332.370696,1702.473667,-9882.631924
852.292575,1110.308913,2072.576638,-10189.070123
852.292895,888.247130,1628.453072,-11108.384721
852.293215,-1110.308913,74.020594,-10189.070123
852.293535,-1776.494261,-1036.288319,-10112.460574
852.293855,-592.164754,-814.226536,-10265.679673
852.294175,444.123565,74.020594,-9806.022374
852.294495,222.061783,1628.453072,-10495.508323
852.294815,-222.061783,1110.308913,-10342.289223
852.295136,0.000000,2294.638420,-10648.727422
852.295456,2146.597232,2516.700203,-10572.117872
852.295776,1480.411884,222.061783,-10648.727422
852.296096,592.164754,-814.226536,-10265.679673
852.296416,-296.082377,-740.205942,-10189.070123
852.296736,-592.164754,-962.267725,-9499.584175
852.297056,1406.391290,1184.329507,-9806.022374
852.297376,2294.638420,1924.535449,-10648.727422
852.297696,1332.370696,1406.391290,-10112.460574
852.298016,222.061783,740.205942,-10495.508323
852.298336,0.000000,962.267725,-9729.412825
852.298656,-296.082377,1184.329507,-10035.851024
852.298977,-1332.370696,518.144159,-10035.851024
852.299297,-444.123565,296.082377,-9499.584175
852.299617,666.185348,-518.144159,-10035.851024
852.299937,962.267725,-370.102971,-9806.022374
852.300257,888.247130,296.082377,-9806.022374
852.300577,-148.041188,1258.350101,-9959.241474
852.300897,222.061783,2590.720797,-9499.584175
852.301217,370.102971,2886.803174,-10342.289223
852.301537,814.226536,1480.411884,-10035.851024
852.301857,740.205942,-592.164754,-9806.022374
852.302177,666.185348,-1258.350101,-9959.241474
852.302497,444.123565,-1110.308913,-9959.241474
852.302817,0.000000,888.247130,-10265.679673
852.303137,-666.185348,1554.432478,-9652.803275
852.303457,-1036.288319,1998.556043,-9959.241474
852.303777,296.082377,222.061783,-10189.070123
852.304097,-814.226536,-592.164754,-10035.851024
852.304417,-666.185348,-1184.329507,-9959.241474
852.304737,444.123565,-148.041188,-10265.679673
852.305057,2368.659014,518.144159,-10572.117872
852.305377,3478.967927,74.020594,-10189.070123
852.305697,1702.473667,296.082377,-9576.193725
852.306017,-518.144159,814.226536,-10572.117872
852.306337,-740.205942,740.205942,-10035.851024
852.306657,-740.205942,666.185348,-10878.556072
852.306977,2442.679609,222.061783,-10265.679673
852.307297,1110.308913,1332.370696,-10801.946522
852.307617,-518.144159,296.082377,-10495.508323
852.307937,-888.247130,-888.247130,-9652.803275
852.308257,666.185348,-888.247130,-9959.241474
852.308577,1332.370696,-888.247130,-10648.727422
852.308897,1628.453072,-296.082377,-10189.070123
852.309217,888.247130,518.144159,-10265.679673
852.309537,444.123565,962.267725,-9806.022374
852.309857,1258.350101,1554.432478,-9346.365076
852.310177,1702.473667,1702.473667,-9806.022374
852.310497,1110.308913,1036.288319,-9959.241474
852.310816,666.185348,-888.247130,-9576.193725
852.311136,666.185348,-2220.617826,-9806.022374
852.311456,1702.473667,-2886.803174,-9882.631924
852.311776,962.267725,-1998.556043,-9422.974625
852.312096,74.020594,-370.102971,-9422.974625
852.312416,0.000000,222.061783,-9882.631924
852.312736,0.000000,1332.370696,-9806.022374
852.313056,814.226536,74.020594,-10112.460574
852.313376,1480.411884,222.061783,-9959.241474
852.313696,1554.432478,222.061783,-10572.117872
852.314016,740.205942,592.164754,-10189.070123
852.314336,-518.144159,518.144159,-9806.022374
852.314656,-222.061783,-888.247130,-10035.851024
852.314976,518.144159,-2146.597232,-10189.070123
852.315296,1850.514855,-2368.659014,-10418.898773
852.315616,1036.288319,0.000000,-10418.898773
852.315936,592.164754,2368.659014,-10801.946522
852.316256,-518.144159,4071.132681,-10418.898773
852.316576,-1628.453072,3627.009116,-10572.117872
852.316896,-962.267725,1036.288319,-10342.289223
852.317216,666.185348,-1998.556043,-10342.289223
852.317536,518.144159,-3552.988522,-10189.070123
852.317856,1480.411884,-2220.617826,-10342.289223
852.318176,888.247130,666.185348,-10342.289223
852.318496,-888.247130,2664.741391,-11721.261119
852.318816,-444.123565,3552.988522,-9959.241474
852.319135,592.164754,2294.638420,-10495.508323
852.319455,-222.061783,-74.020594,-9959.241474
852.319775,222.061783,-814.226536,-10265.679673
852.320095,2368.659014,-666.185348,-10265.679673
852.320415,2072.576638,-148.041188,-9882.631924
852.320735,0.000000,-148.041188,-9652.803275
852.321055,0.000000,-592.164754,-9346.365076
852.321375,0.000000,-518.144159,-9729.412825
852.321695,-148.041188,-148.041188,-10035.851024
852.322015,592.164754,444.123565,-10189.070123
852.322335,1628.453072,814.226536,-10189.070123
852.322655,148.041188,814.226536,-9729.412825
852.322975,-1702.473667,814.226536,-9652.803275
852.323295,-1332.370696,74.020594,-9806.022374
852.323615,-74.020594,444.123565,-10189.070123
852.323935,1628.453072,666.185348,-10418.898773
852.324255,1036.288319,296.082377,-8963.317327
852.324575,370.102971,0.000000,-10112.460574
852.324895,-962.267725,296.082377,-9652.803275
852.325215,-1406.391290,1258.350101,-9882.631924
852.325535,-148.041188,1850.514855,-10418.898773
852.325855,962.267725,1036.288319,-9652.803275
852.326175,1406.391290,814.226536,-10725.336972
852.326495,1998.556043,-370.102971,-9882.631924
852.326815,1332.370696,370.102971,-10418.898773
852.327135,518.144159,1628.453072,-9806.022374
852.327455,-962.267725,1628.453072,-9806.022374
852.327774,-296.082377,2220.617826,-10342.289223
852.328094,148.041188,888.247130,-10418.898773
852.328414,666.185348,-888.247130,-9882.631924
852.328734,740.205942,-1998.556043,-9882.631924
852.329054,1036.288319,-888.247130,-9806.022374
852.329374,0.000000,666.185348,-9882.631924
852.329694,-1184.329507,3034.844362,-9806.022374
852.330014,1184.329507,2368.659014,-10189.070123
852.330334,2590.720797,1110.308913,-9882.631924
852.330654,4071.132681,74.020594,-10112.460574
852.330974,3552.988522,-1110.308913,-10112.460574
852.331294,2072.576638,-296.082377,-9269.755526
852.331614,370.102971,1110.308913,-9806.022374
852.331934,-962.267725,1480.411884,-9882.631924
852.332254,-962.267725,1850.514855,-10112.460574
852.332574,-1258.350101,592.164754,-9806.022374
852.332894,-666.185348,-444.123565,-9806.022374
852.333214,1036.288319,0.000000,-10189.070123
852.333534,1110.308913,444.123565,-9806.022374
852.333854,592.164754,962.267725,-9806.022374
852.334174,1258.350101,1332.370696,-9959.241474
852.334494,3108.864956,-148.041188,-10342.289223
852.334814,4071.132681,-444.123565,-10572.117872
852.335134,3997.112087,0.000000,-10418.898773
852.335454,4219.173869,1480.411884,-10725.336972
852.335774,3108.864956,2368.659014,-10189.070123
852.336094,888.247130,2516.700203,-10418.898773
852.336413,-518.144159,1036.288319,-10495.508323
852.336733,-814.226536,-1258.350101,-9882.631924
852.337053,-1110.308913,-2590.720797,-11491.432470
852.337373,-444.123565,-2294.638420,-10265.679673
852.337693,-222.061783,-1184.329507,-10112.460574
852.338013,0.000000,0.000000,-9882.631924
852.338333,-814.226536,2294.638420,-10265.679673
852.338653,-1184.329507,2368.659014,-11644.651570
852.338973,-1184.329507,1036.288319,-10801.946522
852.339293,-592.164754,-592.164754,-10342.289223
852.339613,1406.391290,-2368.659014,-9806.022374
852.339933,2442.679609,-2294.638420,-10418.898773
852.340253,296.082377,-518.144159,-9882.631924
852.340573,-1628.453072,740.205942,-9882.631924
852.340893,-148.041188,666.185348,-9959.241474
852.341213,1110.308913,148.041188,-9806.022374
852.341533,1628.453072,0.000000,-10418.898773
852.341853,1258.350101,0.000000,-10035.851024
852.342173,74.020594,-370.102971,-10112.460574
852.342493,-2442.679609,-222.061783,-9959.241474
852.342813,-3330.926739,0.000000,-9346.365076
852.343133,-1998.556043,-592.164754,-9882.631924
852.343453,-1258.350101,-1554.432478,-9499.584175
852.343773,-666.185348,-1258.350101,-9806.022374
852.344093,2220.617826,-370.102971,-10572.117872
852.344413,888.247130,666.185348,-9959.241474
852.344733,-222.061783,1184.329507,-9499.584175
852.345052,-666.185348,666.185348,-9882.631924
852.345372,0.000000,0.000000,-10035.851024
852.345692,1702.473667,-1554.432478,-10572.117872
852.346012,2516.700203,-1036.288319,-10189.070123
852.346332,2886.803174,-148.041188,-10572.117872
852.346652,1258.350101,814.226536,-9882.631924
852.346972,-370.102971,2368.659014,-9576.193725
852.347292,-222.061783,2590.720797,-10418.898773
852.347612,296.082377,740.205942,-10112.460574
852.347932,296.082377,-1258.350101,-9882.631924
852.348252,888.247130,-2738.761985,-9882.631924
852.348572,74.020594,-1554.432478,-9806.022374
852.348892,-222.061783,592.164754,-9806.022374
852.349212,-296.082377,2812.782580,-10265.679673
852.349532,1332.370696,3701.029710,-10725.336972
852.349852,2294.638420,2960.823768,-10112.460574
852.350172,1332.370696,148.041188,-10495.508323
852.350492,888.247130,-962.267725,-9729.412825
852.350812,1184.329507,-592.164754,-10189.070123
852.351132,1332.370696,74.020594,-10035.851024
852.351452,1554.432478,2220.617826,-9806.022374
852.351772,2368.659014,1406.391290,-10495.508323
852.352092,1924.535449,1258.350101,-10112.460574
852.352412,1480.411884,370.102971,-10418.898773
852.352732,592.164754,1036.288319,-10572.117872
852.353052,740.205942,1924.535449,-10572.117872
852.353372,814.226536,2368.659014,-10725.336972
852.353691,296.082377,2294.638420,-10112.460574
852.354011,-518.144159,1480.411884,-10265.679673
852.354331,0.000000,296.082377,-10265.679673
852.354651,1406.391290,-814.226536,-9652.803275
852.354971,2294.638420,-962.267725,-10265.679673
852.355291,740.205942,-740.205942,-9193.145976
852.355611,0.000000,444.123565,-9806.022374
852.355931,370.102971,518.144159,-9576.193725
852.356251,-296.082377,666.185348,-9422.974625
852.356571,-370.102971,666.185348,-9959.241474
852.356891,444.123565,-222.061783,-9729.412825
852.357211,1776.494261,148.041188,-9729.412825
852.357531,962.267725,1184.329507,-9806.022374
852.357851,444.123565,962.267725,-9499.584175
852.358171,148.041188,518.144159,-10035.851024
852.358491,-814.226536,-1776.494261,-9652.803275
852.358811,-740.205942,-2812.782580,-9346.365076
852.359131,-518.144159,-1258.350101,-10035.851024
852.359451,222.061783,1480.411884,-10342.289223
852.359771,296.082377,3775.050304,-10878.556072
852.360091,0.000000,3775.050304,-10035.851024
852.360411,370.102971,1776.494261,-10878.556072
852.360731,518.144159,-1110.308913,-10112.460574
852.361051,1406.391290,-2368.659014,-10189.070123
852.361371,1924.535449,-1406.391290,-11108.384721
852.361691,962.267725,370.102971,-10418.898773
852.362011,0.000000,1406.391290,-9959.241474
852.362330,-370.102971,1924.535449,-10648.727422
852.362650,-74.020594,666.185348,-10112.460574
852.362970,0.000000,-148.041188,-10725.336972
852.363290,0.000000,-666.185348,-10189.070123
852.363610,1036.288319,-592.164754,-10418.898773
852.363930,814.226536,222.061783,-10265.679673
852.364250,444.123565,222.061783,-10189.070123
852.364570,-296.082377,-592.164754,-9882.631924
852.364890,-296.082377,-370.102971,-9806.022374
852.365210,-740.205942,74.020594,-10035.851024
852.365530,592.164754,296.082377,-10035.851024
852.365850,2368.659014,444.123565,-10112.460574
852.366170,2590.720797,-888.247130,-9959.241474
852.366490,1480.411884,-814.226536,-9882.631924
852.366810,-1036.288319,-962.267725,-9806.022374
852.367130,-888.247130,0.000000,-9882.631924
852.367450,-962.267725,0.000000,-9882.631924
852.367770,-592.164754,370.102971,-9499.584175
852.368090,814.226536,0.000000,-10418.898773
852.368410,1406.391290,74.020594,-9576.193725
852.368730,1702.473667,814.226536,-10495.508323
852.369050,222.061783,814.226536,-10035.851024
852.369370,-740.205942,296.082377,-9959.241474
852.369690,0.000000,-1332.370696,-9729.412825
852.370010,962.267725,-1702.473667,-9806.022374
852.370330,370.102971,-518.144159,-10035.851024
852.370649,-666.185348,1110.308913,-9959.241474
852.370969,-518.144159,2294.638420,-10342.289223
852.371289,1776.494261,2368.659014,-10342.289223
852.371609,2294.638420,1776.494261,-10265.679673
852.371929,1554.432478,-518.144159,-10112.460574
852.372249,1998.556043,-1406.391290,-10189.070123
852.372569,1776.494261,-518.144159,-10265.679673
852.372889,0.000000,74.020594,-9806.022374
852.373209,-888.247130,1702.473667,-10265.679673
852.373529,-222.061783,2812.782580,-9806.022374
852.373849,-592.164754,2294.638420,-10265.679673
852.374169,888.247130,518.144159,-10342.289223
852.374489,1258.350101,74.020594,-10112.460574
852.374809,1036.288319,0.000000,-10112.460574
852.375129,1850.514855,-444.123565,-9576.193725
852.375449,1628.453072,814.226536,-10189.070123
852.375769,1184.329507,1480.411884,-10189.070123
852.376089,-444.123565,1258.350101,-9806.022374
852.376409,222.061783,666.185348,-9729.412825
852.376729,2368.659014,814.226536,-10265.679673
852.377049,2294.638420,962.267725,-10189.070123
852.377369,0.000000,2220.617826,-9959.241474
852.377689,-962.267725,370.102971,-9729.412825
852.378009,-74.020594,-1406.391290,-9576.193725
852.378329,592.164754,-2072.576638,-9652.803275
852.378649,0.000000,-1998.556043,-9499.584175
852.378969,740.205942,-148.041188,-10035.851024
852.379288,1110.308913,2072.576638,-9959.241474
852.379608,666.185348,3627.009116,-10035.851024
852.379928,814.226536,2664.741391,-10035.851024
852.380248,592.164754,666.185348,-10035.851024
852.380568,-370.102971,-1628.453072,-9806.022374
852.380888,-888.247130,-2812.782580,-9806.022374
852.381208,-1258.350101,-2812.782580,-8810.098227
852.381528,-1924.535449,-1110.308913,-9806.022374
852.381848,-1998.556043,1480.411884,-10035.851024
852.382168,-592.164754,2664.741391,-10572.117872
852.382488,1036.288319,1332.370696,-10189.070123
852.382808,1776.494261,296.082377,-10418.898773
852.383128,1924.535449,-962.267725,-10418.898773
852.383448,1850.514855,-1480.411884,-10648.727422
852.383768,1184.329507,-370.102971,-10265.679673
852.384088,0.000000,222.061783,-10189.070123
852.384408,0.000000,1110.308913,-10112.460574
852.384728,148.041188,1554.432478,-10495.508323
852.385048,1332.370696,1184.329507,-10725.336972
852.385368,1776.494261,518.144159,-10342.289223
852.385688,1628.453072,-370.102971,-10418.898773
852.386008,1110.308913,-814.226536,-10418.898773
852.386328,888.247130,-148.041188,-10035.851024
852.386648,0.000000,222.061783,-10112.460574
852.386968,-1332.370696,148.041188,-9576.193725
852.387288,-370.102971,-592.164754,-10112.460574
852.387608,1258.350101,-444.123565,-10035.851024
852.387927,962.267725,370.102971,-9882.631924
852.388247,0.000000,1258.350101,-9652.803275
852.388567,444.123565,1184.329507,-10035.851024
852.388887,0.000000,296.082377,-10112.460574
852.389207,-518.144159,-1332.370696,-9806.022374
852.389527,-1332.370696,-2368.659014,-9576.193725
852.389847,-888.247130,-1850.514855,-9499.584175
852.390167,222.061783,-888.247130,-9346.365076
852.390487,888.247130,148.041188,-9576.193725
852.390807,518.144159,1184.329507,-9806.022374
852.391127,296.082377,1850.514855,-10265.679673
852.391447,-296.082377,1628.453072,-10572.117872
852.391767,-222.061783,148.041188,-10342.289223
852.392087,0.000000,-148.041188,-10418.898773
852.392407,-296.082377,-1036.288319,-9576.193725
852.392727,-222.061783,74.020594,-10189.070123
852.393047,222.061783,74.020594,-10265.679673
852.393367,1184.329507,-444.123565,-9959.241474
852.393687,1850.514855,74.020594,-10342.289223
852.394007,1406.391290,1258.350101,-11568.042020
852.394327,518.144159,1924.535449,-10495.508323
852.394647,-222.061783,2960.823768,-10725.336972
852.394967,-592.164754,2442.679609,-10265.679673
852.395287,962.267725,1480.411884,-10572.117872
852.395607,1184.329507,-814.226536,-10572.117872
852.395927,1628.453072,-2146.597232,-10189.070123
852.396247,2590.720797,0.000000,-10418.898773
852.396566,2664.741391,1924.535449,-10648.727422
852.396886,3108.864956,4737.318029,-11644.651570
852.397206,2590.720797,3997.112087,-10572.117872
852.397526,740.205942,2146.597232,-10112.460574
852.397846,0.000000,-666.185348,-10189.070123
852.398166,1924.535449,-1480.411884,-9959.241474
852.398486,2368.659014,-962.267725,-10418.898773
852.398806,2072.576638,814.226536,-9806.022374
852.399126,-222.061783,2294.638420,-9576.193725
852.399446,-1184.329507,2368.659014,-9806.022374
852.399766,-666.185348,2368.659014,-9806.022374
852.400086,-148.041188,740.205942,-9576.193725
852.400406,-444.123565,1258.350101,-10112.460574
852.400726,666.185348,-296.082377,-9729.412825
852.401046,1776.494261,-740.205942,-9422.974625
852.401366,1406.391290,-1702.473667,-9652.803275
852.401686,1628.453072,0.000000,-9959.241474
852.402006,74.020594,1554.432478,-9499.584175
852.402326,370.102971,3552.988522,-10495.508323
852.402646,1702.473667,2368.659014,-9959.241474
852.402966,1554.432478,1554.432478,-10418.898773
852.403286,444.123565,-1184.329507,-9806.022374
852.403606,296.082377,-2664.741391,-9806.022374
852.403926,666.185348,-1998.556043,-10035.851024
852.404246,592.164754,-1258.350101,-10648.727422
852.404566,-1110.308913,592.164754,-9959.241474
852.404886,-592.164754,1702.473667,-11031.775171
852.405205,-1554.432478,2220.617826,-10342.289223
852.405525,-1480.411884,1998.556043,-10265.679673
852.405845,-1406.391290,1258.350101,-10112.460574
852.406165,0.000000,444.123565,-10955.165621
852.406485,222.061783,-1036.288319,-9959.241474
852.406805,1036.288319,-1998.556043,-10189.070123
852.407125,1406.391290,-1998.556043,-10112.460574
852.407445,518.144159,-962.267725,-10112.460574
852.407765,1036.288319,888.247130,-10495.508323
852.408085,1036.288319,1850.514855,-9959.241474
852.408405,148.041188,3256.906145,-10418.898773
852.408725,-1554.432478,1184.329507,-9959.241474
852.409045,-1036.288319,-444.123565,-10112.460574
852.409365,0.000000,-2442.679609,-9959.241474
852.409685,888.247130,-2220.617826,-9652.803275
852.410004,296.082377,-1554.432478,-9499.584175
852.410324,-296.082377,-1628.453072,-9806.022374
852.410644,-444.123565,-962.267725,-9652.803275
852.410964,222.061783,-1110.308913,-10035.851024
852.411284,74.020594,-518.144159,-9652.803275
852.411604,74.020594,-592.164754,-10189.070123
852.411924,-370.102971,74.020594,-10112.460574
852.412244,-1184.329507,0.000000,-9729.412825
852.412564,-962.267725,-222.061783,-10112.460574
852.412884,-518.144159,-1628.453072,-9882.631924
852.413204,888.247130,-2368.659014,-10495.508323
852.413524,2812.782580,-888.247130,-10112.460574
852.413844,2886.803174,962.267725,-11031.775171
852.414164,666.185348,1332.370696,-10725.336972
852.414484,-296.082377,1998.556043,-10495.508323
852.414803,-222.061783,1628.453072,-10648.727422
852.415123,666.185348,0.000000,-10495.508323
852.415443,1628.453072,-666.185348,-11338.213370
852.415763,1554.432478,-592.164754,-10878.556072
852.416083,148.041188,222.061783,-10035.851024
852.416403,74.020594,2368.659014,-10725.336972
852.416723,444.123565,3404.947333,-10112.460574
852.417043,740.205942,2812.782580,-10878.556072
852.417363,962.267725,962.267725,-9882.631924
852.417683,2738.761985,-222.061783,-10342.289223
852.418003,2072.576638,-2072.576638,-9959.241474
852.418323,888.247130,-1702.473667,-9499.584175
852.418643,-296.082377,0.000000,-9422.974625
852.418963,518.144159,1850.514855,-9882.631924
852.419283,2442.679609,2960.823768,-10035.851024
852.419602,2886.803174,1850.514855,-10112.460574
852.419922,1702.473667,1110.308913,-9959.241474
852.420242,1332.370696,1258.350101,-10112.460574
852.420562,1776.494261,444.123565,-9652.803275
852.420882,1406.391290,-296.082377,-9346.365076
852.421202,740.205942,-1184.329507,-9193.145976
852.421522,740.205942,-222.061783,-9806.022374
852.421842,-444.123565,0.000000,-9422.974625
852.422162,-370.102971,1036.288319,-9882.631924
852.422482,-444.123565,1998.556043,-9806.022374
852.422802,-962.267725,2294.638420,-10189.070123
852.423122,-222.061783,2220.617826,-9882.631924
852.423442,888.247130,666.185348,-10112.460574
852.423762,518.144159,-444.123565,-9806.022374
852.424081,296.082377,-1110.308913,-11184.994271
852.424401,222.061783,-1480.411884,-10112.460574
852.424721,0.000000,0.000000,-10189.070123
852.425041,1036.288319,1406.391290,-10112.460574
852.425361,1036.288319,2886.803174,-9882.631924
852.425681,1332.370696,1924.535449,-10572.117872
852.426001,1702.473667,444.123565,-10342.289223
852.426321,814.226536,-888.247130,-10495.508323
852.426641,444.123565,-592.164754,-10112.460574
852.426961,-296.082377,-148.041188,-10725.336972
852.427281,-1480.411884,814.226536,-10112.460574
852.427601,-1776.494261,1628.453072,-10035.851024
852.427921,-1110.308913,814.226536,-10265.679673
852.428241,1036.288319,0.000000,-9806.022374
852.428561,1258.350101,-444.123565,-10035.851024
852.428880,2294.638420,-962.267725,-10265.679673
852.429200,1480.411884,148.041188,-9882.631924
852.429520,-1110.308913,296.082377,-9576.193725
852.429840,-148.041188,-74.020594,-9959.241474
852.430160,-148.041188,-370.102971,-9959.241474
852.430480,296.082377,-1184.329507,-9959.241474
852.430800,0.000000,-666.185348,-9806.022374
852.431120,962.267725,-222.061783,-10112.460574
852.431440,1332.370696,-444.123565,-10035.851024
852.431760,592.164754,-740.205942,-9729.412825
852.432080,222.061783,-592.164754,-9806.022374
852.432400,0.000000,-148.041188,-9806.022374
852.432720,148.041188,148.041188,-10572.117872
852.433040,-740.205942,740.205942,-10342.289223
852.433360,148.041188,518.144159,-10418.898773
852.433679,444.123565,-592.164754,-10112.460574
852.433999,0.000000,-666.185348,-9806.022374
852.434319,0.000000,-444.123565,-10265.679673
852.434639,-592.164754,-518.144159,-10112.460574
852.434959,814.226536,-814.226536,-10112.460574
852.435279,1332.370696,-1110.308913,-10035.851024
852.435599,1776.494261,296.082377,-10878.556072
852.435919,-370.102971,1036.288319,-9806.022374
852.436239,-1332.370696,1258.350101,-10418.898773
852.436559,-518.144159,888.247130,-10035.851024
852.436879,1628.453072,666.185348,-10189.070123
852.437199,-222.061783,0.000000,-10265.679673
852.437519,1036.288319,-592.164754,-10265.679673
852.437839,1628.453072,518.144159,-10725.336972
852.438159,1480.411884,1776.494261,-10189.070123
852.438478,-222.061783,2220.617826,-10189.070123
852.438798,-444.123565,1554.432478,-10418.898773
852.439118,592.164754,296.082377,-10035.851024
852.439438,2146.597232,-518.144159,-10265.679673
852.439758,2738.761985,-518.144159,-10342.289223
852.440078,740.205942,518.144159,-9959.241474
852.440398,444.123565,1702.473667,-10418.898773
852.440718,296.082377,1554.432478,-9882.631924
852.441038,1480.411884,1554.432478,-10265.679673
852.441358,962.267725,814.226536,-9882.631924
852.441678,74.020594,-370.102971,-9882.631924
852.441998,740.205942,-1036.288319,-10342.289223
852.442318,444.123565,-592.164754,-9806.022374
852.442638,592.164754,962.267725,-10572.117872
852.442958,1036.288319,-444.123565,-9269.755526
852.443277,1332.370696,740.205942,-10035.851024
852.443597,518.144159,148.041188,-9422.974625
852.443917,444.123565,-222.061783,-11261.603821
852.444237,222.061783,148.041188,-9959.241474
852.444557,0.000000,1332.370696,-9039.926876
852.444877,148.041188,888.247130,-9729.412825
852.445197,1776.494261,-222.061783,-9806.022374
852.445517,962.267725,-296.082377,-9652.803275
852.445837,962.267725,1480.411884,-10418.898773
852.446157,2220.617826,2960.823768,-10189.070123
852.446477,1258.350101,3701.029710,-11338.213370
852.446797,0.000000,0.000000,-10112.460574
852.447117,-740.205942,148.041188,-9729.412825
852.447437,0.000000,-1850.514855,-10035.851024
852.447757,888.247130,-2516.700203,-9882.631924
852.448076,1554.432478,-1702.473667,-10648.727422
852.448396,1998.556043,0.000000,-10495.508323
852.448716,444.123565,2220.617826,-10495.508323
852.449036,-1924.535449,3256.906145,-10495.508323
852.449356,-2516.700203,2886.803174,-10801.946522
852.449676,-2516.700203,1850.514855,-10495.508323
852.449996,888.247130,-148.041188,-10955.165621
852.450316,1628.453072,-1184.329507,-10418.898773
852.450636,2368.659014,-1554.432478,-10495.508323
852.450956,1332.370696,-1554.432478,-10342.289223
852.451276,0.000000,222.061783,-10189.070123
852.451596,-518.144159,1924.535449,-10418.898773
852.451916,0.000000,2220.617826,-10495.508323
852.452236,-222.061783,592.164754,-9652.803275
852.452556,740.205942,222.061783,-10265.679673
852.452875,1184.329507,-888.247130,-10418.898773
852.453195,592.164754,-1258.350101,-9652.803275
852.453515,0.000000,-666.185348,-9652.803275
852.453835,-740.205942,-444.123565,-9346.365076
852.454155,740.205942,0.000000,-9576.193725
852.454475,370.102971,-148.041188,-9806.022374
852.454795,-370.102971,-222.061783,-9806.022374
852.455115,-592.164754,-222.061783,-10035.851024
852.455435,74.020594,-666.185348,-8963.317327
852.455755,-592.164754,-296.082377,-9652.803275
852.456075,0.000000,-1184.329507,-9882.631924
852.456395,1110.308913,-1332.370696,-9959.241474
852.456715,1110.308913,-1184.329507,-9269.755526
852.457035,740.205942,0.000000,-9882.631924
852.457355,1184.329507,2368.659014,-10725.336972
852.457674,370.102971,2368.659014,-10342.289223
852.457994,-148.041188,1998.556043,-10112.460574
852.458314,0.000000,740.205942,-10035.851024
852.458634,666.185348,-1332.370696,-10035.851024
852.458954,962.267725,-814.226536,-10495.508323
852.459274,-222.061783,-888.247130,-10189.070123
852.459594,888.247130,1924.535449,-10572.117872
852.459914,-222.061783,3034.844362,-10265.679673
852.460234,962.267725,2960.823768,-10572.117872
852.460554,1406.391290,2220.617826,-11184.994271
852.460874,444.123565,370.102971,-9806.022374
852.461194,1406.391290,0.000000,-10955.165621
852.461514,2664.741391,-888.247130,-10495.508323
852.461834,2368.659014,0.000000,-10189.070123
852.462154,444.123565,1776.494261,-9806.022374
852.462473,296.082377,2664.741391,-9959.241474
852.462793,148.041188,2738.761985,-10801.946522
852.463113,1628.453072,666.185348,-10342.289223
852.463433,888.247130,0.000000,-9882.631924
852.463753,592.164754,296.082377,-9652.803275
852.464073,1184.329507,0.000000,-9499.584175
852.464393,1036.288319,74.020594,-9652.803275
852.464713,1702.473667,592.164754,-9882.631924
852.465033,2220.617826,444.123565,-9806.022374
852.465353,2886.803174,222.061783,-9039.926876
852.465673,2664.741391,518.144159,-10035.851024
852.465993,2590.720797,2072.576638,-10112.460574
852.466313,1110.308913,1258.350101,-9729.412825
852.466633,-222.061783,1036.288319,-9346.365076
852.466953,0.000000,-888.247130,-9499.584175
852.467272,-296.082377,148.041188,-9806.022374
852.467592,0.000000,-592.164754,-9882.631924
852.467912,-148.041188,-222.061783,-9806.022374
852.468232,-592.164754,740.205942,-9882.631924
852.468552,296.082377,1036.288319,-10265.679673
852.468872,814.226536,1036.288319,-9959.241474
852.469192,1406.391290,888.247130,-10495.508323
852.469512,740.205942,-148.041188,-10955.165621
852.469832,0.000000,-1406.391290,-10189.070123
852.470152,-296.082377,-2442.679609,-9806.022374
852.470472,148.041188,-444.123565,-10035.851024
852.470792,740.205942,1110.308913,-10418.898773
852.471112,-740.205942,1850.514855,-10035.851024
852.471432,0.000000,814.226536,-10878.556072
852.471752,-148.041188,-1332.370696,-10342.289223
852.472071,-296.082377,-1554.432478,-10418.898773
852.472391,-296.082377,-4145.153275,-9806.022374
852.472711,-1110.308913,-1554.432478,-9959.241474
852.473031,-1850.514855,148.041188,-10112.460574
852.473351,-888.247130,-148.041188,-10342.289223
852.473671,-222.061783,-1554.432478,-10189.070123
852.473991,1628.453072,-592.164754,-10572.117872
852.474311,296.082377,-962.267725,-10035.851024
852.474631,1184.329507,-2294.638420,-10648.727422
852.474951,-1628.453072,-1924.535449,-9806.022374
852.475271,-2664.741391,-962.267725,-10189.070123
852.475591,-444.123565,-1258.350101,-9959.241474
852.475911,592.164754,-666.185348,-10418.898773
852.476231,-148.041188,-814.226536,-9959.241474
852.476551,-666.185348,814.226536,-10418.898773
852.476870,-518.144159,1406.391290,-10112.460574
852.477190,888.247130,518.144159,-10572.117872
852.477510,0.000000,148.041188,-10418.898773
852.477830,0.000000,-518.144159,-9959.241474
852.478150,-296.082377,-222.061783,-11031.775171
852.478470,-222.061783,-296.082377,-10112.460574
852.478790,814.226536,148.041188,-10342.289223
852.479110,148.041188,2146.597232,-10495.508323
852.479430,370.102971,2072.576638,-10418.898773
852.479750,0.000000,2368.659014,-10801.946522
852.480070,-444.123565,444.123565,-10035.851024
852.480390,148.041188,-962.267725,-9806.022374
852.480710,2146.597232,-1184.329507,-9959.241474
852.481030,4071.132681,-296.082377,-10112.460574
852.481350,3849.070898,1036.288319,-10035.851024
852.481669,3775.050304,888.247130,-9806.022374
852.481989,1628.453072,1702.473667,-9499.584175
852.482309,1702.473667,2664.741391,-10495.508323
852.482629,962.267725,1332.370696,-9959.241474
852.482949,1776.494261,518.144159,-9882.631924
852.483269,1406.391290,-296.082377,-9959.241474
852.483589,1406.391290,74.020594,-9959.241474
852.483909,1406.391290,740.205942,-10112.460574
852.484229,740.205942,1184.329507,-10189.070123
852.484549,888.247130,1776.494261,-10418.898773
852.484869,1332.370696,814.226536,-10265.679673
852.485189,2294.638420,2368.659014,-10035.851024
852.485509,2590.720797,2368.659014,-10265.679673
852.485829,888.247130,2664.741391,-10189.070123
852.486149,74.020594,2294.638420,-10495.508323
852.486468,1406.391290,1850.514855,-10648.727422
852.486788,2072.576638,1554.432478,-10495.508323
852.487108,1036.288319,1036.288319,-10112.460574
852.487428,-740.205942,888.247130,-9959.241474
852.487748,-1480.411884,1628.453072,-10878.556072
852.488068,-296.082377,962.267725,-9729.412825
852.488388,-666.185348,888.247130,-9806.022374
852.488708,-444.123565,1110.308913,-9959.241474
852.489028,0.000000,1406.391290,-10725.336972
852.489348,222.061783,1036.288319,-10035.851024
852.489668,1628.453072,222.061783,-9806.022374
852.489988,962.267725,1554.432478,-10265.679673
852.490308,0.000000,1406.391290,-9422.974625
852.490628,-592.164754,0.000000,-9652.803275
852.490948,-296.082377,-1850.514855,-9422.974625
852.491267,-888.247130,-2072.576638,-9346.365076
852.491587,0.000000,-1702.473667,-9499.584175
852.491907,1998.556043,-1850.514855,-9116.536426
852.492227,2146.597232,1924.535449,-9576.193725
852.492547,148.041188,1258.350101,-9729.412825
852.492867,-592.164754,666.185348,-9576.193725
852.493187,-1924.535449,-1406.391290,-9346.365076
852.493507,222.061783,-2368.659014,-10035.851024
852.493827,1850.514855,-1184.329507,-9959.241474
852.494147,2294.638420,-888.247130,-10878.556072
852.494467,296.082377,518.144159,-10112.460574
852.494787,-1332.370696,1628.453072,-10495.508323
852.495107,-2220.617826,888.247130,-10189.070123
852.495427,-1036.288319,-444.123565,-10342.289223
852.495747,-296.082377,-592.164754,-10418.898773
852.496066,888.247130,-518.144159,-10801.946522
852.496386,1702.473667,-1406.391290,-11031.775171
852.496706,814.226536,-814.226536,-10801.946522
852.497026,-296.082377,1036.288319,-10189.070123
852.497346,0.000000,2294.638420,-10955.165621
852.497666,666.185348,2886.803174,-11031.775171
852.497986,1406.391290,1406.391290,-10725.336972
852.498306,1406.391290,-1110.308913,-10265.679673
852.498626,0.000000,-2812.782580,-9882.631924
852.498946,0.000000,-3701.029710,-9116.536426
852.499266,-740.205942,-2886.803174,-9652.803275
852.499586,0.000000,-1554.432478,-9806.022374
852.499906,666.185348,0.000000,-9959.241474
852.500226,1628.453072,1036.288319,-10189.070123
852.500546,962.267725,1036.288319,-10035.851024
852.500865,0.000000,518.144159,-9193.145976
852.501185,-814.226536,0.000000,-9652.803275
852.501505,0.000000,296.082377,-10035.851024
852.501825,2516.700203,518.144159,-10035.851024
852.502145,2960.823768,296.082377,-9576.193725
852.502465,2146.597232,444.123565,-10189.070123
852.502785,1110.308913,592.164754,-10112.460574
852.503105,1258.350101,1406.391290,-9882.631924
852.503425,814.226536,2220.617826,-10112.460574
852.503745,0.000000,2812.782580,-10189.070123
852.504065,-222.061783,1702.473667,-10418.898773
852.504385,518.144159,1036.288319,-9959.241474
852.504705,1406.391290,962.267725,-10035.851024
852.505025,1332.370696,1036.288319,-10955.165621
852.505345,1110.308913,666.185348,-10342.289223
852.505665,1110.308913,888.247130,-9959.241474
852.505985,1998.556043,962.267725,-9959.241474
852.506305,2072.576638,1480.411884,-10418.898773
852.506625,1258.350101,1036.288319,-10112.460574
852.506945,888.247130,2072.576638,-10418.898773
852.507266,666.185348,1998.556043,-10801.946522
852.507586,0.000000,1110.308913,-9729.412825
852.507906,-1258.350101,0.000000,-8963.317327
852.508226,-444.123565,-962.267725,-9806.022374
852.508546,1258.350101,-518.144159,-9882.631924
852.508866,1110.308913,444.123565,-10112.460574
852.509186,0.000000,1924.535449,-9959.241474
852.509506,0.000000,1850.514855,-10189.070123
852.509826,-740.205942,1480.411884,-9576.193725
852.510146,-592.164754,74.020594,-9882.631924
852.510466,296.082377,-1184.329507,-9652.803275
852.510786,1036.288319,-518.144159,-9193.145976
852.511106,1184.329507,-740.205942,-9806.022374
852.511427,666.185348,0.000000,-9422.974625
852.511747,-148.041188,518.144159,-10112.460574
852.512067,-1258.350101,-222.061783,-9882.631924
852.512387,-1406.391290,-518.144159,-9652.803275
852.512707,0.000000,-518.144159,-9882.631924
852.513027,814.226536,-740.205942,-9959.241474
852.513347,1036.288319,-888.247130,-10418.898773
852.513667,2812.782580,-1998.556043,-10342.289223
852.513987,2368.659014,-888.247130,-10035.851024
852.514307,1184.329507,-370.102971,-9882.631924
852.514627,222.061783,0.000000,-10265.679673
852.514947,0.000000,444.123565,-10265.679673
852.515267,74.020594,-370.102971,-10572.117872
852.515588,888.247130,-370.102971,-10189.070123
852.515908,1258.350101,-666.185348,-10801.946522
852.516228,148.041188,-962.267725,-10342.289223
852.516548,-518.144159,-444.123565,-9269.755526
852.516868,148.041188,0.000000,-10418.898773
852.517188,1628.453072,518.144159,-10801.946522
852.517508,1332.370696,-518.144159,-10801.946522
852.517828,1110.308913,0.000000,-9729.412825
852.518148,888.247130,518.144159,-10495.508323
852.518468,962.267725,740.205942,-10648.727422
852.518788,74.020594,148.041188,-9882.631924
852.519108,-592.164754,-1110.308913,-9576.193725
852.519428,-1184.329507,-1258.350101,-9193.145976
852.519748,-740.205942,-1998.556043,-9806.022374
852.520069,222.061783,-1258.350101,-10418.898773
852.520389,74.020594,0.000000,-10112.460574
852.520709,-296.082377,296.082377,-9959.241474
852.521029,-740.205942,370.102971,-9806.022374
852.521349,148.041188,-222.061783,-9652.803275
852.521669,1258.350101,-666.185348,-9806.022374
852.521989,222.061783,-370.102971,-9499.584175
852.522309,-1110.308913,-296.082377,-10112.460574
852.522629,740.205942,1406.391290,-10112.460574
852.522949,0.000000,814.226536,-10112.460574
852.523269,296.082377,1628.453072,-10112.460574
852.523589,74.020594,-592.164754,-9806.022374
852.523909,-1628.453072,-518.144159,-9806.022374
852.524230,-1110.308913,370.102971,-9806.022374
852.524550,740.205942,1628.453072,-10418.898773
852.524870,666.185348,3552.988522,-10572.117872
852.525190,-518.144159,1184.329507,-9806.022374
852.525510,222.061783,148.041188,-10572.117872
852.525830,370.102971,-814.226536,-10112.460574
852.526150,3330.926739,444.123565,-10035.851024
852.526470,3997.112087,2886.803174,-10495.508323
852.526790,2442.679609,3182.885551,-10495.508323
852.527110,0.000000,4663.297435,-11031.775171
852.527430,-518.144159,3478.967927,-9959.241474
852.527750,1332.370696,1406.391290,-10495.508323
852.528070,2590.720797,222.061783,-10495.508323
852.528391,2812.782580,-962.267725,-10035.851024
852.528711,0.000000,814.226536,-10112.460574
852.529031,-814.226536,2590.720797,-10572.117872
852.529351,74.020594,5033.400406,-10878.556072
852.529671,296.082377,4441.235652,-10495.508323
852.529991,814.226536,3552.988522,-10418.898773
852.530311,1480.411884,0.000000,-9882.631924
852.530631,1406.391290,-2664.741391,-10112.460574
852.530951,888.247130,-1406.391290,-10265.679673
852.531271,1776.494261,592.164754,-9882.631924
852.531591,3775.050304,1406.391290,-9882.631924
852.531911,1850.514855,2886.803174,-9729.412825
852.532231,666.185348,1554.432478,-9806.022374
852.532552,-296.082377,962.267725,-9499.584175
852.532872,444.123565,-592.164754,-9806.022374
852.533192,518.144159,74.020594,-9806.022374
852.533512,0.000000,740.205942,-9959.241474
852.533832,74.020594,-1332.370696,-9576.193725
852.534152,-370.102971,-1110.308913,-9576.193725
852.534472,0.000000,0.000000,-10112.460574
852.534792,444.123565,-518.144159,-9806.022374
852.535112,740.205942,1110.308913,-10035.851024
852.535432,1110.308913,-518.144159,-10189.070123
852.535752,962.267725,1110.308913,-10572.117872
852.536072,-296.082377,740.205942,-10189.070123
852.536392,0.000000,-1036.288319,-10418.898773
852.536712,888.247130,-1258.350101,-10189.070123
852.537033,1332.370696,-1110.308913,-10035.851024
852.537353,1258.350101,-1406.391290,-10572.117872
852.537673,740.205942,592.164754,-10418.898773
852.537993,74.020594,740.205942,-10495.508323
852.538313,-2072.576638,74.020594,-10265.679673
852.538633,-2294.638420,-518.144159,-9959.241474
852.538953,-1554.432478,-1628.453072,-10418.898773
852.539273,-592.164754,-2960.823768,-9959.241474
852.539593,-1702.473667,-1998.556043,-10112.460574
852.539913,-148.041188,222.061783,-10418.898773
852.540233,1036.288319,1406.391290,-10265.679673
852.540553,1184.329507,74.020594,-10189.070123
852.540873,1036.288319,-1184.329507,-9959.241474
852.541194,-592.164754,-1702.473667,-9882.631924
852.541514,0.000000,-2146.597232,-9806.022374
852.541834,740.205942,-1702.473667,-9959.241474
852.542154,814.226536,-1480.411884,-10265.679673
852.542474,-1184.329507,-370.102971,-9346.365076
852.542794,-592.164754,666.185348,-9959.241474
852.543114,74.020594,0.000000,-9882.631924
852.543434,444.123565,-370.102971,-10189.070123
852.543754,222.061783,-222.061783,-9959.241474
852.544074,-888.247130,-666.185348,-9959.241474
852.544394,-1258.350101,-1110.308913,-10955.165621
852.544714,-296.082377,-1628.453072,-9652.803275
852.545034,0.000000,0.000000,-9806.022374
852.545355,296.082377,2146.597232,-10342.289223
852.545675,1036.288319,2220.617826,-10189.070123
852.545995,2738.761985,2368.659014,-10955.165621
852.546315,3256.906145,518.144159,-10648.727422
852.546635,3034.844362,-444.123565,-10112.460574
852.546955,1184.329507,-1184.329507,-9959.241474
852.547275,-370.102971,-1184.329507,-9576.193725
852.547595,222.061783,222.061783,-10189.070123
852.547915,962.267725,666.185348,-10572.117872
852.548235,1924.535449,1628.453072,-10265.679673
852.548555,1406.391290,2146.597232,-10648.727422
852.548875,2368.659014,2812.782580,-10801.946522
852.549195,-592.164754,3701.029710,-10112.460574
852.549515,-2220.617826,2072.576638,-9959.241474
852.549836,148.041188,-666.185348,-9652.803275
852.550156,3627.009116,-1406.391290,-9806.022374
852.550476,3256.906145,-1036.288319,-9959.241474
852.550796,3923.091493,962.267725,-10035.851024
852.551116,1924.535449,2368.659014,-9806.022374
852.551436,296.082377,4737.318029,-10342.289223
852.551756,-592.164754,3775.050304,-9729.412825
852.552076,814.226536,1406.391290,-9729.412825
852.552396,1776.494261,-666.185348,-9269.755526
852.552716,2442.679609,-592.164754,-10342.289223
852.553036,1702.473667,0.000000,-10189.070123
852.553356,0.000000,666.185348,-9806.022374
852.553676,-1406.391290,1850.514855,-9346.365076
852.553997,-1036.288319,1702.473667,-9806.022374
852.554317,-518.144159,1480.411884,-9576.193725
852.554637,0.000000,-296.082377,-9806.022374
852.554957,-814.226536,74.020594,-9882.631924
852.555277,0.000000,0.000000,-10418.898773
852.555597,962.267725,296.082377,-9806.022374
852.555917,370.102971,444.123565,-9806.022374
852.556237,-592.164754,740.205942,-10189.070123
852.556557,-444.123565,1776.494261,-9882.631924
852.556877,1554.432478,1776.494261,-10572.117872
852.557197,2516.700203,1406.391290,-10342.289223
852.557517,1998.556043,1480.411884,-10189.070123
852.557837,0.000000,-296.082377,-9806.022374
852.558158,-740.205942,-1480.411884,-9806.022374
852.558478,-148.041188,-1850.514855,-10112.460574
852.558798,222.061783,-1406.391290,-10035.851024
852.559118,1036.288319,518.144159,-10342.289223
852.559438,666.185348,1258.350101,-10495.508323
852.559758,444.123565,2072.576638,-10418.898773
852.560078,-296.082377,1554.432478,-9806.022374
852.560398,-740.205942,370.102971,-10189.070123
852.560718,444.123565,-888.247130,-10112.460574
852.561038,1850.514855,-3330.926739,-10342.289223
852.561358,1702.473667,-3552.988522,-10112.460574
852.561678,1258.350101,-1850.514855,-10035.851024
852.561998,-518.144159,-666.185348,-9652.803275
852.562319,-518.144159,1554.432478,-10265.679673
852.562639,0.000000,1036.288319,-10342.289223
852.562959,0.000000,888.247130,-10495.508323
852.563279,-592.164754,-1406.391290,-9882.631924
852.563599,-296.082377,-2442.679609,-10342.289223
852.563919,-814.226536,-1998.556043,-10189.070123
852.564239,-666.185348,-1628.453072,-9882.631924
852.564559,592.164754,222.061783,-9652.803275
852.564879,1480.411884,444.123565,-11414.822920
852.565199,740.205942,222.061783,-10189.070123
852.565519,296.082377,-814.226536,-10265.679673
852.565839,0.000000,0.000000,-10495.508323
852.566159,0.000000,-296.082377,-10189.070123
852.566479,370.102971,222.061783,-9806.022374
852.566800,-148.041188,0.000000,-9959.241474
852.567120,444.123565,0.000000,-10112.460574
852.567440,222.061783,518.144159,-9806.022374
852.567760,1036.288319,1184.329507,-10265.679673
852.568080,1924.535449,1924.535449,-10189.070123
852.568400,1850.514855,1850.514855,-10572.117872
852.568720,1998.556043,1184.329507,-9729.412825
852.569040,666.185348,666.185348,-9882.631924
852.569360,0.000000,296.082377,-10265.679673
852.569680,0.000000,-518.144159,-9882.631924
852.570000,1258.350101,-592.164754,-10112.460574
852.570320,1554.432478,444.123565,-10112.460574
852.570640,962.267725,1924.535449,-8886.707777
852.570961,1480.411884,3256.906145,-10112.460574
852.571281,2146.597232,2294.638420,-10572.117872
852.571601,2368.659014,1776.494261,-10495.508323
852.571921,1036.288319,-148.041188,-9806.022374
852.572241,592.164754,-1110.308913,-9806.022374
852.572561,1258.350101,-1258.350101,-10265.679673
852.572881,444.123565,814.226536,-10112.460574
852.573201,74.020594,2738.761985,-9882.631924
852.573521,-370.102971,3182.885551,-10342.289223
852.573841,-666.185348,1184.329507,-10112.460574
852.574161,-1406.391290,-148.041188,-9806.022374
852.574481,0.000000,0.000000,-10035.851024
852.574801,1332.370696,888.247130,-10265.679673
852.575122,1480.411884,1332.370696,-10112.460574
852.575442,0.000000,1554.432478,-10112.460574
852.575762,0.000000,1036.288319,-9882.631924
852.576082,370.102971,666.185348,-10342.289223
852.576402,888.247130,-814.226536,-9882.631924
852.576722,444.123565,888.247130,-10112.460574
852.577042,-1332.370696,1628.453072,-9959.241474
852.577362,-2146.597232,1628.453072,-9729.412825
852.577682,-2368.659014,1628.453072,-9576.193725
852.578002,-1406.391290,74.020594,-9729.412825
852.578322,-740.205942,-1332.370696,-9652.803275
852.578642,518.144159,-1332.370696,-10112.460574
852.578962,1998.556043,-1036.288319,-10035.851024
852.579283,1776.494261,740.205942,-9346.365076
852.579603,1628.453072,962.267725,-9576.193725
852.579923,1184.329507,1184.329507,-9882.631924
852.580243,2072.576638,-148.041188,-9806.022374
852.580563,2368.659014,-1480.411884,-9422.974625
852.580883,2220.617826,-1702.473667,-9959.241474
852.581203,1480.411884,-1258.350101,-10189.070123
852.581523,74.020594,222.061783,-10112.460574
852.581843,-444.123565,1036.288319,-10265.679673
852.582163,-370.102971,1628.453072,-9806.022374
852.582483,-740.205942,444.123565,-10265.679673
852.582803,0.000000,-814.226536,-10418.898773
852.583123,1554.432478,-1110.308913,-10418.898773
852.583443,1702.473667,-1332.370696,-11491.432470
852.583764,370.102971,-666.185348,-10035.851024
852.584084,-518.144159,296.082377,-10265.679673
852.584404,0.000000,962.267725,-10112.460574
852.584724,-148.041188,2072.576638,-10648.727422
852.585044,888.247130,370.102971,-11108.384721
852.585364,1554.432478,-518.144159,-10418.898773
852.585684,2590.720797,-1332.370696,-10725.336972
852.586004,1776.494261,-1850.514855,-10418.898773
852.586324,740.205942,-1628.453072,-9959.241474
852.586644,0.000000,-148.041188,-10572.117872
852.586964,-1184.329507,2072.576638,-9959.241474
852.587284,-1332.370696,2146.597232,-10955.165621
852.587604,-518.144159,1628.453072,-10725.336972
852.587925,148.041188,-74.020594,-10418.898773
852.588245,0.000000,-888.247130,-9882.631924
852.588565,-222.061783,-1258.350101,-9882.631924
852.588885,-666.185348,-814.226536,-10035.851024
852.589205,-592.164754,148.041188,-10035.851024
852.589525,962.267725,74.020594,-10035.851024
852.589845,1924.535449,296.082377,-10265.679673
852.590165,2146.597232,592.164754,-10342.289223
852.590485,1036.288319,1850.514855,-9576.193725
852.590805,-518.144159,2738.761985,-9959.241474
852.591125,-370.102971,2368.659014,-10342.289223
852.591445,296.082377,222.061783,-9882.631924
852.591765,518.144159,-740.205942,-9882.631924
852.592086,518.144159,-666.185348,-9806.022374
852.592406,592.164754,222.061783,-9882.631924
852.592726,0.000000,2220.617826,-10035.851024
852.593046,296.082377,3552.988522,-9806.022374
852.593366,814.226536,3552.988522,-10878.556072
852.593686,1406.391290,1702.473667,-9806.022374
852.594006,1850.514855,-962.267725,-9882.631924
852.594326,1480.411884,-888.247130,-10265.679673
852.594646,1554.432478,296.082377,-10189.070123
852.594966,666.185348,2960.823768,-11491.432470
852.595286,518.144159,3849.070898,-10648.727422
852.595606,1184.329507,3849.070898,-10572.117872
852.595926,1480.411884,1924.535449,-10265.679673
852.596246,2368.659014,518.144159,-10418.898773
852.596567,2072.576638,666.185348,-10648.727422
852.596887,592.164754,2146.597232,-10342.289223
852.597207,222.061783,2220.617826,-10265.679673
852.597527,888.247130,888.247130,-10112.460574
852.597847,0.000000,-296.082377,-9806.022374
852.598167,0.000000,-296.082377,-9652.803275
852.598487,1036.288319,0.000000,-9959.241474
852.598807,2960.823768,1184.329507,-10572.117872
852.599127,2886.803174,2072.576638,-9959.241474
852.599447,1036.288319,1924.535449,-10265.679673
852.599767,0.000000,814.226536,-9729.412825
852.600087,0.000000,-1258.350101,-9422.974625
852.600407,222.061783,-1480.411884,-9576.193725
852.600728,1776.494261,-1110.308913,-9499.584175
852.601048,1110.308913,-518.144159,-9959.241474
852.601368,740.205942,0.000000,-9499.584175
852.601688,-962.267725,-296.082377,-9652.803275
852.602008,-1036.288319,-74.020594,-10035.851024
852.602328,-222.061783,-1110.308913,-9652.803275
852.602648,888.247130,-962.267725,-9882.631924
852.602968,1184.329507,-1480.411884,-9882.631924
852.603288,-814.226536,-1332.370696,-9806.022374
852.603608,-1184.329507,-1332.370696,-9806.022374
852.603928,-1332.370696,-1406.391290,-9959.241474
852.604248,-518.144159,-814.226536,-10342.289223
852.604568,0.000000,-888.247130,-10342.289223
852.604889,0.000000,-1184.329507,-10418.898773
852.605209,-518.144159,-1998.556043,-10572.117872
852.605529,-814.226536,-2294.638420,-10189.070123
852.605849,-740.205942,-2368.659014,-10418.898773
852.606169,222.061783,-2294.638420,-10342.289223
852.606489,74.020594,-1998.556043,-10418.898773
852.606809,-1110.308913,-1258.350101,-10189.070123
852.607129,-1332.370696,-814.226536,-10955.165621
852.607449,-592.164754,-1110.308913,-10572.117872
852.607769,-222.061783,-1332.370696,-9806.022374
852.608089,-296.082377,-1776.494261,-10112.460574
852.608409,74.020594,-1850.514855,-9959.241474
852.608729,518.144159,-1702.473667,-10418.898773
852.609049,370.102971,-1776.494261,-10189.070123
852.609369,1406.391290,-1258.350101,-10418.898773
852.609689,1332.370696,-740.205942,-10648.727422
852.610009,740.205942,-222.061783,-10265.679673
852.610329,-518.144159,1110.308913,-10112.460574
852.610649,0.000000,1332.370696,-10112.460574
852.610969,74.020594,1110.308913,-10035.851024
852.611289,1036.288319,444.123565,-9959.241474
852.611609,1702.473667,-888.247130,-10572.117872
852.611929,296.082377,-814.226536,-9116.536426
852.612249,444.123565,370.102971,-9652.803275
852.612569,592.164754,1628.453072,-10035.851024
852.612888,1036.288319,3478.967927,-9576.193725
852.613208,444.123565,3256.906145,-10265.679673
852.613528,962.267725,2146.597232,-9652.803275
852.613848,2516.700203,444.123565,-10035.851024
852.614168,2294.638420,-814.226536,-9806.022374
852.614488,1554.432478,370.102971,-9499.584175
852.614808,1110.308913,1332.370696,-10878.556072
852.615128,1554.432478,1776.494261,-10035.851024
852.615448,2072.576638,1776.494261,-9806.022374
852.615768,1406.391290,2220.617826,-9959.241474
852.616088,740.205942,1850.514855,-9959.241474
852.616408,74.020594,1184.329507,-10189.070123
852.616728,518.144159,1628.453072,-9959.241474
852.617048,1258.350101,814.226536,-9806.022374
852.617368,1554.432478,666.185348,-10112.460574
852.617688,1628.453072,666.185348,-9116.536426
852.618008,1850.514855,1998.556043,-10035.851024
852.618328,962.267725,2368.659014,-10878.556072
852.618648,74.020594,2368.659014,-9806.022374
852.618968,-740.205942,3182.885551,-10112.460574
852.619288,-222.061783,2738.761985,-10342.289223
852.619608,444.123565,2590.720797,-9882.631924
852.619928,666.185348,2368.659014,-10189.070123
852.620248,814.226536,1110.308913,-10189.070123
852.620568,1110.308913,1554.432478,-9959.241474
852.620888,592.164754,1110.308913,-9652.803275
852.621208,1258.350101,1702.473667,-9806.022374
852.621528,740.205942,2072.576638,-9806.022374
852.621848,740.205942,2590.720797,-9882.631924
852.622168,1110.308913,2960.823768,-10035.851024
852.622488,2146.597232,1628.453072,-10112.460574
852.622808,1776.494261,1702.473667,-9729.412825
852.623128,1406.391290,1480.411884,-9806.022374
852.623448,0.000000,1924.535449,-9576.193725
852.623768,740.205942,1776.494261,-10189.070123
852.624088,1332.370696,1406.391290,-10189.070123
852.624408,1406.391290,-148.041188,-9882.631924
852.624728,2072.576638,444.123565,-10648.727422
852.625048,2220.617826,1406.391290,-10035.851024
852.625368,1554.432478,1406.391290,-9806.022374
852.625688,888.247130,2368.659014,-9729.412825
852.626008,1850.514855,2368.659014,-10572.117872
852.626328,2516.700203,1554.432478,-10648.727422
852.626648,1406.391290,296.082377,-10035.851024
852.626968,1036.288319,222.061783,-10342.289223
852.627288,1480.411884,1332.370696,-10495.508323
852.627608,2664.741391,2294.638420,-10572.117872
852.627928,74.020594,2738.761985,-10572.117872
852.628248,0.000000,2220.617826,-10112.460574
852.628568,1554.432478,1406.391290,-10112.460574
852.628887,2960.823768,740.205942,-10418.898773
852.629207,2812.782580,518.144159,-9959.241474
852.629527,2812.782580,-148.041188,-10418.898773
852.629847,2960.823768,-370.102971,-9806.022374
852.630167,2368.659014,296.082377,-9882.631924
852.630487,1036.288319,3330.926739,-9576.193725
852.630807,1480.411884,3108.864956,-10648.727422
852.631127,3330.926739,2146.597232,-10878.556072
852.631447,3108.864956,1776.494261,-10035.851024
852.631767,2590.720797,1110.308913,-9959.241474
852.632087,3108.864956,1110.308913,-10265.679673
852.632407,2442.679609,1702.473667,-10418.898773
852.632727,518.144159,1554.432478,-10572.117872
852.633047,-888.247130,1184.329507,-9576.193725
852.633367,666.185348,518.144159,-10265.679673
852.633687,2738.761985,814.226536,-9959.241474
852.634007,2072.576638,1258.350101,-10572.117872
852.634327,2146.597232,2442.679609,-9806.022374
852.634647,2738.761985,3404.947333,-10035.851024
852.634967,5403.503377,4589.276840,-10648.727422
852.635287,4737.318029,4441.235652,-10189.070123
852.635607,2960.823768,3034.844362,-10035.851024
852.635927,2294.638420,2146.597232,-9959.241474
852.636247,2812.782580,962.267725,-9806.022374
852.636567,3627.009116,1480.411884,-10189.070123
852.636887,962.267725,2664.741391,-9882.631924
852.637207,222.061783,3627.009116,-9729.412825
852.637527,2072.576638,4293.194464,-9806.022374
852.637847,4441.235652,4811.338623,-10878.556072
852.638167,4071.132681,4293.194464,-10418.898773
852.638487,1924.535449,3478.967927,-10265.679673
852.638807,2294.638420,3256.906145,-10342.289223
852.639127,3404.947333,2960.823768,-10112.460574
852.639447,3923.091493,3997.112087,-10648.727422
852.639767,2664.741391,4367.215058,-10112.460574
852.640087,1554.432478,4071.132681,-10035.851024
852.640407,1998.556043,4219.173869,-10035.851024
852.640727,2294.638420,4145.153275,-9806.022374
852.641047,2368.659014,3478.967927,-10648.727422
852.641367,2442.679609,2664.741391,-9806.022374
852.641687,1776.494261,2442.679609,-10112.460574
852.642007,1480.411884,2516.700203,-9806.022374
852.642327,1332.370696,3034.844362,-9576.193725
852.642647,2294.638420,3404.947333,-10265.679673
852.642967,2960.823768,3923.091493,-9959.241474
852.643287,2664.741391,4515.256246,-10495.508323
852.643607,1184.329507,4663.297435,-10418.898773
852.643927,444.123565,4293.194464,-9499.584175
852.644247,1332.370696,3330.926739,-10342.289223
852.644566,3034.844362,1776.494261,-9729.412825
852.644886,2368.659014,296.082377,-9422.974625
852.645206,1110.308913,296.082377,-10035.851024
