#time,accel_x,accel_y,accel_z
861.946075,740.205942,0.000000,-9959.241474
861.946395,518.144159,0.000000,-9959.241474
861.946715,814.226536,0.000000,-10112.460574
861.947035,444.123565,370.102971,-10342.289223
861.947355,222.061783,740.205942,-10035.851024
861.947675,296.082377,592.164754,-9959.241474
861.947996,222.061783,444.123565,-9882.631924
861.948316,370.102971,0.000000,-10112.460574
861.948636,444.123565,0.000000,-10035.851024
861.948956,518.144159,222.061783,-10112.460574
861.949276,814.226536,666.185348,-10112.460574
861.949596,888.247130,666.185348,-9959.241474
861.949916,740.205942,518.144159,-10112.460574
861.950236,592.164754,0.000000,-9959.241474
861.950556,666.185348,-296.082377,-9959.241474
861.950876,518.144159,-518.144159,-9422.974625
861.951197,518.144159,0.000000,-9806.022374
861.951517,148.041188,370.102971,-10112.460574
861.951837,222.061783,666.185348,-10112.460574
861.952157,518.144159,1184.329507,-10035.851024
861.952477,740.205942,666.185348,-10112.460574
861.952797,814.226536,0.000000,-10342.289223
861.953117,666.185348,0.000000,-10112.460574
861.953437,592.164754,-296.082377,-10112.460574
861.953757,592.164754,296.082377,-9499.584175
861.954077,666.185348,296.082377,-10189.070123
861.954397,0.000000,444.123565,-10265.679673
861.954718,74.020594,148.041188,-9959.241474
861.955038,148.041188,888.247130,-9652.803275
861.955358,666.185348,74.020594,-10189.070123
861.955678,592.164754,222.061783,-10112.460574
861.955998,444.123565,296.082377,-10035.851024
861.956318,518.144159,444.123565,-10189.070123
861.956638,962.267725,370.102971,-9959.241474
861.956958,444.123565,370.102971,-10265.679673
861.957278,222.061783,-370.102971,-10035.851024
861.957598,0.000000,-1036.288319,-9959.241474
861.957918,518.144159,-888.247130,-10112.460574
861.958239,296.082377,-666.185348,-10035.851024
861.958559,-592.164754,0.000000,-9959.241474
861.958879,-740.205942,-222.061783,-10189.070123
861.959199,0.000000,-222.061783,-10189.070123
861.959519,0.000000,-370.102971,-10035.851024
861.959839,-444.123565,-666.185348,-10035.851024
861.960159,-666.185348,-1406.391290,-9806.022374
861.960479,148.041188,-1332.370696,-9806.022374
861.960799,148.041188,-592.164754,-8580.269578
861.961119,-370.102971,-888.247130,-9806.022374
861.961439,-1036.288319,-1184.329507,-10035.851024
861.961760,-814.226536,-1332.370696,-10035.851024
861.962080,-370.102971,-1036.288319,-9959.241474
861.962400,-1036.288319,-888.247130,-10035.851024
861.962720,-1776.494261,-1258.350101,-9959.241474
861.963040,-2072.576638,-1480.411884,-9959.241474
861.963360,-1036.288319,-1554.432478,-9959.241474
861.963680,-962.267725,-740.205942,-9652.803275
861.964000,-1924.535449,-1850.514855,-10265.679673
861.964320,-3182.885551,-2886.803174,-10035.851024
861.964640,-3478.967927,-3478.967927,-9422.974625
861.964960,-2664.741391,-2960.823768,-11108.384721
861.965281,-2368.659014,-3182.885551,-9806.022374
861.965601,-2590.720797,-3404.947333,-9959.241474
861.965921,-2738.761985,-3627.009116,-9729.412825
861.966241,-1850.514855,-3627.009116,-9806.022374
861.966561,-444.123565,-2664.741391,-9652.803275
861.966881,148.041188,-1702.473667,-10189.070123
861.967201,-1184.329507,-1184.329507,-10418.898773
861.967521,-2442.679609,-1480.411884,-10418.898773
861.967841,-3701.029710,-2220.617826,-10035.851024
861.968161,-5033.400406,-3108.864956,-10112.460574
861.968481,-6291.750507,-4293.194464,-9729.412825
861.968802,-6291.750507,-5107.421000,-9806.022374
861.969122,-4367.215058,-5699.585753,-9806.022374
861.969442,-1406.391290,-4811.338623,-9499.584175
861.969762,296.082377,-3404.947333,-10189.070123
861.970082,666.185348,-1184.329507,-10495.508323
861.970402,888.247130,592.164754,-10572.117872
861.970722,2146.597232,1998.556043,-10265.679673
861.971042,2442.679609,666.185348,-10418.898773
861.971362,1702.473667,-666.185348,-10572.117872
861.971682,0.000000,-2590.720797,-9959.241474
861.972002,-1998.556043,-3552.988522,-10035.851024
861.972323,-3552.988522,-3923.091493,-9806.022374
861.972643,-4663.297435,-4145.153275,-9576.193725
861.972963,-3849.070898,-4811.338623,-9269.755526
861.973283,-888.247130,-5773.606348,-9499.584175
861.973603,1702.473667,-4737.318029,-9576.193725
861.973923,2516.700203,-2812.782580,-10112.460574
861.974243,3404.947333,370.102971,-10112.460574
861.974563,4737.318029,2294.638420,-10648.727422
861.974883,4885.359217,2886.803174,-11184.994271
861.975203,2812.782580,2146.597232,-10955.165621
861.975523,-1776.494261,0.000000,-10418.898773
861.975844,-4737.318029,-2812.782580,-9806.022374
861.976164,-5551.544565,-4885.359217,-9729.412825
861.976484,-3997.112087,-6365.771101,-9499.584175
861.976804,-3552.988522,-6957.935855,-9729.412825
861.977124,-2664.741391,-5255.462188,-9116.536426
861.977444,-962.267725,-2294.638420,-9959.241474
861.977764,1406.391290,740.205942,-10265.679673
861.978084,2220.617826,3330.926739,-10801.946522
861.978404,1554.432478,3923.091493,-10878.556072
861.978724,2368.659014,3034.844362,-10495.508323
861.979044,1776.494261,518.144159,-10955.165621
861.979365,-518.144159,-1332.370696,-10418.898773
861.979685,-3997.112087,-1924.535449,-9806.022374
861.980005,-5477.523971,-1924.535449,-9882.631924
861.980325,-6365.771101,-2516.700203,-9882.631924
861.980645,-7698.141797,-4219.173869,-9499.584175
861.980965,-7846.182985,-6291.750507,-8886.707777
861.981285,-5773.606348,-5773.606348,-9269.755526
861.981605,-1184.329507,-3552.988522,-9806.022374
861.981925,2220.617826,444.123565,-10112.460574
861.982245,1998.556043,3108.864956,-10495.508323
861.982565,592.164754,3849.070898,-10112.460574
861.982886,296.082377,3330.926739,-10418.898773
861.983206,962.267725,1406.391290,-10418.898773
861.983526,518.144159,-1110.308913,-9652.803275
861.983846,-2812.782580,-3552.988522,-10189.070123
861.984166,-6217.729913,-4959.379811,-9882.631924
861.984486,-7920.203579,-4145.153275,-8963.317327
861.984806,-8882.471304,-3404.947333,-9116.536426
861.985126,-6439.791695,-4071.132681,-8273.831378
861.985446,-2886.803174,-4959.379811,-9269.755526
861.985766,1702.473667,-3775.050304,-10112.460574
861.986087,3849.070898,-1554.432478,-10418.898773
861.986407,4219.173869,444.123565,-10572.117872
861.986727,4441.235652,2886.803174,-10495.508323
861.987047,4441.235652,4071.132681,-11414.822920
861.987367,2886.803174,3108.864956,-10955.165621
861.987687,-148.041188,370.102971,-10725.336972
861.988007,-3923.091493,-2960.823768,-10418.898773
861.988327,-6587.832884,-5329.482782,-10189.070123
861.988647,-6439.791695,-7624.121203,-9576.193725
861.988967,-5107.421000,-8068.244768,-9422.974625
861.989287,-3997.112087,-6883.915261,-9499.584175
861.989608,-3108.864956,-4219.173869,-9576.193725
861.989928,-370.102971,-1480.411884,-10035.851024
861.990248,3552.988522,148.041188,-9959.241474
861.990568,6217.729913,2516.700203,-10801.946522
861.990888,5773.606348,2146.597232,-11491.432470
861.991208,2072.576638,888.247130,-10725.336972
861.991528,-1258.350101,-1406.391290,-10189.070123
861.991848,-3034.844362,-2664.741391,-9959.241474
861.992168,-3701.029710,-4219.173869,-10112.460574
861.992488,-5995.668130,-6069.688724,-9576.193725
861.992808,-7402.059420,-7254.018232,-9116.536426
861.993129,-5773.606348,-8142.265362,-9116.536426
861.993449,-2368.659014,-5847.626942,-9806.022374
861.993769,-1110.308913,-2960.823768,-9806.022374
861.994089,-1332.370696,-444.123565,-10112.460574
861.994409,-1110.308913,1406.391290,-9959.241474
861.994729,2072.576638,1554.432478,-10342.289223
861.995049,4737.318029,518.144159,-10955.165621
861.995369,3330.926739,1110.308913,-11184.994271
861.995689,740.205942,-1036.288319,-10648.727422
861.996009,-1702.473667,-1850.514855,-10265.679673
861.996329,-3404.947333,-2072.576638,-10495.508323
861.996650,-6957.935855,-3182.885551,-9959.241474
861.996970,-7698.141797,-5403.503377,-9346.365076
861.997290,-5329.482782,-5699.585753,-9269.755526
861.997610,-3256.906145,-5403.503377,-9576.193725
861.997930,-814.226536,-2516.700203,-9806.022374
861.998250,814.226536,-592.164754,-10112.460574
861.998570,3923.091493,222.061783,-11031.775171
861.998890,3997.112087,1406.391290,-11184.994271
861.999210,1332.370696,-296.082377,-9652.803275
861.999530,-1850.514855,148.041188,-10265.679673
861.999850,-740.205942,-296.082377,-10648.727422
862.000171,888.247130,148.041188,-10878.556072
862.000491,-1406.391290,-1110.308913,-10878.556072
862.000811,-5033.400406,-3330.926739,-9576.193725
862.001131,-5329.482782,-3997.112087,-9959.241474
862.001451,-2738.761985,-2442.679609,-9806.022374
862.001771,-444.123565,-1480.411884,-9576.193725
862.002091,1258.350101,-1480.411884,-9422.974625
862.002411,1332.370696,-1850.514855,-9806.022374
862.002731,1332.370696,-1850.514855,-9959.241474
862.003051,1554.432478,1332.370696,-10035.851024
862.003371,222.061783,4219.173869,-11184.994271
862.003691,74.020594,3775.050304,-10265.679673
862.004011,222.061783,1776.494261,-9652.803275
862.004331,0.000000,-1332.370696,-10035.851024
862.004651,-1998.556043,-3701.029710,-9806.022374
862.004971,-2960.823768,-5181.441594,-9499.584175
862.005291,-3627.009116,-4515.256246,-9116.536426
862.005611,-4219.173869,-888.247130,-9806.022374
862.005931,-3997.112087,1924.535449,-9346.365076
862.006251,0.000000,2886.803174,-9806.022374
862.006571,4071.132681,2516.700203,-10725.336972
862.006891,3923.091493,1258.350101,-10878.556072
862.007211,2886.803174,-740.205942,-10801.946522
862.007531,2294.638420,-1702.473667,-9806.022374
862.007851,2072.576638,0.000000,-9882.631924
862.008171,0.000000,3182.885551,-10648.727422
862.008491,-1110.308913,2738.761985,-10725.336972
862.008811,-2664.741391,-666.185348,-10725.336972
862.009131,-1850.514855,-2738.761985,-9576.193725
862.009451,-222.061783,-2368.659014,-9806.022374
862.009771,888.247130,-814.226536,-9959.241474
862.010091,-222.061783,962.267725,-9882.631924
862.010411,0.000000,0.000000,-10035.851024
862.010731,1258.350101,-814.226536,-9729.412825
862.011051,3701.029710,0.000000,-10265.679673
862.011371,3404.947333,1406.391290,-10878.556072
862.011691,3256.906145,2368.659014,-10495.508323
862.012011,1702.473667,2886.803174,-9422.974625
862.012331,1258.350101,1554.432478,-10035.851024
862.012651,1554.432478,-296.082377,-9959.241474
862.012971,-518.144159,-1110.308913,-10189.070123
862.013291,-2368.659014,-2886.803174,-9652.803275
862.013611,-3034.844362,-2664.741391,-9576.193725
862.013931,-2072.576638,-962.267725,-9806.022374
862.014251,-1850.514855,-370.102971,-9806.022374
862.014571,-888.247130,-296.082377,-9959.241474
862.014891,1036.288319,222.061783,-10725.336972
862.015211,2664.741391,148.041188,-10342.289223
862.015531,3923.091493,1036.288319,-10265.679673
862.015851,4737.318029,-444.123565,-10265.679673
862.016171,2738.761985,296.082377,-10342.289223
862.016491,0.000000,2072.576638,-10342.289223
862.016811,-2368.659014,1258.350101,-10418.898773
862.017131,-2664.741391,1036.288319,-10418.898773
862.017451,-4441.235652,-592.164754,-9959.241474
862.017771,-3552.988522,-2442.679609,-9806.022374
862.018091,-962.267725,-1702.473667,-10189.070123
862.018411,74.020594,-814.226536,-10112.460574
862.018731,1924.535449,-592.164754,-10035.851024
862.019051,2886.803174,444.123565,-9959.241474
862.019371,1776.494261,592.164754,-10801.946522
862.019691,-296.082377,148.041188,-9882.631924
862.020011,0.000000,-296.082377,-9882.631924
862.020331,-444.123565,1406.391290,-10112.460574
862.020651,1332.370696,1776.494261,-10189.070123
862.020971,2738.761985,1258.350101,-10112.460574
862.021291,1776.494261,-1332.370696,-9806.022374
862.021611,-1036.288319,-2368.659014,-9806.022374
862.021931,-2146.597232,-4071.132681,-8580.269578
862.022251,-2368.659014,-3997.112087,-9346.365076
862.022571,-962.267725,-1110.308913,-9652.803275
862.022890,518.144159,1628.453072,-9882.631924
862.023210,1628.453072,2072.576638,-9806.022374
862.023530,3701.029710,1480.411884,-10112.460574
862.023850,3997.112087,740.205942,-10955.165621
862.024170,3627.009116,0.000000,-10801.946522
862.024490,1554.432478,-296.082377,-10801.946522
862.024810,888.247130,1110.308913,-10648.727422
862.025130,1110.308913,1998.556043,-10189.070123
862.025450,592.164754,962.267725,-10955.165621
862.025770,-2368.659014,-1850.514855,-9806.022374
862.026090,-2220.617826,-2294.638420,-10265.679673
862.026410,-148.041188,-1258.350101,-9806.022374
862.026730,1406.391290,-1924.535449,-10342.289223
862.027050,3034.844362,-592.164754,-9959.241474
862.027370,2590.720797,888.247130,-10035.851024
862.027690,1924.535449,1036.288319,-10112.460574
862.028010,1702.473667,2220.617826,-10495.508323
862.028330,666.185348,2590.720797,-11108.384721
862.028650,-370.102971,3404.947333,-10495.508323
862.028970,-370.102971,3775.050304,-9882.631924
862.029290,-148.041188,518.144159,-9652.803275
862.029610,4145.153275,-1924.535449,-10112.460574
862.029930,1480.411884,-2590.720797,-9882.631924
862.030250,-1554.432478,-2220.617826,-9882.631924
862.030570,-1998.556043,74.020594,-9806.022374
862.030890,-666.185348,888.247130,-10035.851024
862.031210,74.020594,1850.514855,-10189.070123
862.031530,814.226536,3404.947333,-10418.898773
862.031850,1258.350101,2442.679609,-10418.898773
862.032170,1924.535449,74.020594,-10418.898773
862.032490,1702.473667,592.164754,-10189.070123
862.032810,296.082377,592.164754,-10112.460574
862.033130,518.144159,296.082377,-10495.508323
862.033450,740.205942,148.041188,-10189.070123
862.033770,-1776.494261,-1406.391290,-9882.631924
862.034090,-3478.967927,-1110.308913,-9959.241474
862.034410,-3034.844362,-1480.411884,-9576.193725
862.034730,-1258.350101,0.000000,-11184.994271
862.035050,0.000000,0.000000,-9959.241474
862.035370,0.000000,74.020594,-10035.851024
862.035690,814.226536,-1036.288319,-9882.631924
862.036010,1406.391290,-148.041188,-10265.679673
862.036330,1998.556043,1332.370696,-11261.603821
862.036650,370.102971,3923.091493,-10878.556072
862.036970,-1332.370696,4515.256246,-10342.289223
862.037290,-2664.741391,2146.597232,-10189.070123
862.037610,-814.226536,-740.205942,-10035.851024
862.037930,740.205942,-2072.576638,-9576.193725
862.038250,1406.391290,-3034.844362,-9959.241474
862.038570,1850.514855,-1628.453072,-10112.460574
862.038890,444.123565,1554.432478,-9729.412825
862.039210,1776.494261,2368.659014,-10495.508323
862.039530,2516.700203,2812.782580,-10035.851024
862.039850,2368.659014,1332.370696,-10265.679673
862.040170,1480.411884,296.082377,-9959.241474
862.040490,962.267725,0.000000,-9959.241474
862.040810,2220.617826,592.164754,-10112.460574
862.041130,148.041188,370.102971,-9959.241474
862.041450,888.247130,-74.020594,-9652.803275
862.041770,1628.453072,-740.205942,-9882.631924
862.042090,1628.453072,-888.247130,-10035.851024
862.042410,296.082377,-1332.370696,-9729.412825
862.042730,-740.205942,-962.267725,-9806.022374
862.043049,296.082377,0.000000,-9346.365076
862.043369,2664.741391,296.082377,-11184.994271
862.043689,3701.029710,2442.679609,-10495.508323
862.044009,3775.050304,1480.411884,-10418.898773
862.044329,3478.967927,1036.288319,-10725.336972
862.044649,3034.844362,74.020594,-9806.022374
862.044969,592.164754,2294.638420,-10495.508323
862.045289,-1998.556043,2442.679609,-10495.508323
862.045609,-518.144159,222.061783,-10418.898773
862.045929,1332.370696,-1406.391290,-9959.241474
862.046249,666.185348,-1998.556043,-9959.241474
862.046569,-814.226536,-592.164754,-10495.508323
862.046889,-2294.638420,592.164754,-10265.679673
862.047209,-666.185348,1776.494261,-10495.508323
862.047529,1332.370696,1776.494261,-9576.193725
862.047849,3330.926739,814.226536,-10725.336972
862.048169,2738.761985,148.041188,-10342.289223
862.048489,1036.288319,0.000000,-10418.898773
862.048809,370.102971,-1036.288319,-9959.241474
862.049129,-814.226536,-962.267725,-9729.412825
862.049449,-1998.556043,444.123565,-9652.803275
862.049769,-592.164754,444.123565,-9806.022374
862.050089,0.000000,148.041188,-9882.631924
862.050409,-592.164754,-740.205942,-10035.851024
862.050729,-296.082377,-2886.803174,-9499.584175
862.051049,-1628.453072,-1628.453072,-9499.584175
862.051369,-2294.638420,-1110.308913,-9576.193725
862.051689,-1036.288319,-1480.411884,-9806.022374
862.052009,1332.370696,1480.411884,-9882.631924
862.052329,1406.391290,3182.885551,-10495.508323
862.052649,962.267725,3034.844362,-11031.775171
862.052969,592.164754,2146.597232,-10495.508323
862.053289,-1480.411884,814.226536,-9882.631924
862.053609,-888.247130,-2146.597232,-9346.365076
862.053929,-370.102971,-2146.597232,-9882.631924
862.054249,-666.185348,-2220.617826,-9959.241474
862.054569,-1702.473667,-1628.453072,-10035.851024
862.054889,-518.144159,-1406.391290,-10265.679673
862.055209,0.000000,0.000000,-9882.631924
862.055529,592.164754,962.267725,-10265.679673
862.055849,1702.473667,1924.535449,-10648.727422
862.056169,1184.329507,1184.329507,-9806.022374
862.056489,1036.288319,1554.432478,-10725.336972
862.056809,1628.453072,666.185348,-10342.289223
862.057129,666.185348,518.144159,-10189.070123
862.057449,888.247130,222.061783,-10035.851024
862.057769,148.041188,-2294.638420,-9806.022374
862.058089,1258.350101,-814.226536,-10725.336972
862.058409,148.041188,1258.350101,-9729.412825
862.058729,74.020594,1480.411884,-10418.898773
862.059049,1110.308913,2146.597232,-10572.117872
862.059369,0.000000,740.205942,-9882.631924
862.059689,962.267725,-962.267725,-9729.412825
862.060009,1406.391290,-1258.350101,-9576.193725
862.060329,2072.576638,666.185348,-10265.679673
862.060649,1110.308913,1406.391290,-10112.460574
862.060969,740.205942,1850.514855,-10572.117872
862.061289,1850.514855,1332.370696,-9729.412825
862.061609,2590.720797,1258.350101,-10189.070123
862.061929,1554.432478,592.164754,-9806.022374
862.062249,1776.494261,296.082377,-10572.117872
862.062569,370.102971,666.185348,-10035.851024
862.062889,0.000000,444.123565,-9729.412825
862.063208,296.082377,592.164754,-9652.803275
862.063528,592.164754,296.082377,-9806.022374
862.063848,1776.494261,0.000000,-10265.679673
862.064168,2368.659014,592.164754,-10342.289223
862.064488,1480.411884,1036.288319,-10112.460574
862.064808,1332.370696,518.144159,-10035.851024
862.065128,962.267725,1184.329507,-10035.851024
862.065448,-1628.453072,2368.659014,-9806.022374
862.065768,-1628.453072,-296.082377,-9806.022374
862.066088,888.247130,-1332.370696,-9959.241474
862.066408,962.267725,-1258.350101,-9576.193725
862.066728,1406.391290,592.164754,-10495.508323
862.067048,0.000000,2146.597232,-10265.679673
862.067368,-1036.288319,2368.659014,-10648.727422
862.067688,-1480.411884,1776.494261,-9959.241474
862.068008,-518.144159,148.041188,-9882.631924
862.068328,1776.494261,-1036.288319,-10342.289223
862.068648,2516.700203,0.000000,-10112.460574
862.068968,1776.494261,0.000000,-10342.289223
862.069288,814.226536,370.102971,-10418.898773
862.069608,-1776.494261,1184.329507,-10035.851024
862.069928,-2146.597232,962.267725,-10418.898773
862.070248,-888.247130,1036.288319,-10342.289223
862.070568,-962.267725,0.000000,-10112.460574
862.070888,740.205942,2368.659014,-11031.775171
862.071208,1184.329507,1184.329507,-10342.289223
862.071528,1184.329507,-888.247130,-11108.384721
862.071848,1036.288319,296.082377,-9806.022374
862.072168,518.144159,1554.432478,-10801.946522
862.072488,444.123565,1850.514855,-10495.508323
862.072808,1036.288319,2442.679609,-10189.070123
862.073128,1332.370696,592.164754,-10189.070123
862.073448,1554.432478,-370.102971,-9652.803275
862.073768,592.164754,-1554.432478,-9269.755526
862.074088,740.205942,-1258.350101,-10189.070123
862.074408,814.226536,-1110.308913,-9576.193725
862.074728,-518.144159,-1184.329507,-9652.803275
862.075048,-1258.350101,-1184.329507,-8886.707777
862.075368,-1702.473667,-1036.288319,-9576.193725
862.075688,-296.082377,-222.061783,-9039.926876
862.076008,-222.061783,-592.164754,-9652.803275
862.076328,2368.659014,-222.061783,-10112.460574
862.076648,4219.173869,296.082377,-10265.679673
862.076968,2072.576638,-666.185348,-11108.384721
862.077288,1702.473667,-444.123565,-10112.460574
862.077608,1702.473667,1776.494261,-10035.851024
862.077928,-222.061783,4663.297435,-10495.508323
862.078248,-444.123565,6291.750507,-11031.775171
862.078568,740.205942,5403.503377,-10725.336972
862.078888,1628.453072,740.205942,-10418.898773
862.079208,1628.453072,-2146.597232,-9806.022374
862.079528,1406.391290,-4145.153275,-9806.022374
862.079848,-444.123565,-2960.823768,-9806.022374
862.080168,-740.205942,-888.247130,-9729.412825
862.080488,0.000000,518.144159,-9882.631924
862.080808,1406.391290,1776.494261,-10265.679673
862.081128,1258.350101,2960.823768,-10725.336972
862.081448,-518.144159,2886.803174,-10342.289223
862.081768,-296.082377,1850.514855,-9729.412825
862.082088,444.123565,-370.102971,-9499.584175
862.082408,2516.700203,-1702.473667,-9882.631924
862.082728,2664.741391,-2516.700203,-9806.022374
862.083048,1036.288319,-1628.453072,-9806.022374
862.083367,518.144159,-592.164754,-9652.803275
862.083687,222.061783,2146.597232,-9806.022374
862.084007,-370.102971,3330.926739,-9806.022374
862.084327,-888.247130,2442.679609,-9806.022374
862.084647,1332.370696,1480.411884,-9729.412825
862.084967,2368.659014,-740.205942,-9959.241474
862.085287,1998.556043,-888.247130,-9959.241474
862.085607,74.020594,-148.041188,-10035.851024
862.085927,-2220.617826,296.082377,-9806.022374
862.086247,-1702.473667,1406.391290,-9882.631924
862.086567,-1184.329507,1850.514855,-9959.241474
862.086887,-888.247130,0.000000,-9806.022374
862.087207,518.144159,666.185348,-10418.898773
862.087527,148.041188,370.102971,-10418.898773
862.087847,2072.576638,888.247130,-10342.289223
862.088167,1924.535449,1110.308913,-10189.070123
862.088487,1702.473667,740.205942,-10725.336972
862.088807,1776.494261,0.000000,-10342.289223
862.089127,518.144159,296.082377,-10801.946522
862.089447,-222.061783,1036.288319,-9882.631924
862.089767,-296.082377,1332.370696,-10725.336972
862.090087,-666.185348,2146.597232,-10495.508323
862.090407,0.000000,814.226536,-10035.851024
862.090727,1628.453072,-1406.391290,-10495.508323
862.091047,2072.576638,-2220.617826,-10112.460574
862.091367,1036.288319,-1258.350101,-10112.460574
862.091687,888.247130,74.020594,-10189.070123
862.092007,0.000000,2146.597232,-10189.070123
862.092327,-740.205942,2664.741391,-10035.851024
862.092647,740.205942,222.061783,-10035.851024
862.092967,1258.350101,-962.267725,-9729.412825
862.093287,666.185348,-888.247130,-9499.584175
862.093607,740.205942,0.000000,-10189.070123
862.093927,148.041188,962.267725,-10189.070123
862.094247,0.000000,0.000000,-9729.412825
862.094567,518.144159,-444.123565,-9422.974625
862.094887,0.000000,-370.102971,-9499.584175
862.095207,0.000000,0.000000,-10035.851024
862.095527,-296.082377,-222.061783,-10265.679673
862.095847,-296.082377,1110.308913,-9729.412825
862.096167,-1332.370696,1406.391290,-9806.022374
862.096487,-1406.391290,1110.308913,-10035.851024
862.096807,444.123565,0.000000,-9959.241474
862.097127,1258.350101,-370.102971,-10112.460574
862.097447,0.000000,-222.061783,-10035.851024
862.097767,-814.226536,1110.308913,-10265.679673
862.098087,-592.164754,888.247130,-10189.070123
862.098407,-518.144159,666.185348,-9959.241474
862.098727,518.144159,-370.102971,-10265.679673
862.099047,2590.720797,148.041188,-11261.603821
862.099367,2368.659014,444.123565,-10418.898773
862.099687,1480.411884,2368.659014,-10801.946522
862.100007,-222.061783,2368.659014,-10265.679673
862.100327,-1036.288319,2368.659014,-10572.117872
862.100647,-222.061783,1258.350101,-10189.070123
862.100967,1184.329507,-888.247130,-10035.851024
862.101287,1628.453072,-740.205942,-9959.241474
862.101607,888.247130,888.247130,-10189.070123
862.101927,888.247130,1480.411884,-10265.679673
862.102247,296.082377,2812.782580,-9959.241474
862.102567,0.000000,1406.391290,-9806.022374
862.102886,1480.411884,0.000000,-9882.631924
862.103206,3330.926739,-1480.411884,-9346.365076
862.103526,2664.741391,-740.205942,-9806.022374
862.103846,2442.679609,0.000000,-9959.241474
862.104166,2442.679609,444.123565,-10112.460574
862.104485,1480.411884,296.082377,-9806.022374
862.104805,666.185348,888.247130,-9959.241474
862.105125,518.144159,2368.659014,-9959.241474
862.105445,0.000000,2294.638420,-10648.727422
862.105765,74.020594,962.267725,-9959.241474
862.106085,148.041188,-1184.329507,-10189.070123
862.106404,-518.144159,-1628.453072,-9806.022374
862.106724,-592.164754,-1480.411884,-10189.070123
862.107044,1110.308913,-222.061783,-10572.117872
862.107364,1702.473667,1406.391290,-10418.898773
862.107684,0.000000,1702.473667,-10495.508323
862.108003,0.000000,2294.638420,-10648.727422
862.108323,-296.082377,2368.659014,-10495.508323
862.108643,0.000000,2072.576638,-10265.679673
862.108963,1332.370696,592.164754,-10495.508323
862.109283,1924.535449,-1184.329507,-10648.727422
862.109603,1776.494261,-3108.864956,-9882.631924
862.109922,814.226536,-3108.864956,-9729.412825
862.110242,-222.061783,-2220.617826,-9576.193725
862.110562,-1110.308913,888.247130,-9882.631924
862.110882,-1184.329507,2442.679609,-10418.898773
862.111202,888.247130,2146.597232,-10112.460574
862.111521,740.205942,370.102971,-10112.460574
862.111841,-1184.329507,-592.164754,-9806.022374
862.112161,-1924.535449,-3330.926739,-9729.412825
862.112481,-1184.329507,-2664.741391,-9652.803275
862.112801,-592.164754,-666.185348,-9729.412825
862.113121,1258.350101,962.267725,-9959.241474
862.113440,1258.350101,962.267725,-10112.460574
862.113760,-148.041188,518.144159,-10112.460574
862.114080,-740.205942,-444.123565,-10035.851024
862.114400,-148.041188,0.000000,-9959.241474
862.114720,-370.102971,592.164754,-9959.241474
862.115039,1258.350101,888.247130,-10495.508323
862.115359,370.102971,1184.329507,-10495.508323
862.115679,222.061783,444.123565,-10342.289223
862.115999,-444.123565,-888.247130,-10342.289223
862.116319,-444.123565,-814.226536,-10112.460574
862.116639,-1184.329507,-592.164754,-9959.241474
862.116958,-592.164754,666.185348,-10648.727422
862.117278,-222.061783,370.102971,-9882.631924
862.117598,740.205942,-148.041188,-10572.117872
862.117918,1258.350101,-296.082377,-10189.070123
862.118238,222.061783,0.000000,-10725.336972
862.118558,0.000000,222.061783,-9882.631924
862.118877,-888.247130,814.226536,-10035.851024
862.119197,296.082377,-592.164754,-9959.241474
862.119517,1554.432478,-814.226536,-10112.460574
862.119837,1554.432478,-962.267725,-10495.508323
862.120157,444.123565,-222.061783,-10801.946522
862.120476,1110.308913,1480.411884,-10189.070123
862.120796,740.205942,3849.070898,-10342.289223
862.121116,0.000000,4811.338623,-10189.070123
862.121436,518.144159,4959.379811,-10801.946522
862.121756,2146.597232,2664.741391,-10035.851024
862.122076,2664.741391,-518.144159,-10112.460574
862.122395,1924.535449,-2590.720797,-9652.803275
862.122715,962.267725,-2516.700203,-9882.631924
862.123035,518.144159,-962.267725,-10572.117872
862.123355,1554.432478,2220.617826,-9882.631924
862.123675,1554.432478,4071.132681,-10418.898773
862.123994,3478.967927,3775.050304,-10495.508323
862.124314,2368.659014,2220.617826,-10189.070123
862.124634,148.041188,0.000000,-9959.241474
862.124954,222.061783,-1406.391290,-8963.317327
862.125274,2516.700203,-888.247130,-10189.070123
862.125594,2442.679609,-1110.308913,-9806.022374
862.125913,1776.494261,-444.123565,-10035.851024
862.126233,1332.370696,0.000000,-9652.803275
862.126553,-814.226536,1258.350101,-9959.241474
862.126873,-1184.329507,1628.453072,-9652.803275
862.127193,0.000000,1110.308913,-9576.193725
862.127512,1776.494261,-222.061783,-10342.289223
862.127832,2220.617826,-666.185348,-9806.022374
862.128152,1332.370696,-1998.556043,-10112.460574
862.128472,222.061783,-740.205942,-9959.241474
862.128792,-1924.535449,296.082377,-8580.269578
862.129112,-370.102971,2294.638420,-10265.679673
862.129431,222.061783,2590.720797,-10112.460574
862.129751,-666.185348,1924.535449,-10265.679673
862.130071,0.000000,666.185348,-10418.898773
862.130391,1998.556043,-888.247130,-10342.289223
862.130711,1332.370696,-740.205942,-10495.508323
862.131030,0.000000,74.020594,-9806.022374
862.131350,-518.144159,666.185348,-10189.070123
862.131670,-370.102971,1850.514855,-9959.241474
862.131990,0.000000,0.000000,-10418.898773
862.132310,0.000000,-370.102971,-10265.679673
862.132630,-592.164754,-592.164754,-10035.851024
862.132949,-444.123565,-1036.288319,-10035.851024
862.133269,-296.082377,-592.164754,-10035.851024
862.133589,518.144159,-148.041188,-10112.460574
862.133909,444.123565,-74.020594,-10342.289223
862.134229,444.123565,-888.247130,-9882.631924
862.134548,1406.391290,-1702.473667,-10112.460574
862.134868,740.205942,222.061783,-10112.460574
862.135188,-518.144159,740.205942,-10035.851024
862.135508,-1332.370696,74.020594,-10418.898773
862.135828,-518.144159,0.000000,-9499.584175
862.136148,-296.082377,-1776.494261,-10035.851024
862.136467,296.082377,-1850.514855,-9806.022374
862.136787,0.000000,-370.102971,-9806.022374
862.137107,-1184.329507,1776.494261,-10495.508323
862.137427,-592.164754,2146.597232,-9422.974625
862.137747,-148.041188,592.164754,-10265.679673
862.138066,1628.453072,-1258.350101,-10035.851024
862.138386,1480.411884,-1110.308913,-9806.022374
862.138706,1184.329507,-370.102971,-10035.851024
862.139026,1406.391290,814.226536,-10035.851024
862.139346,0.000000,1628.453072,-10112.460574
862.139666,-1110.308913,666.185348,-9729.412825
862.139985,666.185348,444.123565,-9959.241474
862.140305,2220.617826,888.247130,-9882.631924
862.140625,3034.844362,-962.267725,-10189.070123
862.140945,740.205942,-888.247130,-10342.289223
862.141265,-888.247130,-148.041188,-9576.193725
862.141584,0.000000,1110.308913,-11184.994271
862.141904,2072.576638,1702.473667,-10265.679673
862.142224,1776.494261,814.226536,-10342.289223
862.142544,1406.391290,0.000000,-10112.460574
862.142864,1628.453072,-740.205942,-10189.070123
862.143184,222.061783,-148.041188,-9882.631924
862.143503,0.000000,296.082377,-9806.022374
862.143823,0.000000,1184.329507,-10572.117872
862.144143,2220.617826,1332.370696,-10035.851024
862.144463,3034.844362,1702.473667,-10418.898773
862.144783,1850.514855,1406.391290,-10112.460574
862.145103,1036.288319,74.020594,-9882.631924
862.145422,1036.288319,-370.102971,-9882.631924
862.145742,1924.535449,444.123565,-10648.727422
862.146062,1110.308913,148.041188,-10112.460574
862.146382,-444.123565,592.164754,-9882.631924
862.146702,-666.185348,1036.288319,-10189.070123
862.147021,518.144159,2442.679609,-10648.727422
862.147341,-1184.329507,3478.967927,-10648.727422
862.147661,-740.205942,962.267725,-10189.070123
862.147981,-666.185348,-1110.308913,-10265.679673
862.148301,1184.329507,-2442.679609,-10418.898773
862.148621,962.267725,-1850.514855,-9882.631924
862.148940,-814.226536,740.205942,-10495.508323
862.149260,-222.061783,3108.864956,-10035.851024
862.149580,814.226536,3108.864956,-10342.289223
862.149900,1332.370696,2442.679609,-10265.679673
862.150220,592.164754,370.102971,-12104.308868
862.150539,0.000000,-3034.844362,-9806.022374
862.150859,148.041188,-3775.050304,-9576.193725
862.151179,370.102971,-3849.070898,-9193.145976
862.151499,-518.144159,-1184.329507,-9422.974625
862.151819,-1258.350101,740.205942,-10342.289223
862.152139,370.102971,1924.535449,-10112.460574
862.152458,1776.494261,2960.823768,-10189.070123
862.152778,444.123565,2294.638420,-10035.851024
862.153098,1332.370696,592.164754,-9959.241474
862.153418,-518.144159,-740.205942,-9499.584175
862.153738,-370.102971,-3330.926739,-9652.803275
862.154057,74.020594,-4441.235652,-9576.193725
862.154377,0.000000,-2738.761985,-9499.584175
862.154697,1480.411884,-1258.350101,-10035.851024
862.155017,1406.391290,2886.803174,-10495.508323
862.155337,222.061783,4367.215058,-10572.117872
862.155657,-1332.370696,3552.988522,-10189.070123
862.155976,-1850.514855,-518.144159,-10112.460574
862.156296,222.061783,-4293.194464,-9806.022374
862.156616,2294.638420,-4811.338623,-9806.022374
862.156936,1406.391290,-2590.720797,-10265.679673
862.157256,592.164754,-444.123565,-10112.460574
862.157575,222.061783,1480.411884,-10648.727422
862.157895,-740.205942,2368.659014,-10955.165621
862.158215,0.000000,1776.494261,-10265.679673
862.158535,148.041188,888.247130,-10265.679673
862.158855,1184.329507,74.020594,-10572.117872
862.159175,2072.576638,-1480.411884,-10265.679673
862.159494,1110.308913,-1480.411884,-10342.289223
862.159814,-370.102971,-2146.597232,-9729.412825
862.160134,-370.102971,-1776.494261,-9959.241474
862.160454,370.102971,0.000000,-9882.631924
862.160774,592.164754,3256.906145,-10342.289223
862.161093,1184.329507,3849.070898,-10648.727422
862.161413,1776.494261,3256.906145,-10418.898773
862.161733,888.247130,666.185348,-10572.117872
862.162053,-740.205942,-2442.679609,-9576.193725
862.162373,1554.432478,-3775.050304,-10112.460574
862.162693,2442.679609,-1406.391290,-9729.412825
862.163012,1332.370696,1184.329507,-9729.412825
862.163332,1480.411884,3997.112087,-11031.775171
862.163652,1850.514855,4219.173869,-11031.775171
862.163972,1110.308913,4071.132681,-10342.289223
862.164292,962.267725,2220.617826,-9959.241474
862.164611,2146.597232,0.000000,-9729.412825
862.164931,2664.741391,-1480.411884,-10189.070123
862.165251,3478.967927,-2220.617826,-9882.631924
862.165571,1628.453072,-444.123565,-9576.193725
862.165891,-2220.617826,1924.535449,-9959.241474
862.166211,0.000000,2294.638420,-10112.460574
862.166530,1480.411884,2886.803174,-10725.336972
862.166850,592.164754,1332.370696,-9959.241474
862.167170,-666.185348,296.082377,-9652.803275
862.167490,-1776.494261,-1332.370696,-9806.022374
862.167810,-518.144159,-2072.576638,-9652.803275
862.168130,0.000000,-2220.617826,-9729.412825
862.168449,148.041188,-666.185348,-9882.631924
862.168769,0.000000,592.164754,-9729.412825
862.169089,0.000000,1850.514855,-10035.851024
862.169409,962.267725,1628.453072,-10189.070123
862.169729,1036.288319,2294.638420,-10035.851024
862.170048,1036.288319,1110.308913,-9959.241474
862.170368,444.123565,222.061783,-9959.241474
862.170688,-222.061783,-962.267725,-9806.022374
862.171008,-962.267725,-1184.329507,-9806.022374
862.171328,-592.164754,-666.185348,-9806.022374
862.171648,814.226536,74.020594,-9576.193725
862.171967,814.226536,962.267725,-9806.022374
862.172287,0.000000,1258.350101,-10418.898773
862.172607,-370.102971,0.000000,-9729.412825
862.172927,0.000000,296.082377,-10035.851024
862.173247,814.226536,888.247130,-9959.241474
862.173566,1628.453072,0.000000,-10418.898773
862.173886,1036.288319,-444.123565,-10189.070123
862.174206,-148.041188,-444.123565,-9882.631924
862.174526,518.144159,-1036.288319,-9959.241474
862.174846,1406.391290,-1776.494261,-10112.460574
862.175166,74.020594,-592.164754,-10418.898773
862.175485,74.020594,-74.020594,-10342.289223
862.175805,-296.082377,0.000000,-10495.508323
862.176125,0.000000,-444.123565,-10035.851024
862.176445,-148.041188,0.000000,-10112.460574
862.176765,296.082377,-518.144159,-10495.508323
862.177084,1480.411884,74.020594,-10112.460574
862.177404,962.267725,0.000000,-10342.289223
862.177724,888.247130,-666.185348,-10265.679673
862.178044,-1332.370696,-1554.432478,-9882.631924
862.178364,-1850.514855,-666.185348,-9806.022374
862.178684,-888.247130,962.267725,-10035.851024
862.179003,222.061783,2072.576638,-10495.508323
862.179323,592.164754,2146.597232,-10418.898773
862.179643,740.205942,-444.123565,-10265.679673
862.179963,370.102971,-2072.576638,-9806.022374
862.180283,-1110.308913,-3182.885551,-9346.365076
862.180602,-1406.391290,-2146.597232,-9346.365076
862.180922,148.041188,0.000000,-10035.851024
862.181242,2072.576638,2590.720797,-10725.336972
862.181562,1850.514855,2960.823768,-9499.584175
862.181882,-296.082377,2220.617826,-10189.070123
862.182202,-962.267725,296.082377,-9806.022374
862.182521,222.061783,-1258.350101,-10035.851024
862.182841,1924.535449,-1628.453072,-9422.974625
862.183161,1110.308913,-444.123565,-9806.022374
862.183481,370.102971,-592.164754,-10189.070123
862.183801,370.102971,-740.205942,-10265.679673
862.184120,-444.123565,-1036.288319,-9959.241474
862.184440,666.185348,740.205942,-10418.898773
862.184760,2294.638420,1998.556043,-10572.117872
862.185080,3997.112087,2516.700203,-10725.336972
862.185400,3478.967927,4145.153275,-10878.556072
862.185720,2146.597232,1628.453072,-9806.022374
862.186039,2516.700203,-148.041188,-10189.070123
862.186359,962.267725,-1850.514855,-9806.022374
862.186679,1480.411884,-2738.761985,-9422.974625
862.186999,0.000000,-666.185348,-9729.412825
862.187319,-962.267725,1036.288319,-9346.365076
862.187638,-296.082377,3108.864956,-9729.412825
862.187958,3404.947333,3034.844362,-9806.022374
862.188278,2220.617826,2368.659014,-10725.336972
862.188598,1554.432478,1332.370696,-9652.803275
862.188918,444.123565,-444.123565,-9959.241474
862.189238,1850.514855,-1184.329507,-9422.974625
862.189557,2812.782580,-740.205942,-9959.241474
862.189877,814.226536,0.000000,-10495.508323
862.190197,814.226536,740.205942,-9806.022374
862.190517,222.061783,2368.659014,-10342.289223
862.190837,296.082377,2590.720797,-10801.946522
862.191156,740.205942,2294.638420,-10725.336972
862.191476,1184.329507,1110.308913,-10035.851024
862.191796,74.020594,444.123565,-10112.460574
862.192116,-222.061783,-444.123565,-10342.289223
862.192436,-888.247130,-888.247130,-10035.851024
862.192756,-1776.494261,-666.185348,-9806.022374
862.193075,-518.144159,1258.350101,-9806.022374
862.193395,1110.308913,1998.556043,-10112.460574
862.193715,1480.411884,2590.720797,-10725.336972
862.194035,74.020594,1406.391290,-10725.336972
862.194355,-888.247130,222.061783,-11568.042020
862.194675,-2738.761985,-888.247130,-10112.460574
862.194994,-1850.514855,-1924.535449,-9652.803275
862.195314,0.000000,-1554.432478,-9806.022374
862.195634,1480.411884,-888.247130,-10112.460574
862.195954,814.226536,222.061783,-10572.117872
862.196274,296.082377,1850.514855,-10418.898773
862.196593,-592.164754,2146.597232,-9882.631924
862.196913,0.000000,1184.329507,-10112.460574
862.197233,1332.370696,-222.061783,-9652.803275
862.197553,2368.659014,-1924.535449,-9882.631924
862.197873,518.144159,-1554.432478,-10112.460574
862.198193,-1036.288319,-592.164754,-10342.289223
862.198512,-2220.617826,592.164754,-10189.070123
862.198832,-1702.473667,962.267725,-9806.022374
862.199152,-666.185348,1110.308913,-9882.631924
862.199472,666.185348,-222.061783,-10189.070123
862.199792,740.205942,-1406.391290,-9959.241474
862.200111,1036.288319,-1998.556043,-10648.727422
862.200431,1332.370696,-1628.453072,-10189.070123
862.200751,666.185348,-740.205942,-10572.117872
862.201071,1554.432478,1036.288319,-10189.070123
862.201391,1110.308913,2294.638420,-10418.898773
862.201711,1628.453072,2664.741391,-10725.336972
862.202030,2294.638420,3182.885551,-10572.117872
862.202350,2960.823768,1258.350101,-10801.946522
862.202670,1850.514855,-962.267725,-10035.851024
862.202990,-518.144159,-2886.803174,-9576.193725
862.203310,0.000000,-3923.091493,-9806.022374
862.203629,0.000000,-2294.638420,-9806.022374
862.203949,-148.041188,666.185348,-10572.117872
862.204269,-740.205942,3404.947333,-10265.679673
862.204589,-444.123565,5403.503377,-10648.727422
862.204909,-370.102971,4811.338623,-10189.070123
862.205200,962.267725,1998.556043,-10189.070123
862.205520,1998.556043,-888.247130,-9882.631924
862.205840,1184.329507,-3404.947333,-8963.317327
862.206160,2294.638420,-3256.906145,-9882.631924
862.206480,2294.638420,-2294.638420,-9499.584175
862.206799,1702.473667,1702.473667,-9269.755526
862.207119,1776.494261,2590.720797,-9959.241474
862.207439,2442.679609,3775.050304,-9806.022374
862.207759,1702.473667,2442.679609,-10189.070123
862.208079,1110.308913,444.123565,-9806.022374
862.208398,444.123565,-1924.535449,-9806.022374
862.208718,74.020594,-2368.659014,-9576.193725
862.209038,-370.102971,-1850.514855,-9346.365076
862.209358,0.000000,0.000000,-9346.365076
862.209678,296.082377,1036.288319,-9806.022374
862.209998,2516.700203,1924.535449,-10189.070123
862.210317,1258.350101,2294.638420,-10878.556072
862.210637,-444.123565,1480.411884,-10342.289223
862.210957,-888.247130,1850.514855,-10189.070123
862.211277,0.000000,1998.556043,-10189.070123
862.211597,1480.411884,814.226536,-10572.117872
862.211916,1184.329507,-814.226536,-10342.289223
862.212236,1628.453072,-1480.411884,-10648.727422
862.212556,444.123565,-518.144159,-10648.727422
862.212876,-1924.535449,2220.617826,-9806.022374
862.213196,-1850.514855,3182.885551,-10955.165621
862.213515,148.041188,3256.906145,-10955.165621
862.213835,592.164754,2220.617826,-10725.336972
862.214155,666.185348,-518.144159,-12104.308868
862.214475,-370.102971,-1036.288319,-10189.070123
862.214795,-1628.453072,-1776.494261,-10495.508323
862.215114,-888.247130,-814.226536,-10112.460574
862.215434,296.082377,-370.102971,-9959.241474
862.215754,1480.411884,518.144159,-10955.165621
862.216074,962.267725,444.123565,-9882.631924
862.216394,444.123565,814.226536,-10112.460574
862.216714,-444.123565,814.226536,-10648.727422
862.217033,518.144159,0.000000,-9652.803275
862.217353,0.000000,148.041188,-9806.022374
862.217673,-148.041188,-962.267725,-9499.584175
862.217993,222.061783,-1258.350101,-9422.974625
862.218313,1332.370696,-962.267725,-10035.851024
862.218632,2368.659014,-888.247130,-9729.412825
862.218952,-222.061783,592.164754,-9729.412825
862.219272,-888.247130,1036.288319,-9652.803275
862.219592,-444.123565,-370.102971,-9499.584175
862.219912,1332.370696,-962.267725,-9959.241474
862.220231,740.205942,-666.185348,-9806.022374
862.220551,666.185348,222.061783,-10112.460574
862.220871,-296.082377,740.205942,-10342.289223
862.221191,-370.102971,1776.494261,-10342.289223
862.221511,370.102971,962.267725,-10112.460574
862.221831,2516.700203,518.144159,-10265.679673
862.222150,1850.514855,-1110.308913,-10495.508323
862.222470,370.102971,-370.102971,-10495.508323
862.222790,-1036.288319,-296.082377,-9959.241474
862.223110,-1036.288319,1110.308913,-10418.898773
862.223430,814.226536,1702.473667,-10112.460574
862.223749,1258.350101,1184.329507,-10495.508323
862.224069,1110.308913,370.102971,-10342.289223
862.224389,518.144159,-148.041188,-9959.241474
862.224709,888.247130,0.000000,-10572.117872
862.225029,0.000000,814.226536,-9959.241474
862.225348,-666.185348,1628.453072,-10418.898773
862.225668,148.041188,1554.432478,-10265.679673
862.225988,1628.453072,444.123565,-9806.022374
862.226308,2146.597232,222.061783,-9959.241474
862.226628,2738.761985,296.082377,-9806.022374
862.226948,2738.761985,148.041188,-10189.070123
862.227267,1184.329507,-444.123565,-9269.755526
862.227587,370.102971,-444.123565,-9422.974625
862.227907,222.061783,-888.247130,-9422.974625
862.228227,0.000000,-666.185348,-9269.755526
862.228547,740.205942,444.123565,-9959.241474
862.228866,740.205942,962.267725,-9806.022374
862.229186,370.102971,1258.350101,-9882.631924
862.229506,370.102971,888.247130,-10035.851024
862.229826,222.061783,296.082377,-9729.412825
862.230146,888.247130,518.144159,-9959.241474
862.230465,1110.308913,370.102971,-9959.241474
862.230785,2294.638420,148.041188,-10189.070123
862.231105,2294.638420,666.185348,-10801.946522
862.231425,814.226536,1554.432478,-10112.460574
862.231745,-148.041188,1184.329507,-10648.727422
862.232065,518.144159,1258.350101,-10878.556072
862.232384,370.102971,1406.391290,-10418.898773
862.232704,666.185348,1184.329507,-10342.289223
862.233024,1332.370696,74.020594,-10801.946522
862.233344,1554.432478,0.000000,-10418.898773
862.233664,222.061783,222.061783,-10418.898773
862.233983,296.082377,1258.350101,-10112.460574
862.234303,2072.576638,1628.453072,-10342.289223
862.234623,1554.432478,1480.411884,-10265.679673
862.234943,1406.391290,370.102971,-10342.289223
862.235263,-518.144159,-888.247130,-9729.412825
862.235582,-2220.617826,-1628.453072,-8580.269578
862.235902,-1110.308913,-1406.391290,-9422.974625
862.236222,74.020594,-1036.288319,-9576.193725
862.236542,296.082377,296.082377,-9806.022374
862.236862,-1036.288319,1332.370696,-9806.022374
862.237181,-888.247130,1332.370696,-9576.193725
862.237501,-1480.411884,962.267725,-9576.193725
862.237821,-1184.329507,-148.041188,-9729.412825
862.238141,74.020594,-1850.514855,-9269.755526
862.238461,1554.432478,-2072.576638,-9806.022374
862.238781,1184.329507,-1850.514855,-9806.022374
862.239100,-740.205942,-666.185348,-9959.241474
862.239420,-2664.741391,1184.329507,-10035.851024
862.239740,-2368.659014,2960.823768,-10572.117872
862.240060,0.000000,2294.638420,-10189.070123
862.240380,370.102971,666.185348,-10572.117872
862.240699,74.020594,-1258.350101,-10801.946522
862.241019,0.000000,-1776.494261,-10035.851024
862.241339,-74.020594,-296.082377,-10725.336972
862.241659,-1184.329507,2368.659014,-10342.289223
862.241979,-296.082377,3627.009116,-10725.336972
862.242298,1110.308913,2886.803174,-11108.384721
862.242618,1258.350101,1628.453072,-10189.070123
862.242938,1702.473667,222.061783,-10878.556072
862.243258,1036.288319,-518.144159,-10725.336972
862.243578,0.000000,-370.102971,-9806.022374
862.243898,814.226536,0.000000,-10112.460574
862.244217,2960.823768,-222.061783,-9959.241474
862.244537,3627.009116,-444.123565,-10189.070123
862.244857,2146.597232,-222.061783,-10418.898773
862.245177,1110.308913,1406.391290,-10495.508323
862.245497,814.226536,2590.720797,-9346.365076
862.245816,370.102971,3404.947333,-10189.070123
862.246136,296.082377,2738.761985,-9806.022374
862.246456,962.267725,888.247130,-9806.022374
862.246776,1628.453072,-1776.494261,-9346.365076
862.247096,2368.659014,-2442.679609,-9116.536426
862.247415,1850.514855,-1184.329507,-9729.412825
862.247735,148.041188,518.144159,-9652.803275
862.248055,-148.041188,1702.473667,-9193.145976
862.248375,3404.947333,2442.679609,-11338.213370
862.248695,2886.803174,1332.370696,-9882.631924
862.249015,1924.535449,888.247130,-10418.898773
862.249334,1406.391290,592.164754,-10418.898773
862.249654,1480.411884,-296.082377,-9729.412825
862.249974,1258.350101,222.061783,-10112.460574
862.250294,1036.288319,-296.082377,-10112.460574
862.250614,518.144159,0.000000,-10495.508323
862.250933,-888.247130,0.000000,-10189.070123
862.251253,0.000000,444.123565,-9499.584175
862.251573,-666.185348,370.102971,-10189.070123
862.251893,-1258.350101,148.041188,-10035.851024
862.252213,-1110.308913,592.164754,-10189.070123
862.252532,0.000000,74.020594,-10265.679673
862.252852,518.144159,-814.226536,-9959.241474
862.253172,296.082377,-1036.288319,-10189.070123
862.253492,1184.329507,-740.205942,-9729.412825
862.253812,814.226536,-370.102971,-10112.460574
862.254132,0.000000,888.247130,-9422.974625
862.254451,370.102971,888.247130,-9882.631924
862.254771,666.185348,814.226536,-9882.631924
862.255091,1036.288319,-296.082377,-10035.851024
862.255411,1998.556043,-1480.411884,-9959.241474
862.255731,1332.370696,-1776.494261,-10035.851024
862.256050,-1702.473667,-740.205942,-9806.022374
862.256370,-1480.411884,0.000000,-9806.022374
862.256690,-444.123565,-814.226536,-10189.070123
862.257010,-1184.329507,-1110.308913,-9576.193725
862.257330,-2664.741391,-148.041188,-9959.241474
862.257649,740.205942,1184.329507,-9959.241474
862.257969,888.247130,2294.638420,-10648.727422
862.258289,592.164754,1776.494261,-10572.117872
862.258609,-222.061783,-444.123565,-10189.070123
862.258929,888.247130,-2368.659014,-10035.851024
862.259248,740.205942,-2294.638420,-9806.022374
862.259568,-222.061783,-1258.350101,-10572.117872
862.259888,-1924.535449,1258.350101,-10572.117872
862.260208,-2886.803174,2072.576638,-10801.946522
862.260528,-740.205942,1554.432478,-10418.898773
862.260848,814.226536,444.123565,-10189.070123
862.261167,0.000000,222.061783,-8733.488677
862.261487,-814.226536,0.000000,-10495.508323
862.261807,-962.267725,296.082377,-10265.679673
862.262127,-666.185348,-740.205942,-9729.412825
862.262447,74.020594,-1258.350101,-9499.584175
862.262766,1776.494261,-814.226536,-9729.412825
862.263086,2220.617826,592.164754,-9959.241474
862.263406,1776.494261,2590.720797,-10572.117872
862.263726,2294.638420,3108.864956,-10801.946522
862.264046,1998.556043,2516.700203,-10265.679673
862.264365,0.000000,592.164754,-10189.070123
862.264685,0.000000,-1924.535449,-9422.974625
862.265005,592.164754,-2664.741391,-9882.631924
862.265325,1332.370696,-1406.391290,-9346.365076
862.265645,2368.659014,1332.370696,-9499.584175
862.265965,2368.659014,3108.864956,-10342.289223
862.266284,1628.453072,2812.782580,-10189.070123
862.266604,1628.453072,1850.514855,-9959.241474
862.266924,2072.576638,74.020594,-10112.460574
862.267244,1998.556043,-296.082377,-9806.022374
862.267564,1998.556043,0.000000,-9806.022374
862.267883,1406.391290,814.226536,-9959.241474
862.268203,666.185348,962.267725,-9959.241474
862.268523,740.205942,1332.370696,-10265.679673
862.268843,1184.329507,888.247130,-10035.851024
862.269163,2516.700203,1110.308913,-9959.241474
862.269482,2220.617826,1036.288319,-10342.289223
862.269802,1702.473667,814.226536,-10725.336972
862.270122,74.020594,0.000000,-10035.851024
862.270442,-1406.391290,-814.226536,-9652.803275
862.270762,-592.164754,0.000000,-9806.022374
862.271082,370.102971,296.082377,-10112.460574
862.271401,1258.350101,1924.535449,-10495.508323
862.271721,1554.432478,1924.535449,-10572.117872
862.272041,1406.391290,1258.350101,-10265.679673
862.272361,1406.391290,740.205942,-10342.289223
862.272681,0.000000,-1628.453072,-10112.460574
862.273000,-2220.617826,-1924.535449,-9806.022374
862.273320,-1776.494261,-1702.473667,-9346.365076
862.273640,74.020594,-296.082377,-9882.631924
862.273960,2664.741391,666.185348,-10189.070123
862.274280,1258.350101,1554.432478,-10418.898773
862.274599,-444.123565,888.247130,-10112.460574
862.274919,-740.205942,222.061783,-10035.851024
862.275239,-814.226536,74.020594,-9882.631924
862.275559,-1924.535449,0.000000,-10035.851024
862.275879,-1776.494261,0.000000,-9959.241474
862.276199,-1480.411884,-888.247130,-10342.289223
862.276518,-740.205942,-1332.370696,-9806.022374
862.276838,-518.144159,-1406.391290,-10112.460574
862.277158,518.144159,-222.061783,-10189.070123
862.277478,0.000000,1406.391290,-10265.679673
862.277798,370.102971,2220.617826,-10495.508323
862.278117,296.082377,962.267725,-10495.508323
862.278437,-296.082377,-518.144159,-10648.727422
862.278757,-740.205942,-1924.535449,-9959.241474
862.279077,148.041188,-1850.514855,-10112.460574
862.279397,1998.556043,-962.267725,-10035.851024
862.279716,2960.823768,592.164754,-9193.145976
862.280036,2812.782580,592.164754,-10265.679673
862.280356,1554.432478,0.000000,-10342.289223
862.280676,1036.288319,-740.205942,-9959.241474
862.280996,-296.082377,-1258.350101,-10112.460574
862.281316,814.226536,-296.082377,-10265.679673
862.281635,1628.453072,1110.308913,-10035.851024
862.281955,1998.556043,1332.370696,-10648.727422
862.282275,1480.411884,1036.288319,-10418.898773
862.282595,666.185348,592.164754,-10112.460574
862.282915,1480.411884,666.185348,-9729.412825
862.283234,1628.453072,444.123565,-10189.070123
862.283554,1628.453072,1554.432478,-10112.460574
862.283874,222.061783,2368.659014,-10418.898773
862.284194,222.061783,2072.576638,-10112.460574
862.284514,0.000000,1702.473667,-10418.898773
862.284833,-814.226536,1776.494261,-10112.460574
862.285153,-1554.432478,1258.350101,-9882.631924
862.285473,-1258.350101,1036.288319,-10035.851024
862.285793,-444.123565,888.247130,-9959.241474
862.286113,0.000000,666.185348,-10189.070123
862.286432,-148.041188,370.102971,-10112.460574
862.286752,-2220.617826,740.205942,-9193.145976
862.287072,-1406.391290,1036.288319,-9652.803275
862.287392,0.000000,1406.391290,-10418.898773
862.287712,1628.453072,222.061783,-9576.193725
862.288032,1332.370696,-592.164754,-9806.022374
862.288351,518.144159,-222.061783,-9422.974625
862.288671,-666.185348,222.061783,-9729.412825
862.288991,0.000000,592.164754,-9652.803275
862.289311,888.247130,1332.370696,-9806.022374
862.289631,888.247130,1702.473667,-9882.631924
862.289950,296.082377,814.226536,-9806.022374
862.290270,888.247130,-444.123565,-10112.460574
862.290590,814.226536,-1628.453072,-10035.851024
862.290910,-814.226536,-1406.391290,-9269.755526
862.291230,0.000000,-740.205942,-9499.584175
862.291549,222.061783,814.226536,-10112.460574
862.291869,518.144159,1702.473667,-10725.336972
862.292189,148.041188,1628.453072,-10418.898773
862.292509,-740.205942,296.082377,-10189.070123
862.292829,1110.308913,-370.102971,-10265.679673
862.293149,1998.556043,-1406.391290,-10342.289223
862.293468,148.041188,-2146.597232,-9882.631924
862.293788,1406.391290,-1480.411884,-9806.022374
862.294108,3330.926739,1258.350101,-10418.898773
862.294428,2368.659014,962.267725,-10878.556072
862.294748,1554.432478,74.020594,-10725.336972
862.295067,148.041188,-1036.288319,-10342.289223
862.295387,-148.041188,-1480.411884,-10572.117872
862.295707,0.000000,-1110.308913,-10035.851024
862.296027,740.205942,-592.164754,-10342.289223
862.296347,1776.494261,-592.164754,-10265.679673
862.296666,740.205942,-1110.308913,-10801.946522
862.296986,-222.061783,-1480.411884,-9652.803275
862.297306,1184.329507,-1406.391290,-9959.241474
862.297626,1110.308913,-2220.617826,-9882.631924
862.297946,1332.370696,-1776.494261,-9806.022374
862.298266,666.185348,-2368.659014,-9806.022374
862.298585,-518.144159,-1184.329507,-10112.460574
862.298905,-888.247130,-1110.308913,-9576.193725
862.299225,-1332.370696,-962.267725,-10112.460574
862.299545,-444.123565,-370.102971,-9882.631924
862.299865,370.102971,222.061783,-10035.851024
862.300184,74.020594,444.123565,-10418.898773
862.300504,-148.041188,444.123565,-10342.289223
862.300824,-444.123565,148.041188,-10418.898773
862.301144,-1110.308913,-1184.329507,-10035.851024
862.301464,-666.185348,-2146.597232,-9729.412825
862.301783,-1110.308913,-1628.453072,-10265.679673
862.302103,0.000000,-74.020594,-10342.289223
862.302423,222.061783,2072.576638,-10418.898773
862.302743,666.185348,4293.194464,-10878.556072
862.303063,74.020594,4737.318029,-10572.117872
862.303383,296.082377,3330.926739,-10495.508323
862.303702,444.123565,444.123565,-10418.898773
862.304022,1110.308913,-1850.514855,-10265.679673
862.304342,1480.411884,-2886.803174,-10495.508323
862.304662,444.123565,-2294.638420,-9422.974625
862.304982,-592.164754,-1258.350101,-9806.022374
862.305302,-888.247130,2072.576638,-9806.022374
862.305622,666.185348,3330.926739,-10112.460574
862.305941,814.226536,3478.967927,-10418.898773
862.306261,518.144159,1924.535449,-10495.508323
862.306581,0.000000,148.041188,-9116.536426
862.306901,592.164754,148.041188,-9806.022374
862.307221,666.185348,-814.226536,-9269.755526
862.307541,1184.329507,-1258.350101,-9576.193725
862.307861,2664.741391,0.000000,-9576.193725
862.308181,3775.050304,1258.350101,-9959.241474
862.308501,1924.535449,2294.638420,-10112.460574
862.308820,2442.679609,3108.864956,-10495.508323
862.309140,0.000000,4515.256246,-9959.241474
862.309460,-1184.329507,4367.215058,-9806.022374
862.309780,1702.473667,2368.659014,-10342.289223
862.310100,3034.844362,370.102971,-10265.679673
862.310420,1776.494261,-1036.288319,-9806.022374
862.310740,0.000000,-666.185348,-10189.070123
862.311060,-74.020594,518.144159,-10035.851024
862.311380,-518.144159,2664.741391,-10112.460574
862.311699,592.164754,4367.215058,-10112.460574
862.312019,1554.432478,3775.050304,-9882.631924
862.312339,2516.700203,2590.720797,-10495.508323
862.312659,3182.885551,0.000000,-10035.851024
862.312979,2072.576638,-1924.535449,-10189.070123
862.313299,74.020594,-1850.514855,-9959.241474
862.313619,-1036.288319,-962.267725,-9652.803275
862.313939,518.144159,1184.329507,-9729.412825
862.314258,2220.617826,1850.514855,-10112.460574
862.314578,1554.432478,1998.556043,-10265.679673
862.314898,1776.494261,888.247130,-10342.289223
862.315218,-74.020594,-518.144159,-9959.241474
862.315538,-296.082377,-296.082377,-10648.727422
862.315858,-962.267725,-1110.308913,-9882.631924
862.316178,-148.041188,-1036.288319,-9499.584175
862.316498,370.102971,-74.020594,-10035.851024
862.316818,592.164754,1036.288319,-11491.432470
862.317137,74.020594,1776.494261,-10418.898773
862.317457,-962.267725,1702.473667,-10495.508323
862.317777,-518.144159,1628.453072,-10112.460574
862.318097,-148.041188,-148.041188,-10035.851024
862.318417,1702.473667,-2738.761985,-9576.193725
862.318737,1850.514855,-3775.050304,-9806.022374
862.319057,888.247130,-2886.803174,-10342.289223
862.319377,148.041188,-148.041188,-10189.070123
862.319697,370.102971,1628.453072,-10265.679673
862.320016,0.000000,2368.659014,-10189.070123
862.320336,-148.041188,1628.453072,-10801.946522
862.320656,-666.185348,-1406.391290,-10265.679673
862.320976,-2072.576638,-2812.782580,-10342.289223
862.321296,-1554.432478,-3478.967927,-10189.070123
862.321616,-1776.494261,-2368.659014,-9806.022374
862.321936,222.061783,-1776.494261,-10112.460574
862.322256,-296.082377,-592.164754,-10495.508323
862.322576,-962.267725,-148.041188,-10112.460574
862.322895,-518.144159,0.000000,-10342.289223
862.323215,666.185348,888.247130,-10572.117872
862.323535,1036.288319,222.061783,-10265.679673
862.323855,962.267725,-444.123565,-10418.898773
862.324175,2442.679609,-1110.308913,-10265.679673
862.324495,2072.576638,-1998.556043,-10112.460574
862.324815,1110.308913,-740.205942,-10342.289223
862.325135,296.082377,444.123565,-10495.508323
862.325455,-1184.329507,1850.514855,-10418.898773
862.325774,-888.247130,2368.659014,-9959.241474
862.326094,962.267725,1480.411884,-10035.851024
862.326414,2368.659014,296.082377,-10112.460574
862.326734,2294.638420,-1554.432478,-9806.022374
862.327054,1480.411884,-2294.638420,-9729.412825
862.327374,814.226536,-888.247130,-9806.022374
862.327694,888.247130,296.082377,-9039.926876
862.328014,1998.556043,1480.411884,-9959.241474
862.328333,3034.844362,2960.823768,-9346.365076
862.328653,2738.761985,3108.864956,-10342.289223
862.328973,1480.411884,3108.864956,-10189.070123
862.329293,740.205942,1628.453072,-10035.851024
862.329613,-296.082377,-518.144159,-8886.707777
862.329933,-222.061783,-1406.391290,-9576.193725
862.330253,962.267725,-2368.659014,-9269.755526
862.330573,1332.370696,-1184.329507,-9806.022374
862.330893,1332.370696,1554.432478,-10035.851024
862.331212,-370.102971,4219.173869,-10035.851024
862.331532,-1480.411884,5477.523971,-10801.946522
862.331852,-814.226536,4293.194464,-10265.679673
862.332172,0.000000,370.102971,-9729.412825
862.332492,1036.288319,-1924.535449,-9806.022374
862.332812,1554.432478,-3256.906145,-9576.193725
862.333132,1776.494261,-2294.638420,-10112.460574
862.333452,1332.370696,518.144159,-10495.508323
862.333772,1036.288319,2442.679609,-9882.631924
862.334091,-444.123565,4737.318029,-10572.117872
862.334411,1998.556043,3552.988522,-10495.508323
862.334731,3256.906145,2960.823768,-10342.289223
862.335051,2220.617826,666.185348,-10801.946522
862.335371,1702.473667,-1332.370696,-9576.193725
862.335691,-740.205942,-2664.741391,-9806.022374
862.336011,-1332.370696,-2294.638420,-9652.803275
862.336331,-1184.329507,-296.082377,-9806.022374
862.336651,-592.164754,1776.494261,-9806.022374
862.336970,0.000000,2368.659014,-10265.679673
862.337290,592.164754,1850.514855,-10189.070123
862.337610,1184.329507,370.102971,-10342.289223
862.337930,-148.041188,-1258.350101,-9806.022374
862.338250,74.020594,-1776.494261,-8963.317327
862.338570,-296.082377,-1702.473667,-9806.022374
862.338890,296.082377,-1480.411884,-9729.412825
862.339210,0.000000,592.164754,-10035.851024
862.339530,518.144159,1110.308913,-10189.070123
862.339849,888.247130,2294.638420,-10189.070123
862.340169,0.000000,1406.391290,-10572.117872
862.340489,-518.144159,-222.061783,-9882.631924
862.340809,-1184.329507,-2072.576638,-10189.070123
862.341129,-1924.535449,-2516.700203,-10801.946522
862.341449,-2812.782580,-2886.803174,-9806.022374
862.341769,-2590.720797,-1110.308913,-10189.070123
862.342089,-1258.350101,592.164754,-10495.508323
862.342408,666.185348,1332.370696,-10418.898773
862.342728,1480.411884,1480.411884,-11184.994271
862.343048,1332.370696,518.144159,-10112.460574
862.343368,370.102971,222.061783,-10418.898773
862.343688,888.247130,740.205942,-10495.508323
862.344008,888.247130,1998.556043,-10418.898773
862.344328,296.082377,1554.432478,-10725.336972
862.344648,74.020594,666.185348,-9959.241474
862.344968,666.185348,-370.102971,-10189.070123
862.345287,1258.350101,-444.123565,-9499.584175
862.345607,74.020594,-370.102971,-10189.070123
862.345927,0.000000,1036.288319,-10189.070123
862.346247,1332.370696,1332.370696,-10189.070123
862.346567,1554.432478,518.144159,-9806.022374
862.346887,2220.617826,740.205942,-9576.193725
862.347207,2368.659014,-814.226536,-9422.974625
862.347527,1406.391290,-518.144159,-9729.412825
862.347847,2072.576638,74.020594,-9346.365076
862.348166,1036.288319,444.123565,-9576.193725
862.348486,2590.720797,-296.082377,-9959.241474
862.348806,4367.215058,222.061783,-9959.241474
862.349126,2368.659014,0.000000,-9806.022374
862.349446,592.164754,814.226536,-10035.851024
862.349766,222.061783,1332.370696,-10265.679673
862.350086,-222.061783,222.061783,-9806.022374
862.350406,-518.144159,-370.102971,-9652.803275
862.350726,-740.205942,-444.123565,-10112.460574
862.351045,1258.350101,-222.061783,-9882.631924
862.351365,2960.823768,888.247130,-10112.460574
862.351685,3256.906145,1850.514855,-10648.727422
862.352005,1480.411884,2072.576638,-10801.946522
862.352325,-370.102971,1554.432478,-9882.631924
862.352645,-1850.514855,1036.288319,-10035.851024
862.352965,-888.247130,222.061783,-10265.679673
862.353285,1776.494261,222.061783,-10342.289223
862.353605,3108.864956,962.267725,-10878.556072
862.353924,2442.679609,1184.329507,-9959.241474
862.354244,222.061783,1702.473667,-10495.508323
862.354564,-666.185348,1850.514855,-10342.289223
862.354884,-1184.329507,1406.391290,-10342.289223
862.355204,-592.164754,1332.370696,-9729.412825
862.355524,-962.267725,962.267725,-10112.460574
862.355844,0.000000,74.020594,-10112.460574
862.356164,740.205942,-296.082377,-10418.898773
862.356484,370.102971,-888.247130,-9959.241474
862.356803,888.247130,-370.102971,-9729.412825
862.357123,1110.308913,592.164754,-9806.022374
862.357443,518.144159,1924.535449,-9729.412825
862.357763,-222.061783,2738.761985,-10035.851024
862.358083,444.123565,962.267725,-10189.070123
862.358403,-2146.597232,-444.123565,-9576.193725
862.358723,-2664.741391,-2220.617826,-9422.974625
862.359043,-1036.288319,-2664.741391,-9652.803275
862.359362,1332.370696,-962.267725,-9576.193725
862.359682,1776.494261,222.061783,-10112.460574
862.360002,-296.082377,1924.535449,-10495.508323
862.360322,-2368.659014,1850.514855,-10112.460574
862.360642,-2812.782580,666.185348,-9729.412825
862.360962,-222.061783,-148.041188,-9499.584175
862.361282,1332.370696,-666.185348,-10112.460574
862.361602,1110.308913,-888.247130,-10112.460574
862.361922,814.226536,-1850.514855,-10265.679673
862.362241,518.144159,-814.226536,-10418.898773
862.362561,518.144159,518.144159,-10265.679673
862.362881,-666.185348,1850.514855,-10725.336972
862.363201,-740.205942,2072.576638,-10801.946522
862.363521,-740.205942,1406.391290,-9959.241474
862.363841,-370.102971,592.164754,-10495.508323
862.364161,592.164754,-444.123565,-10035.851024
862.364481,1480.411884,-1924.535449,-10342.289223
862.364801,1776.494261,-2294.638420,-10189.070123
862.365120,2886.803174,-1628.453072,-10035.851024
862.365440,2368.659014,-296.082377,-9959.241474
862.365760,1036.288319,2368.659014,-10418.898773
862.366080,-296.082377,3256.906145,-10725.336972
862.366400,-518.144159,2368.659014,-10418.898773
862.366720,888.247130,592.164754,-9499.584175
862.367040,2294.638420,-1850.514855,-9882.631924
862.367360,2960.823768,-1850.514855,-9806.022374
862.367680,3108.864956,-1776.494261,-9806.022374
862.367999,3552.988522,-370.102971,-9193.145976
862.368319,2516.700203,1036.288319,-10035.851024
862.368639,962.267725,2072.576638,-10035.851024
862.368959,0.000000,2294.638420,-10189.070123
862.369279,-296.082377,2368.659014,-9959.241474
862.369599,148.041188,1628.453072,-9959.241474
862.369919,370.102971,0.000000,-10035.851024
862.370239,1184.329507,-1628.453072,-9882.631924
862.370559,0.000000,-1998.556043,-9729.412825
862.370878,0.000000,-2072.576638,-9499.584175
862.371198,444.123565,-1036.288319,-9729.412825
862.371518,1258.350101,1184.329507,-9806.022374
862.371838,1406.391290,2738.761985,-9882.631924
862.372158,814.226536,2442.679609,-10265.679673
862.372478,592.164754,1332.370696,-9882.631924
862.372798,296.082377,-888.247130,-10265.679673
862.373118,1184.329507,-2368.659014,-9882.631924
862.373437,370.102971,-2812.782580,-9959.241474
862.373757,0.000000,-1998.556043,-9882.631924
862.374077,-444.123565,-148.041188,-10265.679673
862.374397,-666.185348,888.247130,-10189.070123
862.374717,-1776.494261,2368.659014,-10418.898773
862.375037,-1406.391290,2960.823768,-10342.289223
862.375357,-370.102971,2368.659014,-10878.556072
862.375677,1776.494261,962.267725,-10572.117872
862.375997,2220.617826,-666.185348,-10495.508323
862.376316,1702.473667,-1184.329507,-10418.898773
862.376636,222.061783,888.247130,-9652.803275
862.376956,-1332.370696,1406.391290,-10418.898773
862.377276,-1702.473667,2886.803174,-9959.241474
862.377596,-814.226536,3997.112087,-10495.508323
862.377916,518.144159,2738.761985,-10572.117872
862.378236,2072.576638,-296.082377,-9806.022374
862.378556,888.247130,-1702.473667,-9806.022374
862.378876,814.226536,-2368.659014,-9806.022374
862.379195,1554.432478,-1184.329507,-9576.193725
862.379515,2368.659014,444.123565,-11184.994271
862.379835,1776.494261,1406.391290,-9806.022374
862.380155,962.267725,2664.741391,-9882.631924
862.380475,740.205942,2516.700203,-10418.898773
862.380795,222.061783,1184.329507,-9729.412825
862.381115,0.000000,0.000000,-9729.412825
862.381435,0.000000,-1036.288319,-9193.145976
862.381755,444.123565,-2442.679609,-9729.412825
862.382074,444.123565,-2516.700203,-9652.803275
862.382394,-444.123565,-1480.411884,-9039.926876
862.382714,-1850.514855,74.020594,-9806.022374
862.383034,-814.226536,2294.638420,-10265.679673
862.383354,296.082377,3256.906145,-11031.775171
862.383674,1258.350101,1258.350101,-10572.117872
862.383994,1554.432478,370.102971,-10342.289223
862.384314,444.123565,-148.041188,-10265.679673
862.384634,370.102971,370.102971,-10265.679673
862.384953,148.041188,1332.370696,-10572.117872
862.385273,740.205942,2220.617826,-10725.336972
862.385593,1184.329507,2072.576638,-10265.679673
862.385913,1628.453072,962.267725,-10572.117872
862.386233,962.267725,370.102971,-10495.508323
862.386553,-814.226536,666.185348,-10342.289223
862.386873,-1036.288319,888.247130,-10418.898773
862.387193,-444.123565,666.185348,-10035.851024
862.387512,666.185348,0.000000,-10342.289223
862.387832,1406.391290,-592.164754,-9959.241474
862.388152,1628.453072,-1036.288319,-9959.241474
862.388472,1332.370696,0.000000,-10035.851024
862.388792,888.247130,1554.432478,-10112.460574
862.389112,-814.226536,888.247130,-9806.022374
862.389432,-592.164754,74.020594,-9039.926876
862.389752,814.226536,-888.247130,-9882.631924
862.390072,1998.556043,-1406.391290,-9652.803275
862.390391,1628.453072,-814.226536,-9882.631924
862.390711,74.020594,-370.102971,-10035.851024
862.391031,-222.061783,-296.082377,-9959.241474
862.391351,74.020594,-370.102971,-9269.755526
862.391671,0.000000,148.041188,-9729.412825
862.391991,0.000000,-370.102971,-9959.241474
862.392311,222.061783,0.000000,-10878.556072
862.392631,1924.535449,-740.205942,-10035.851024
862.392951,2146.597232,222.061783,-10495.508323
862.393270,222.061783,888.247130,-10342.289223
862.393590,-1184.329507,1036.288319,-10265.679673
862.393910,962.267725,666.185348,-10648.727422
862.394230,2812.782580,-74.020594,-10572.117872
862.394550,2368.659014,-444.123565,-10648.727422
862.394870,-148.041188,148.041188,-10342.289223
862.395190,-518.144159,518.144159,-10801.946522
862.395510,592.164754,962.267725,-10342.289223
862.395830,1332.370696,1924.535449,-10648.727422
862.396149,74.020594,74.020594,-10801.946522
862.396469,222.061783,74.020594,-10189.070123
862.396789,1998.556043,-222.061783,-10801.946522
862.397109,1554.432478,0.000000,-10495.508323
862.397429,592.164754,296.082377,-10189.070123
862.397749,-962.267725,814.226536,-9959.241474
862.398069,0.000000,296.082377,-10189.070123
862.398389,1998.556043,0.000000,-9882.631924
862.398709,1628.453072,370.102971,-10342.289223
862.399028,518.144159,444.123565,-10035.851024
862.399348,148.041188,0.000000,-9576.193725
862.399668,1110.308913,-962.267725,-9806.022374
862.399988,370.102971,-1110.308913,-9806.022374
862.400308,-222.061783,-1184.329507,-9729.412825
862.400628,-1406.391290,0.000000,-9576.193725
862.400948,-1258.350101,0.000000,-9882.631924
862.401268,-370.102971,1332.370696,-9806.022374
862.401587,-296.082377,1480.411884,-9959.241474
862.401907,-296.082377,-148.041188,-9576.193725
862.402227,962.267725,-740.205942,-9422.974625
862.402547,444.123565,-740.205942,-9806.022374
862.402867,74.020594,-666.185348,-10725.336972
862.403187,148.041188,-296.082377,-10418.898773
862.403507,-1702.473667,518.144159,-9882.631924
862.403827,-2146.597232,2146.597232,-10342.289223
862.404147,0.000000,1998.556043,-10495.508323
862.404466,1110.308913,1480.411884,-10418.898773
862.404786,740.205942,740.205942,-10878.556072
862.405106,222.061783,0.000000,-11031.775171
862.405426,-296.082377,518.144159,-10418.898773
862.405746,-1110.308913,148.041188,-10648.727422
862.406066,-666.185348,740.205942,-10189.070123
862.406386,0.000000,2368.659014,-10572.117872
862.406706,1258.350101,2220.617826,-10572.117872
862.407026,1924.535449,1480.411884,-10265.679673
862.407345,1554.432478,370.102971,-10342.289223
862.407665,222.061783,740.205942,-9882.631924
862.407985,370.102971,740.205942,-9959.241474
862.408305,1258.350101,370.102971,-9729.412825
862.408625,2442.679609,666.185348,-9806.022374
862.408945,2368.659014,148.041188,-9882.631924
862.409265,2664.741391,370.102971,-10112.460574
862.409585,444.123565,1480.411884,-9959.241474
862.409904,74.020594,1998.556043,-9499.584175
862.410224,1850.514855,2590.720797,-9269.755526
862.410544,4145.153275,1776.494261,-9959.241474
862.410864,4441.235652,148.041188,-9652.803275
862.411184,2072.576638,-666.185348,-9882.631924
862.411504,-592.164754,-1110.308913,-9729.412825
862.411824,-2294.638420,-592.164754,-9116.536426
862.412144,-296.082377,0.000000,-9652.803275
862.412464,2220.617826,962.267725,-9806.022374
862.412783,2960.823768,592.164754,-9959.241474
862.413103,2072.576638,888.247130,-10495.508323
862.413423,1406.391290,1184.329507,-10878.556072
862.413743,740.205942,1406.391290,-10495.508323
862.414063,-888.247130,1480.411884,-10955.165621
862.414383,0.000000,-222.061783,-10265.679673
862.414703,1184.329507,-2220.617826,-10189.070123
862.415023,2220.617826,-1702.473667,-11108.384721
862.415343,1110.308913,222.061783,-10572.117872
862.415662,-888.247130,2220.617826,-10495.508323
862.415982,-1332.370696,4071.132681,-10801.946522
862.416302,-444.123565,3256.906145,-10801.946522
862.416622,888.247130,592.164754,-10495.508323
862.416942,666.185348,-2368.659014,-10189.070123
862.417262,1036.288319,-2738.761985,-10189.070123
862.417582,222.061783,-1258.350101,-10112.460574
862.417902,-296.082377,296.082377,-9652.803275
862.418221,-814.226536,592.164754,-9806.022374
862.418541,-518.144159,148.041188,-9806.022374
862.418861,0.000000,-666.185348,-9882.631924
862.419181,666.185348,-962.267725,-9806.022374
862.419501,222.061783,-296.082377,-9806.022374
862.419821,-814.226536,148.041188,-9959.241474
862.420141,-1332.370696,-740.205942,-9422.974625
862.420461,-740.205942,-1924.535449,-9346.365076
862.420781,-444.123565,-2516.700203,-9116.536426
862.421100,-148.041188,-1702.473667,-9346.365076
862.421420,0.000000,0.000000,-10495.508323
862.421740,888.247130,1480.411884,-9959.241474
862.422060,-592.164754,1776.494261,-9806.022374
862.422380,-2368.659014,592.164754,-9499.584175
862.422700,-740.205942,-962.267725,-9422.974625
862.423020,666.185348,-2146.597232,-10112.460574
862.423340,-74.020594,-888.247130,-9729.412825
862.423659,-2146.597232,-444.123565,-10265.679673
862.423979,-1480.411884,-962.267725,-9729.412825
862.424299,740.205942,-1258.350101,-10265.679673
862.424619,2368.659014,-888.247130,-10035.851024
862.424939,2072.576638,666.185348,-10342.289223
862.425259,2590.720797,2072.576638,-11951.089769
862.425579,1480.411884,2738.761985,-11261.603821
862.425899,0.000000,2294.638420,-10955.165621
862.426219,-518.144159,1554.432478,-10495.508323
862.426538,1036.288319,370.102971,-10495.508323
862.426858,2072.576638,-222.061783,-10648.727422
862.427178,3034.844362,222.061783,-10418.898773
862.427498,3404.947333,1332.370696,-10648.727422
862.427818,1850.514855,2220.617826,-10648.727422
862.428138,148.041188,888.247130,-9729.412825
862.428458,-1184.329507,592.164754,-10035.851024
862.428778,-370.102971,74.020594,-9882.631924
862.429098,1258.350101,296.082377,-10342.289223
862.429417,2738.761985,1924.535449,-9576.193725
862.429737,1480.411884,3330.926739,-10035.851024
862.430057,296.082377,2590.720797,-9652.803275
862.430377,1184.329507,1406.391290,-9806.022374
862.430697,2146.597232,-370.102971,-9269.755526
862.431017,1628.453072,-1850.514855,-9346.365076
862.431337,1924.535449,-2442.679609,-8656.879127
862.431657,1628.453072,-1628.453072,-9422.974625
862.431976,666.185348,0.000000,-9882.631924
862.432296,-222.061783,1702.473667,-9422.974625
862.432616,0.000000,2812.782580,-9959.241474
862.432936,1110.308913,2294.638420,-10495.508323
862.433256,1628.453072,592.164754,-10112.460574
862.433576,1480.411884,-814.226536,-10112.460574
862.433896,814.226536,-1110.308913,-10495.508323
862.434216,-370.102971,-1036.288319,-10112.460574
862.434536,-666.185348,-222.061783,-10342.289223
862.434855,296.082377,888.247130,-10418.898773
862.435175,814.226536,1184.329507,-9806.022374
862.435495,1184.329507,1258.350101,-10572.117872
862.435815,370.102971,1554.432478,-10648.727422
862.436135,-962.267725,370.102971,-10878.556072
862.436455,-1480.411884,444.123565,-10035.851024
862.436775,-74.020594,222.061783,-10572.117872
862.437095,962.267725,0.000000,-10035.851024
862.437414,666.185348,-666.185348,-10265.679673
862.437734,666.185348,0.000000,-10495.508323
862.438054,222.061783,1480.411884,-10572.117872
862.438374,-666.185348,2146.597232,-10342.289223
862.438694,-518.144159,1258.350101,-9806.022374
862.439014,666.185348,-370.102971,-9806.022374
862.439334,814.226536,-740.205942,-9806.022374
862.439654,296.082377,-1554.432478,-10035.851024
862.439974,-814.226536,-1850.514855,-9806.022374
862.440293,-518.144159,-1036.288319,-9576.193725
862.440613,-148.041188,0.000000,-9269.755526
862.440933,518.144159,592.164754,-9729.412825
862.441253,592.164754,888.247130,-9959.241474
862.441573,1702.473667,370.102971,-10112.460574
862.441893,1702.473667,-518.144159,-9729.412825
862.442213,444.123565,-1480.411884,-10112.460574
862.442533,-1184.329507,-1702.473667,-9576.193725
862.442853,-1110.308913,-1554.432478,-9959.241474
862.443172,-222.061783,-888.247130,-9499.584175
862.443492,444.123565,370.102971,-10189.070123
862.443812,666.185348,1184.329507,-10878.556072
862.444132,740.205942,1554.432478,-10801.946522
862.444452,0.000000,592.164754,-10189.070123
862.444772,0.000000,-222.061783,-10572.117872
862.445092,296.082377,-740.205942,-9576.193725
862.445412,1480.411884,-444.123565,-10265.679673
862.445731,1850.514855,0.000000,-10648.727422
862.446051,1628.453072,0.000000,-10878.556072
862.446371,148.041188,592.164754,-10572.117872
862.446691,-518.144159,888.247130,-10265.679673
862.447011,0.000000,1998.556043,-10495.508323
862.447331,1184.329507,2442.679609,-10572.117872
862.447651,1702.473667,1776.494261,-10265.679673
862.447971,2590.720797,518.144159,-11568.042020
862.448291,1998.556043,-1554.432478,-9806.022374
862.448610,-592.164754,-1998.556043,-9806.022374
862.448930,-888.247130,-518.144159,-9959.241474
862.449250,740.205942,444.123565,-10265.679673
862.449570,1924.535449,1702.473667,-10112.460574
862.449890,1628.453072,2368.659014,-10112.460574
862.450210,2072.576638,2516.700203,-10189.070123
862.450530,814.226536,1036.288319,-9806.022374
862.450850,-74.020594,444.123565,-9806.022374
862.451169,1480.411884,0.000000,-9806.022374
862.451489,1628.453072,-296.082377,-9806.022374
862.451809,1776.494261,-1184.329507,-9346.365076
862.452129,1924.535449,-370.102971,-9729.412825
862.452449,518.144159,962.267725,-10112.460574
862.452769,-148.041188,1480.411884,-9729.412825
862.453089,-370.102971,2294.638420,-10342.289223
862.453409,-888.247130,1036.288319,-10035.851024
862.453729,74.020594,0.000000,-9116.536426
862.454048,222.061783,-814.226536,-10112.460574
862.454368,148.041188,0.000000,-10112.460574
862.454688,222.061783,1332.370696,-10648.727422
862.455008,148.041188,1110.308913,-9576.193725
862.455328,1628.453072,1924.535449,-10265.679673
862.455648,518.144159,1110.308913,-10112.460574
862.455968,-296.082377,370.102971,-9806.022374
862.456288,888.247130,518.144159,-10342.289223
862.456608,1628.453072,1036.288319,-10418.898773
862.456927,222.061783,518.144159,-10112.460574
862.457247,-444.123565,-740.205942,-9959.241474
862.457567,-666.185348,-1406.391290,-9806.022374
862.457887,0.000000,-1110.308913,-10265.679673
862.458207,148.041188,-592.164754,-9806.022374
862.458527,148.041188,888.247130,-10265.679673
862.458847,296.082377,1332.370696,-9959.241474
862.459167,-222.061783,666.185348,-10112.460574
862.459486,740.205942,-1184.329507,-9882.631924
862.459806,888.247130,-1998.556043,-9652.803275
862.460126,888.247130,-1924.535449,-10189.070123
862.460446,962.267725,0.000000,-9729.412825
862.460766,740.205942,1332.370696,-10189.070123
862.461086,-666.185348,1628.453072,-10035.851024
862.461406,1184.329507,444.123565,-9959.241474
862.461726,740.205942,-1258.350101,-9729.412825
862.462046,740.205942,-1480.411884,-9652.803275
862.462365,148.041188,-2294.638420,-9729.412825
862.462685,370.102971,-888.247130,-10342.289223
862.463005,-1628.453072,296.082377,-9652.803275
862.463325,-1110.308913,1406.391290,-10648.727422
862.463645,444.123565,2812.782580,-9806.022374
862.463965,1258.350101,1924.535449,-10648.727422
862.464285,1924.535449,370.102971,-9882.631924
862.464605,1702.473667,-1332.370696,-9959.241474
862.464924,740.205942,-2368.659014,-9576.193725
862.465244,-518.144159,-2146.597232,-10112.460574
862.465564,0.000000,-1406.391290,-10265.679673
862.465884,-370.102971,-296.082377,-9882.631924
862.466204,1628.453072,444.123565,-10342.289223
862.466524,1406.391290,1924.535449,-11797.870669
862.466844,1036.288319,2368.659014,-10725.336972
862.467164,-666.185348,2590.720797,-10648.727422
862.467484,-666.185348,296.082377,-10189.070123
862.467803,814.226536,-370.102971,-10495.508323
862.468123,444.123565,-1036.288319,-10418.898773
862.468443,-814.226536,-1702.473667,-9882.631924
862.468763,-1702.473667,0.000000,-9806.022374
862.469083,-2516.700203,1776.494261,-9652.803275
862.469403,-592.164754,592.164754,-9882.631924
862.469723,1998.556043,1924.535449,-9729.412825
862.470043,2294.638420,518.144159,-9806.022374
862.470363,4293.194464,-222.061783,-9959.241474
862.470682,3478.967927,-518.144159,-9729.412825
862.471002,2960.823768,74.020594,-9959.241474
862.471322,3108.864956,2960.823768,-10035.851024
862.471642,2146.597232,4515.256246,-9959.241474
862.471962,1406.391290,4515.256246,-10035.851024
862.472282,-1184.329507,1406.391290,-9499.584175
862.472602,0.000000,-814.226536,-10035.851024
862.472922,1110.308913,-2960.823768,-9422.974625
862.473241,962.267725,-2960.823768,-9729.412825
862.473561,962.267725,-1480.411884,-10112.460574
862.473881,814.226536,1110.308913,-9959.241474
862.474201,814.226536,2220.617826,-10418.898773
862.474521,518.144159,3775.050304,-10342.289223
862.474841,592.164754,2072.576638,-10342.289223
862.475161,222.061783,1480.411884,-10572.117872
862.475481,1628.453072,0.000000,-10189.070123
862.475801,4219.173869,-592.164754,-10495.508323
862.476120,3330.926739,-814.226536,-10112.460574
862.476440,2072.576638,-370.102971,-10418.898773
862.476760,666.185348,1480.411884,-10495.508323
862.477080,-666.185348,2812.782580,-10572.117872
862.477400,-888.247130,2960.823768,-10342.289223
862.477720,-1184.329507,1554.432478,-9193.145976
862.478040,-1332.370696,-296.082377,-9959.241474
862.478360,-518.144159,-222.061783,-10035.851024
862.478679,-296.082377,-444.123565,-10112.460574
862.478999,0.000000,222.061783,-9959.241474
862.479319,-592.164754,1036.288319,-9422.974625
862.479639,-1406.391290,296.082377,-9576.193725
862.479959,148.041188,-148.041188,-9729.412825
862.480279,1036.288319,-814.226536,-9652.803275
862.480599,962.267725,370.102971,-9959.241474
862.480919,592.164754,888.247130,-10189.070123
862.481239,-370.102971,-888.247130,-9499.584175
862.481558,-296.082377,-1702.473667,-9422.974625
862.481878,-1184.329507,-1258.350101,-9729.412825
862.482198,-370.102971,-962.267725,-10112.460574
862.482518,1184.329507,-518.144159,-9882.631924
862.482838,-370.102971,0.000000,-9882.631924
862.483158,-962.267725,444.123565,-9959.241474
862.483478,-2146.597232,-518.144159,-9652.803275
862.483798,-1554.432478,-2072.576638,-9806.022374
862.484118,0.000000,-1332.370696,-10342.289223
862.484437,-296.082377,-1036.288319,-10035.851024
862.484757,1184.329507,222.061783,-10725.336972
862.485077,666.185348,1258.350101,-10342.289223
862.485397,-814.226536,1480.411884,-10418.898773
862.485717,-888.247130,74.020594,-10495.508323
862.486037,1110.308913,-962.267725,-10112.460574
862.486357,1184.329507,-1850.514855,-10801.946522
862.486677,888.247130,-1480.411884,-9806.022374
862.486996,740.205942,-148.041188,-10878.556072
862.487316,740.205942,0.000000,-10112.460574
862.487636,-666.185348,740.205942,-10342.289223
862.487956,-666.185348,666.185348,-10418.898773
862.488276,1554.432478,370.102971,-10418.898773
862.488596,1924.535449,0.000000,-10035.851024
862.488916,2072.576638,296.082377,-10801.946522
862.489236,1258.350101,1258.350101,-10572.117872
862.489556,74.020594,-296.082377,-10495.508323
862.489875,1036.288319,-1036.288319,-9576.193725
862.490195,1628.453072,-370.102971,-10189.070123
862.490515,1554.432478,0.000000,-10801.946522
862.490835,1998.556043,1184.329507,-10418.898773
862.491155,1850.514855,1480.411884,-10342.289223
862.491475,666.185348,740.205942,-10112.460574
862.491795,74.020594,1184.329507,-9806.022374
862.492115,962.267725,74.020594,-9269.755526
862.492434,2516.700203,370.102971,-9882.631924
862.492754,2072.576638,814.226536,-9806.022374
862.493074,814.226536,888.247130,-10035.851024
862.493394,592.164754,1406.391290,-9959.241474
862.493714,740.205942,1036.288319,-9652.803275
862.494034,2072.576638,1554.432478,-10035.851024
862.494354,1332.370696,518.144159,-9806.022374
862.494674,444.123565,1110.308913,-10342.289223
862.494994,1110.308913,1628.453072,-9882.631924
862.495313,1036.288319,1924.535449,-10418.898773
862.495633,740.205942,1702.473667,-10265.679673
862.495953,-296.082377,666.185348,-9882.631924
862.496273,-888.247130,444.123565,-10189.070123
862.496593,370.102971,962.267725,-10035.851024
862.496913,1110.308913,1702.473667,-10189.070123
862.497233,814.226536,1850.514855,-10725.336972
862.497553,0.000000,1406.391290,-10189.070123
862.497873,-444.123565,148.041188,-10189.070123
862.498192,962.267725,0.000000,-9882.631924
862.498512,2294.638420,0.000000,-9959.241474
862.498832,1036.288319,296.082377,-10418.898773
862.499152,0.000000,666.185348,-10035.851024
862.499472,-444.123565,888.247130,-10265.679673
862.499792,-296.082377,1110.308913,-10112.460574
862.500112,-222.061783,444.123565,-9959.241474
862.500432,814.226536,-814.226536,-10572.117872
862.500751,592.164754,-1924.535449,-9499.584175
862.501071,740.205942,0.000000,-10112.460574
862.501391,1110.308913,1480.411884,-10495.508323
862.501711,-814.226536,1850.514855,-10572.117872
862.502031,-592.164754,740.205942,-10189.070123
862.502351,148.041188,-148.041188,-10418.898773
862.502671,222.061783,-1258.350101,-9959.241474
862.502991,0.000000,-1850.514855,-9729.412825
862.503311,-296.082377,-2072.576638,-10265.679673
862.503630,518.144159,-1702.473667,-9882.631924
862.503950,296.082377,-740.205942,-9652.803275
862.504270,-888.247130,0.000000,-9576.193725
862.504590,-1850.514855,370.102971,-9959.241474
862.504910,0.000000,370.102971,-10648.727422
862.505230,1036.288319,444.123565,-10648.727422
862.505550,518.144159,888.247130,-10189.070123
862.505870,0.000000,-740.205942,-10342.289223
862.506189,296.082377,-1480.411884,-9269.755526
862.506509,0.000000,-1480.411884,-10725.336972
862.506829,814.226536,444.123565,-10342.289223
862.507149,370.102971,592.164754,-10418.898773
862.507469,-148.041188,296.082377,-10572.117872
862.507789,296.082377,-888.247130,-10035.851024
862.508109,-296.082377,-592.164754,-10265.679673
862.508428,0.000000,-296.082377,-10112.460574
862.508748,666.185348,0.000000,-10265.679673
862.509068,3182.885551,1184.329507,-9806.022374
862.509388,3404.947333,1406.391290,-10572.117872
862.509708,2738.761985,666.185348,-10418.898773
862.510028,1184.329507,888.247130,-10112.460574
862.510348,-814.226536,1406.391290,-9882.631924
862.510667,888.247130,888.247130,-10878.556072
862.510987,1332.370696,-518.144159,-9959.241474
862.511307,296.082377,-888.247130,-9729.412825
862.511627,666.185348,-518.144159,-10189.070123
862.511947,518.144159,370.102971,-9959.241474
862.512267,222.061783,666.185348,-9806.022374
862.512587,1702.473667,962.267725,-9882.631924
862.512906,1776.494261,1258.350101,-9729.412825
862.513226,962.267725,1036.288319,-9193.145976
862.513546,592.164754,-592.164754,-9806.022374
862.513866,444.123565,0.000000,-9882.631924
862.514186,-1110.308913,-592.164754,-9116.536426
862.514506,0.000000,-518.144159,-9806.022374
862.514826,1184.329507,592.164754,-9729.412825
862.515145,592.164754,1184.329507,-10265.679673
862.515465,-666.185348,1850.514855,-10112.460574
862.515785,-1332.370696,2812.782580,-10801.946522
862.516105,-1184.329507,2368.659014,-9882.631924
862.516425,-296.082377,1036.288319,-9959.241474
862.516745,1480.411884,-1332.370696,-10495.508323
862.517065,2886.803174,-2812.782580,-9806.022374
862.517384,2664.741391,-2220.617826,-9959.241474
862.517704,888.247130,-148.041188,-10648.727422
862.518024,-222.061783,1628.453072,-10725.336972
862.518344,-1036.288319,4663.297435,-10725.336972
862.518664,-370.102971,4293.194464,-10725.336972
862.518984,0.000000,2516.700203,-10265.679673
862.519304,296.082377,444.123565,-10648.727422
862.519624,370.102971,-1998.556043,-10572.117872
862.519943,1110.308913,-1258.350101,-10572.117872
862.520263,0.000000,222.061783,-10189.070123
862.520583,0.000000,2368.659014,-11261.603821
862.520903,148.041188,2368.659014,-10495.508323
862.521223,666.185348,1850.514855,-10112.460574
862.521543,888.247130,1480.411884,-9806.022374
862.521863,1554.432478,1332.370696,-10189.070123
862.522182,0.000000,740.205942,-10342.289223
862.522502,-148.041188,-592.164754,-9806.022374
862.522822,1110.308913,-888.247130,-9729.412825
862.523142,1850.514855,-370.102971,-9806.022374
862.523462,814.226536,-444.123565,-9422.974625
862.523782,148.041188,296.082377,-9652.803275
862.524102,-1258.350101,1406.391290,-9806.022374
862.524421,-1850.514855,592.164754,-9729.412825
862.524741,-74.020594,-740.205942,-10572.117872
862.525061,1776.494261,-1628.453072,-9729.412825
862.525381,2294.638420,-2146.597232,-9269.755526
862.525701,2368.659014,-962.267725,-9882.631924
862.526021,962.267725,370.102971,-10112.460574
862.526341,-1776.494261,740.205942,-10035.851024
862.526660,-2368.659014,666.185348,-9576.193725
862.526980,-1110.308913,370.102971,-9806.022374
862.527300,666.185348,-962.267725,-10189.070123
862.527620,814.226536,-814.226536,-9882.631924
862.527940,1480.411884,0.000000,-10495.508323
862.528260,296.082377,222.061783,-10342.289223
862.528580,-1554.432478,222.061783,-10189.070123
862.528899,-296.082377,-222.061783,-10418.898773
862.529219,74.020594,814.226536,-10189.070123
862.529539,1628.453072,222.061783,-10648.727422
862.529859,2960.823768,1036.288319,-10801.946522
862.530179,1110.308913,740.205942,-10801.946522
862.530499,-296.082377,148.041188,-9346.365076
862.530819,-148.041188,666.185348,-10648.727422
862.531138,962.267725,518.144159,-10495.508323
862.531458,370.102971,1036.288319,-10648.727422
862.531778,444.123565,1110.308913,-9806.022374
862.532098,962.267725,1036.288319,-10495.508323
862.532418,-222.061783,814.226536,-9806.022374
862.532738,814.226536,962.267725,-10495.508323
862.533058,3182.885551,-296.082377,-9652.803275
862.533377,3923.091493,740.205942,-9652.803275
862.533697,2738.761985,962.267725,-10189.070123
862.534017,1110.308913,888.247130,-10265.679673
862.534337,-1332.370696,1554.432478,-9882.631924
862.534657,-1480.411884,1184.329507,-9576.193725
862.534977,1628.453072,74.020594,-9576.193725
862.535297,2664.741391,0.000000,-9882.631924
862.535616,3034.844362,0.000000,-10342.289223
862.535936,1998.556043,1110.308913,-9806.022374
862.536256,2368.659014,814.226536,-10495.508323
862.536576,-148.041188,2220.617826,-9806.022374
862.536896,-1406.391290,1258.350101,-9806.022374
862.537216,-1110.308913,370.102971,-9729.412825
862.537536,-296.082377,370.102971,-9729.412825
862.537855,1628.453072,0.000000,-9959.241474
862.538175,1554.432478,-444.123565,-10189.070123
862.538495,518.144159,0.000000,-9806.022374
862.538815,0.000000,1110.308913,-10342.289223
862.539135,1036.288319,2442.679609,-9806.022374
862.539455,888.247130,1776.494261,-10035.851024
862.539775,0.000000,888.247130,-9882.631924
862.540094,148.041188,-518.144159,-9729.412825
862.540414,444.123565,0.000000,-9806.022374
862.540734,1554.432478,-740.205942,-9806.022374
862.541054,1406.391290,-1554.432478,-9882.631924
862.541374,1480.411884,-666.185348,-10035.851024
862.541694,1036.288319,0.000000,-10265.679673
862.542014,0.000000,1184.329507,-10112.460574
862.542333,-1776.494261,2368.659014,-10342.289223
862.542653,-2294.638420,2220.617826,-10572.117872
862.542973,-1258.350101,1036.288319,-10418.898773
862.543293,296.082377,-1776.494261,-11108.384721
862.543613,1554.432478,-2886.803174,-10189.070123
862.543933,0.000000,-3108.864956,-9729.412825
862.544253,148.041188,-1184.329507,-10801.946522
862.544572,370.102971,74.020594,-10418.898773
862.544892,-1628.453072,1628.453072,-11338.213370
862.545212,-2886.803174,2368.659014,-10495.508323
862.545532,-1184.329507,1776.494261,-10342.289223
862.545852,888.247130,-1036.288319,-10189.070123
862.546172,3182.885551,-3256.906145,-10112.460574
862.546492,1554.432478,-3108.864956,-9652.803275
862.546811,-370.102971,-2812.782580,-10112.460574
862.547131,-962.267725,-2146.597232,-9039.926876
862.547451,-296.082377,-1776.494261,-10342.289223
862.547771,-296.082377,-962.267725,-9806.022374
862.548091,-74.020594,0.000000,-9806.022374
862.548411,-296.082377,-666.185348,-10189.070123
862.548731,-370.102971,-962.267725,-9806.022374
862.549050,-1480.411884,592.164754,-9882.631924
862.549370,-592.164754,-222.061783,-10112.460574
862.549690,1850.514855,-888.247130,-10035.851024
862.550010,2368.659014,-740.205942,-9882.631924
862.550330,1332.370696,-222.061783,-10418.898773
862.550650,-370.102971,222.061783,-10112.460574
862.550970,-1036.288319,370.102971,-10035.851024
862.551289,-592.164754,962.267725,-9959.241474
862.551609,0.000000,3256.906145,-10265.679673
862.551929,2220.617826,2812.782580,-11721.261119
862.552249,3552.988522,1924.535449,-10648.727422
862.552569,3701.029710,-962.267725,-11031.775171
862.552889,1998.556043,-592.164754,-10342.289223
862.553209,666.185348,-814.226536,-9806.022374
862.553529,592.164754,740.205942,-10648.727422
862.553848,1258.350101,2072.576638,-10342.289223
862.554168,1998.556043,2146.597232,-10342.289223
862.554488,1332.370696,2368.659014,-10189.070123
862.554808,1850.514855,888.247130,-9882.631924
862.555128,2072.576638,1184.329507,-10189.070123
862.555448,444.123565,1702.473667,-10572.117872
862.555768,1332.370696,962.267725,-10189.070123
862.556087,2146.597232,0.000000,-9346.365076
862.556407,2072.576638,-370.102971,-9346.365076
862.556727,1554.432478,74.020594,-10035.851024
862.557047,370.102971,1110.308913,-9652.803275
862.557367,666.185348,2812.782580,-10035.851024
862.557687,1110.308913,3182.885551,-9729.412825
862.558007,1702.473667,2294.638420,-10189.070123
862.558326,1036.288319,740.205942,-9959.241474
862.558646,148.041188,-814.226536,-9806.022374
862.558966,-1554.432478,-962.267725,-9499.584175
862.559286,-2368.659014,592.164754,-9269.755526
862.559606,-1998.556043,1110.308913,-9576.193725
862.559926,74.020594,1998.556043,-9882.631924
862.560246,222.061783,2220.617826,-9652.803275
862.560565,-148.041188,4663.297435,-10265.679673
862.560885,-444.123565,2886.803174,-10495.508323
862.561205,-962.267725,444.123565,-9959.241474
862.561525,-1850.514855,-962.267725,-9576.193725
862.561845,-1850.514855,-1110.308913,-9729.412825
862.562165,-962.267725,-1924.535449,-9806.022374
862.562485,1628.453072,-222.061783,-10342.289223
862.562804,2072.576638,1184.329507,-10878.556072
862.563124,3108.864956,1998.556043,-10878.556072
862.563444,1258.350101,1406.391290,-10725.336972
862.563764,1998.556043,740.205942,-10495.508323
862.564084,518.144159,518.144159,-10418.898773
862.564404,-1258.350101,-222.061783,-10342.289223
862.564724,-3478.967927,-666.185348,-10112.460574
862.565043,-1628.453072,-1036.288319,-10418.898773
862.565363,-962.267725,-666.185348,-10189.070123
862.565683,-222.061783,296.082377,-10418.898773
862.566003,666.185348,592.164754,-11261.603821
862.566323,1406.391290,1406.391290,-10878.556072
862.566643,1924.535449,962.267725,-10878.556072
862.566963,1924.535449,518.144159,-10801.946522
862.567282,370.102971,-148.041188,-9882.631924
862.567602,-1332.370696,-296.082377,-11108.384721
862.567922,-370.102971,-518.144159,-10495.508323
862.568242,2664.741391,-740.205942,-9806.022374
862.568562,3923.091493,-518.144159,-9806.022374
862.568882,3997.112087,-888.247130,-10265.679673
862.569202,2220.617826,-444.123565,-10035.851024
862.569521,296.082377,0.000000,-9269.755526
862.569841,-592.164754,222.061783,-9576.193725
862.570161,-148.041188,-296.082377,-9652.803275
862.570481,74.020594,-592.164754,-9806.022374
862.570801,74.020594,-962.267725,-9959.241474
862.571121,518.144159,-518.144159,-9806.022374
862.571441,-148.041188,0.000000,-9882.631924
862.571760,666.185348,370.102971,-9882.631924
862.572080,2368.659014,740.205942,-9959.241474
862.572400,2368.659014,518.144159,-10418.898773
862.572720,1258.350101,814.226536,-10189.070123
862.573040,888.247130,0.000000,-10189.070123
862.573360,296.082377,0.000000,-10265.679673
862.573680,0.000000,0.000000,-9806.022374
862.573999,0.000000,296.082377,-10342.289223
862.574319,1332.370696,1258.350101,-10342.289223
862.574639,1998.556043,1776.494261,-10418.898773
862.574959,814.226536,1998.556043,-11031.775171
862.575279,-444.123565,962.267725,-10418.898773
862.575599,-1702.473667,222.061783,-9806.022374
862.575919,-1924.535449,-370.102971,-10265.679673
862.576238,-1554.432478,-666.185348,-9806.022374
862.576558,-1628.453072,-592.164754,-9882.631924
862.576878,-888.247130,592.164754,-10189.070123
862.577198,296.082377,1702.473667,-10112.460574
862.577518,1332.370696,1998.556043,-9806.022374
862.577838,1776.494261,1036.288319,-9959.241474
862.578158,2072.576638,0.000000,-10265.679673
862.578477,1924.535449,-444.123565,-9806.022374
862.578797,1850.514855,-296.082377,-8273.831378
862.579117,740.205942,74.020594,-9422.974625
862.579437,222.061783,0.000000,-9729.412825
862.579757,-296.082377,-592.164754,-9652.803275
862.580077,0.000000,-222.061783,-9882.631924
862.580397,222.061783,296.082377,-9116.536426
862.580716,222.061783,1332.370696,-9959.241474
862.581036,1184.329507,1628.453072,-10418.898773
862.581356,2368.659014,962.267725,-10189.070123
862.581676,1036.288319,296.082377,-10342.289223
862.581996,-296.082377,-888.247130,-9576.193725
862.582316,0.000000,-592.164754,-9806.022374
862.582636,1628.453072,-222.061783,-10418.898773
862.582955,2960.823768,592.164754,-10112.460574
862.583275,2442.679609,1628.453072,-11184.994271
862.583595,74.020594,74.020594,-9959.241474
862.583915,-1184.329507,-518.144159,-9806.022374
862.584235,-1184.329507,-444.123565,-10035.851024
862.584555,-518.144159,-370.102971,-10112.460574
862.584875,-370.102971,814.226536,-10265.679673
862.585195,-222.061783,-296.082377,-10648.727422
862.585514,592.164754,-888.247130,-10801.946522
862.585834,0.000000,-1554.432478,-9959.241474
862.586154,-518.144159,-740.205942,-10112.460574
862.586474,888.247130,740.205942,-10189.070123
862.586794,148.041188,1480.411884,-10572.117872
862.587114,0.000000,1258.350101,-10495.508323
862.587434,0.000000,444.123565,-10648.727422
862.587753,-888.247130,0.000000,-9959.241474
862.588073,-2368.659014,-814.226536,-9806.022374
862.588393,-1480.411884,-2072.576638,-9882.631924
862.588713,-296.082377,-444.123565,-9729.412825
862.589033,444.123565,0.000000,-10112.460574
862.589353,1332.370696,1480.411884,-10418.898773
862.589673,0.000000,666.185348,-10035.851024
862.589992,-370.102971,-740.205942,-9729.412825
862.590312,-370.102971,-296.082377,-9116.536426
862.590632,1258.350101,-888.247130,-9576.193725
862.590952,2590.720797,-740.205942,-9499.584175
862.591272,666.185348,-1036.288319,-9499.584175
862.591592,0.000000,-296.082377,-10035.851024
862.591912,148.041188,296.082377,-9346.365076
862.592231,444.123565,740.205942,-9346.365076
862.592551,1776.494261,666.185348,-9959.241474
862.592871,2368.659014,-370.102971,-9652.803275
862.593191,2294.638420,2146.597232,-10342.289223
862.593511,814.226536,2368.659014,-10189.070123
862.593831,222.061783,3552.988522,-10725.336972
862.594151,-370.102971,1702.473667,-10265.679673
862.594470,1480.411884,1184.329507,-10265.679673
862.594790,1406.391290,74.020594,-10342.289223
862.595110,1850.514855,0.000000,-9959.241474
862.595430,2146.597232,2664.741391,-11108.384721
862.595750,1036.288319,2960.823768,-11031.775171
862.596070,148.041188,1554.432478,-10648.727422
862.596390,148.041188,1998.556043,-10648.727422
862.596709,1554.432478,1184.329507,-10801.946522
862.597029,1998.556043,74.020594,-10801.946522
862.597349,296.082377,666.185348,-11108.384721
862.597669,-1628.453072,1110.308913,-10725.336972
862.597989,-1480.411884,2442.679609,-10418.898773
862.598309,814.226536,2590.720797,-10572.117872
862.598629,2442.679609,2072.576638,-10648.727422
862.598948,3404.947333,1258.350101,-10418.898773
862.599268,962.267725,74.020594,-9959.241474
862.599588,-370.102971,-1628.453072,-9652.803275
862.599908,-444.123565,-888.247130,-9806.022374
862.600228,74.020594,518.144159,-9806.022374
862.600548,1110.308913,1850.514855,-9422.974625
862.600868,962.267725,370.102971,-9576.193725
862.601187,518.144159,2072.576638,-9806.022374
862.601507,74.020594,814.226536,-9576.193725
862.601827,2812.782580,74.020594,-9806.022374
862.602147,1036.288319,-888.247130,-9269.755526
862.602467,962.267725,-888.247130,-9576.193725
862.602787,444.123565,-296.082377,-9346.365076
862.603107,74.020594,-1184.329507,-9652.803275
862.603426,1258.350101,74.020594,-9806.022374
862.603746,592.164754,148.041188,-10189.070123
862.604066,962.267725,296.082377,-9882.631924
862.604386,444.123565,222.061783,-9806.022374
862.604706,-592.164754,-148.041188,-9882.631924
862.605026,-962.267725,-444.123565,-10495.508323
862.605346,-740.205942,-1776.494261,-9729.412825
862.605665,-518.144159,-2072.576638,-10495.508323
862.605985,-296.082377,-1036.288319,-10342.289223
862.606305,-740.205942,814.226536,-10418.898773
862.606625,-666.185348,2072.576638,-10955.165621
862.606945,518.144159,1628.453072,-10878.556072
862.607265,0.000000,962.267725,-11031.775171
862.607585,-592.164754,-888.247130,-10648.727422
862.607904,-2220.617826,-1480.411884,-10495.508323
862.608224,-3034.844362,-518.144159,-10572.117872
862.608544,-2812.782580,-592.164754,-10035.851024
862.608864,-1850.514855,-962.267725,-9576.193725
862.609184,0.000000,-666.185348,-9806.022374
862.609504,1554.432478,-1036.288319,-10035.851024
862.609824,1776.494261,888.247130,-10725.336972
862.610143,740.205942,1924.535449,-10418.898773
862.610463,814.226536,2220.617826,-9806.022374
862.610783,2368.659014,740.205942,-9959.241474
862.611103,2220.617826,-1998.556043,-9499.584175
862.611423,444.123565,-2812.782580,-9269.755526
862.611743,-740.205942,-2220.617826,-9116.536426
862.612063,0.000000,-814.226536,-9729.412825
862.612382,666.185348,1110.308913,-9882.631924
862.612702,3034.844362,814.226536,-9806.022374
862.613022,2368.659014,-222.061783,-9652.803275
862.613342,740.205942,0.000000,-9729.412825
862.613662,0.000000,-370.102971,-9959.241474
862.613982,666.185348,-148.041188,-10418.898773
862.614302,1110.308913,740.205942,-10112.460574
862.614621,592.164754,814.226536,-10035.851024
862.614941,2590.720797,814.226536,-10572.117872
862.615261,2738.761985,222.061783,-10648.727422
862.615581,2368.659014,740.205942,-10648.727422
862.615901,1776.494261,1110.308913,-10648.727422
862.616221,1036.288319,1628.453072,-10495.508323
862.616540,370.102971,2072.576638,-11031.775171
862.616860,518.144159,1036.288319,-10495.508323
862.617180,-222.061783,-1258.350101,-10189.070123
862.617500,-888.247130,-1332.370696,-10112.460574
862.617820,74.020594,370.102971,-10495.508323
862.618140,1776.494261,2220.617826,-11108.384721
862.618460,1850.514855,2368.659014,-10878.556072
862.618779,1110.308913,2146.597232,-10035.851024
862.619099,444.123565,1554.432478,-10265.679673
862.619419,148.041188,-222.061783,-9959.241474
862.619739,-370.102971,-1036.288319,-9499.584175
862.620059,444.123565,-444.123565,-10112.460574
862.620379,1332.370696,592.164754,-9806.022374
862.620699,666.185348,222.061783,-9193.145976
862.621018,1850.514855,518.144159,-9806.022374
862.621338,2072.576638,148.041188,-9806.022374
862.621658,0.000000,222.061783,-9346.365076
862.621978,-222.061783,1776.494261,-9806.022374
862.622298,-1184.329507,962.267725,-9576.193725
862.622618,-2368.659014,592.164754,-9346.365076
862.622938,-740.205942,296.082377,-9269.755526
862.623257,666.185348,-1110.308913,-9729.412825
862.623577,1406.391290,-888.247130,-9959.241474
862.623897,1480.411884,0.000000,-9729.412825
862.624217,666.185348,1850.514855,-10265.679673
862.624537,592.164754,1924.535449,-10112.460574
862.624857,-444.123565,1110.308913,-9882.631924
862.625176,-296.082377,74.020594,-9959.241474
862.625496,888.247130,-740.205942,-9729.412825
862.625816,2368.659014,-740.205942,-10342.289223
862.626136,888.247130,148.041188,-10648.727422
862.626456,74.020594,1628.453072,-10648.727422
862.626776,-888.247130,1702.473667,-10189.070123
862.627096,-1036.288319,1332.370696,-10495.508323
862.627415,666.185348,-148.041188,-10648.727422
862.627735,74.020594,-1110.308913,-10189.070123
862.628055,-1110.308913,-518.144159,-10112.460574
862.628375,-370.102971,592.164754,-10955.165621
862.628695,-1036.288319,1480.411884,-9882.631924
862.629015,-1406.391290,1850.514855,-10418.898773
862.629335,-1036.288319,1258.350101,-10035.851024
862.629654,148.041188,0.000000,-10189.070123
862.629974,1332.370696,-962.267725,-9959.241474
862.630294,1480.411884,-370.102971,-9882.631924
862.630614,962.267725,0.000000,-9959.241474
862.630934,296.082377,1332.370696,-9959.241474
862.631254,814.226536,1628.453072,-9729.412825
862.631574,962.267725,1184.329507,-9882.631924
862.631893,1258.350101,-814.226536,-9499.584175
862.632213,1628.453072,-1924.535449,-9652.803275
862.632533,1258.350101,-1406.391290,-9806.022374
862.632853,888.247130,-1258.350101,-9576.193725
862.633173,666.185348,-962.267725,-9499.584175
862.633493,1406.391290,-962.267725,-9882.631924
862.633813,1628.453072,74.020594,-9729.412825
862.634132,1628.453072,1702.473667,-9882.631924
862.634452,0.000000,1480.411884,-10035.851024
862.634772,0.000000,2146.597232,-9882.631924
862.635092,0.000000,1406.391290,-10189.070123
862.635412,1998.556043,-740.205942,-10342.289223
862.635732,2886.803174,-1184.329507,-10035.851024
862.636051,2146.597232,-2146.597232,-9806.022374
862.636371,1776.494261,296.082377,-10495.508323
862.636691,444.123565,1924.535449,-10648.727422
862.637011,592.164754,3330.926739,-10342.289223
862.637331,1110.308913,2516.700203,-10342.289223
862.637651,2294.638420,0.000000,-10572.117872
862.637971,2220.617826,-1554.432478,-9882.631924
862.638290,1184.329507,-1776.494261,-10572.117872
862.638610,-666.185348,-888.247130,-10648.727422
862.638930,-1850.514855,1702.473667,-10189.070123
862.639250,-1258.350101,3404.947333,-10878.556072
862.639570,-444.123565,1924.535449,-10572.117872
862.639890,518.144159,740.205942,-10418.898773
862.640210,0.000000,-666.185348,-9806.022374
862.640529,-444.123565,-1924.535449,-10342.289223
862.640849,-370.102971,-1406.391290,-9959.241474
862.641169,-444.123565,-1406.391290,-9882.631924
862.641489,148.041188,-370.102971,-9882.631924
862.641809,74.020594,296.082377,-9882.631924
862.642129,148.041188,1406.391290,-9806.022374
862.642449,1406.391290,1480.411884,-10035.851024
862.642768,1110.308913,1776.494261,-10342.289223
862.643088,-814.226536,1406.391290,-9882.631924
862.643408,-666.185348,666.185348,-9652.803275
862.643728,222.061783,-592.164754,-10189.070123
862.644048,666.185348,-592.164754,-9652.803275
862.644368,370.102971,-1554.432478,-9576.193725
862.644687,444.123565,-148.041188,-10189.070123
862.645007,0.000000,1036.288319,-9959.241474
862.645327,-296.082377,1332.370696,-10112.460574
862.645647,0.000000,1184.329507,-10112.460574
862.645967,-592.164754,518.144159,-11261.603821
862.646287,-888.247130,-1110.308913,-10112.460574
862.646607,74.020594,-1554.432478,-10418.898773
862.646926,1554.432478,-296.082377,-10725.336972
862.647246,1998.556043,1628.453072,-10418.898773
862.647566,1258.350101,2072.576638,-10342.289223
862.647886,1554.432478,1480.411884,-10189.070123
862.648206,2442.679609,0.000000,-10418.898773
862.648526,2960.823768,-1628.453072,-10265.679673
862.648846,2146.597232,-2516.700203,-10189.070123
862.649165,0.000000,-888.247130,-10495.508323
862.649485,-1184.329507,296.082377,-10112.460574
862.649805,-296.082377,888.247130,-10342.289223
862.650125,-888.247130,888.247130,-9806.022374
862.650445,-1258.350101,1036.288319,-10189.070123
862.650765,-888.247130,1924.535449,-10035.851024
862.651085,518.144159,1998.556043,-10648.727422
862.651404,-296.082377,1332.370696,-9959.241474
862.651724,-222.061783,-222.061783,-9499.584175
862.652044,740.205942,-1998.556043,-9729.412825
862.652364,888.247130,-1702.473667,-9499.584175
862.652684,740.205942,0.000000,-9882.631924
862.653004,74.020594,1554.432478,-10035.851024
862.653324,-148.041188,2516.700203,-9959.241474
862.653643,-222.061783,3108.864956,-9652.803275
862.653963,-148.041188,1776.494261,-9806.022374
862.654283,444.123565,518.144159,-9959.241474
862.654603,-148.041188,-814.226536,-9652.803275
862.654923,1406.391290,-1998.556043,-9576.193725
862.655243,1480.411884,-1332.370696,-9652.803275
862.655562,1110.308913,592.164754,-10035.851024
862.655882,1406.391290,2886.803174,-11721.261119
862.656202,2516.700203,3849.070898,-10648.727422
862.656522,2960.823768,3627.009116,-10572.117872
862.656842,2146.597232,1850.514855,-10648.727422
862.657162,592.164754,-814.226536,-10495.508323
862.657482,-1036.288319,-2664.741391,-9882.631924
862.657801,74.020594,-2072.576638,-9652.803275
862.658121,2072.576638,-370.102971,-10342.289223
862.658441,3923.091493,962.267725,-10265.679673
862.658761,3627.009116,1998.556043,-10418.898773
862.659081,2738.761985,2664.741391,-10878.556072
862.659401,888.247130,2664.741391,-10572.117872
862.659721,-1924.535449,2072.576638,-10035.851024
862.660040,-1480.411884,0.000000,-10035.851024
862.660360,222.061783,-1850.514855,-9499.584175
862.660680,1258.350101,-2590.720797,-9806.022374
862.661000,1554.432478,-2072.576638,-10265.679673
862.661320,814.226536,-962.267725,-9959.241474
862.661640,-296.082377,1184.329507,-9116.536426
862.661960,666.185348,2516.700203,-10189.070123
862.662279,1998.556043,2516.700203,-10112.460574
862.662599,2072.576638,666.185348,-9959.241474
862.662919,1036.288319,-1702.473667,-9652.803275
862.663239,370.102971,-2368.659014,-9499.584175
862.663559,-370.102971,-1036.288319,-10189.070123
862.663879,-962.267725,0.000000,-10035.851024
862.664199,444.123565,1628.453072,-9882.631924
862.664518,1036.288319,1406.391290,-10342.289223
862.664838,-444.123565,444.123565,-9576.193725
862.665158,-1628.453072,222.061783,-10342.289223
862.665478,-1110.308913,-666.185348,-9806.022374
862.665798,0.000000,74.020594,-10035.851024
862.666118,666.185348,-148.041188,-10265.679673
862.666437,1406.391290,-1480.411884,-9959.241474
862.666757,1258.350101,-2664.741391,-9959.241474
862.667077,222.061783,-1850.514855,-9806.022374
862.667397,0.000000,-888.247130,-10418.898773
862.667717,-1850.514855,1776.494261,-9806.022374
862.668037,-2590.720797,2072.576638,-10265.679673
862.668357,-1850.514855,0.000000,-10112.460574
862.668676,0.000000,-1628.453072,-9346.365076
862.668996,222.061783,-2960.823768,-9729.412825
862.669316,888.247130,-2072.576638,-10112.460574
862.669636,296.082377,-370.102971,-10112.460574
862.669956,-518.144159,1554.432478,-10342.289223
862.670276,-444.123565,2294.638420,-10342.289223
862.670596,0.000000,1258.350101,-10648.727422
862.670915,148.041188,148.041188,-10189.070123
862.671235,74.020594,-74.020594,-10418.898773
862.671555,814.226536,-518.144159,-10342.289223
862.671875,74.020594,-962.267725,-9959.241474
862.672195,0.000000,148.041188,-10189.070123
862.672515,592.164754,0.000000,-10418.898773
862.672835,962.267725,888.247130,-9959.241474
862.673154,444.123565,2072.576638,-9959.241474
862.673474,222.061783,1850.514855,-10342.289223
862.673794,962.267725,1184.329507,-10112.460574
862.674114,1036.288319,-592.164754,-9882.631924
862.674434,3182.885551,-2072.576638,-10572.117872
862.674754,3627.009116,-1702.473667,-10112.460574
862.675073,3034.844362,-370.102971,-10035.851024
862.675393,1184.329507,1036.288319,-10189.070123
862.675713,296.082377,2146.597232,-10189.070123
862.676033,0.000000,2368.659014,-10955.165621
862.676353,-592.164754,1036.288319,-10265.679673
862.676673,222.061783,740.205942,-9806.022374
862.676993,74.020594,888.247130,-9882.631924
862.677312,2886.803174,1184.329507,-9806.022374
862.677632,2442.679609,3182.885551,-10265.679673
862.677952,1184.329507,2294.638420,-9806.022374
862.678272,814.226536,1702.473667,-9576.193725
862.678592,1480.411884,-222.061783,-9729.412825
862.678912,3182.885551,0.000000,-9652.803275
862.679232,2516.700203,370.102971,-9729.412825
862.679551,1628.453072,1332.370696,-10035.851024
862.679871,148.041188,2368.659014,-10265.679673
862.680191,-592.164754,2146.597232,-10189.070123
862.680511,1110.308913,666.185348,-10189.070123
862.680831,1628.453072,74.020594,-10112.460574
862.681151,1110.308913,1480.411884,-10725.336972
862.681471,1110.308913,2516.700203,-10878.556072
862.681790,1258.350101,2664.741391,-10572.117872
862.682110,296.082377,1924.535449,-10418.898773
862.682430,0.000000,1110.308913,-10418.898773
862.682750,2072.576638,740.205942,-10418.898773
862.683070,3108.864956,1332.370696,-11031.775171
862.683390,2442.679609,2664.741391,-10648.727422
862.683710,370.102971,2590.720797,-10035.851024
862.684029,-296.082377,2072.576638,-10342.289223
862.684349,296.082377,592.164754,-8503.660028
862.684669,370.102971,1702.473667,-10418.898773
862.684989,2664.741391,2072.576638,-10112.460574
862.685309,3552.988522,2368.659014,-10112.460574
862.685629,3627.009116,2368.659014,-10035.851024
862.685948,2738.761985,2220.617826,-9729.412825
862.686268,518.144159,2072.576638,-9806.022374
862.686588,-666.185348,1702.473667,-9499.584175
862.686908,444.123565,2368.659014,-9346.365076
862.687228,2294.638420,3256.906145,-9652.803275
862.687548,2590.720797,1628.453072,-10035.851024
862.687868,2812.782580,518.144159,-9959.241474
862.688187,2738.761985,148.041188,-10035.851024
862.688507,2664.741391,1184.329507,-10265.679673
862.688827,1554.432478,3552.988522,-10189.070123
862.689147,1184.329507,5033.400406,-10189.070123
862.689467,740.205942,4219.173869,-10648.727422
862.689787,1406.391290,1554.432478,-9882.631924
862.690107,2072.576638,-296.082377,-10189.070123
862.690426,4367.215058,-962.267725,-9959.241474
862.690746,4811.338623,740.205942,-10648.727422
862.691066,3923.091493,1850.514855,-10572.117872
862.691386,1702.473667,3923.091493,-10189.070123
862.691706,740.205942,5255.462188,-10265.679673
862.692026,2368.659014,4737.318029,-10801.946522
862.692346,2368.659014,3256.906145,-10648.727422
862.692665,1924.535449,518.144159,-10572.117872
862.692985,2738.761985,148.041188,-9882.631924
862.693305,3182.885551,0.000000,-10495.508323
862.693625,1998.556043,1554.432478,-9729.412825
862.693945,0.000000,2812.782580,-10035.851024
862.694265,370.102971,3552.988522,-10265.679673
862.694584,3256.906145,3478.967927,-10572.117872
862.694904,4663.297435,3404.947333,-10265.679673
862.695224,3552.988522,3404.947333,-10112.460574
862.695544,3478.967927,3478.967927,-9959.241474
862.695864,4219.173869,2960.823768,-10189.070123
862.696184,4885.359217,3478.967927,-10035.851024
862.696504,2664.741391,2812.782580,-9882.631924
862.696823,0.000000,2368.659014,-9346.365076
862.697143,444.123565,666.185348,-9652.803275
862.697463,2590.720797,740.205942,-9652.803275
862.697783,2368.659014,1554.432478,-9576.193725
862.698103,1184.329507,2146.597232,-9882.631924
862.698423,1702.473667,2664.741391,-9652.803275
862.698743,3775.050304,3182.885551,-11568.042020
862.699062,4885.359217,4367.215058,-10495.508323
862.699382,3627.009116,4737.318029,-10572.117872
862.699702,3108.864956,3849.070898,-10112.460574
862.700022,3552.988522,2072.576638,-10035.851024
862.700342,2590.720797,1332.370696,-10418.898773
862.700662,1628.453072,1850.514855,-10495.508323
862.700982,148.041188,2220.617826,-10112.460574
862.701301,222.061783,3108.864956,-10265.679673
862.701621,1406.391290,3627.009116,-10189.070123
862.701941,2960.823768,4145.153275,-10572.117872
862.702261,3923.091493,3775.050304,-10495.508323
862.702581,3108.864956,3627.009116,-10495.508323
862.702901,1924.535449,3404.947333,-10342.289223
862.703221,1184.329507,3404.947333,-9959.241474
862.703540,1850.514855,3478.967927,-10495.508323
862.703860,2886.803174,2516.700203,-10189.070123
862.704180,2590.720797,1924.535449,-9806.022374
862.704500,888.247130,1628.453072,-10342.289223
862.704820,0.000000,1702.473667,-9806.022374
862.705140,0.000000,2294.638420,-9806.022374
862.705459,1258.350101,2812.782580,-10342.289223
862.705779,3627.009116,1998.556043,-9193.145976
862.706099,3478.967927,1406.391290,-9882.631924
862.706419,2146.597232,1850.514855,-10189.070123
862.706739,592.164754,2590.720797,-9806.022374
862.707059,962.267725,3256.906145,-9729.412825
862.707379,2812.782580,2294.638420,-10035.851024
862.707699,3701.029710,666.185348,-9576.193725
862.708019,2738.761985,74.020594,-9806.022374
862.708339,1924.535449,1258.350101,-9959.241474
862.708659,2072.576638,3034.844362,-9806.022374
862.708979,444.123565,4663.297435,-10112.460574
862.709299,-222.061783,3849.070898,-9806.022374
862.709619,1480.411884,1924.535449,-9806.022374
862.709938,3256.906145,222.061783,-10189.070123
862.710258,3923.091493,-370.102971,-10035.851024
862.710578,3182.885551,1184.329507,-10648.727422
862.710898,3034.844362,3256.906145,-10801.946522
862.711218,2960.823768,4293.194464,-10342.289223
862.711538,2294.638420,4589.276840,-9959.241474
862.711858,2886.803174,2812.782580,-10342.289223
862.712178,3108.864956,1258.350101,-10418.898773
862.712498,2886.803174,962.267725,-10801.946522
862.712818,2960.823768,1850.514855,-10342.289223
862.713138,3478.967927,2442.679609,-10189.070123
862.713458,4589.276840,3182.885551,-10189.070123
862.713778,4145.153275,3552.988522,-10878.556072
862.714098,2368.659014,3404.947333,-10265.679673
862.714418,518.144159,3108.864956,-10112.460574
862.714738,518.144159,1406.391290,-10342.289223
862.715058,2516.700203,0.000000,-9729.412825
862.715378,3108.864956,-740.205942,-9882.631924
862.715698,2590.720797,444.123565,-9499.584175
862.716018,2590.720797,2442.679609,-9959.241474
862.716338,3775.050304,4737.318029,-9959.241474
862.716658,4885.359217,6069.688724,-10495.508323
862.716978,5107.421000,5403.503377,-10418.898773
862.717298,3330.926739,3404.947333,-10878.556072
862.717618,740.205942,1110.308913,-9882.631924
862.717938,-1406.391290,0.000000,-9576.193725
862.718258,-1702.473667,-148.041188,-9576.193725
862.718578,0.000000,888.247130,-9882.631924
862.718898,1628.453072,444.123565,-9652.803275
862.719218,2072.576638,1702.473667,-9959.241474
862.719538,2664.741391,3108.864956,-10112.460574
862.719858,3775.050304,4811.338623,-11491.432470
862.720178,5477.523971,6291.750507,-11031.775171
862.720498,5551.544565,6069.688724,-10495.508323
862.720818,3997.112087,4589.276840,-10572.117872
862.721138,2516.700203,2590.720797,-10342.289223
862.721458,1406.391290,1924.535449,-11108.384721
862.721777,444.123565,2072.576638,-10572.117872
862.722097,-296.082377,2442.679609,-10112.460574
862.722417,-1554.432478,2442.679609,-10112.460574
862.722737,-1332.370696,1702.473667,-9806.022374
862.723057,-1036.288319,1036.288319,-9806.022374
862.723377,1110.308913,1258.350101,-9729.412825
862.723697,3330.926739,2146.597232,-9882.631924
862.724017,5477.523971,3404.947333,-10342.289223
862.724337,7105.977043,3997.112087,-10112.460574
862.724657,6217.729913,5477.523971,-10418.898773
862.724977,4441.235652,5847.626942,-10495.508323
862.725297,2738.761985,5107.421000,-10418.898773
862.725617,1406.391290,3849.070898,-9882.631924
862.725937,888.247130,2072.576638,-9882.631924
862.726257,0.000000,296.082377,-9499.584175
862.726577,-740.205942,-370.102971,-9269.755526
862.726897,-814.226536,148.041188,-9193.145976
862.727217,296.082377,1480.411884,-9499.584175
862.727537,2220.617826,3034.844362,-9806.022374
862.727857,4441.235652,3923.091493,-9806.022374
862.728177,5773.606348,4293.194464,-9959.241474
862.728497,6513.812290,3330.926739,-10265.679673
862.728817,5625.565159,1998.556043,-9882.631924
862.729137,3552.988522,1110.308913,-10265.679673
862.729457,1332.370696,962.267725,-9729.412825
862.729777,-518.144159,1258.350101,-9806.022374
862.730097,-1332.370696,1628.453072,-9882.631924
862.730417,-740.205942,888.247130,-10035.851024
862.730737,-296.082377,222.061783,-10189.070123
862.731057,962.267725,0.000000,-10035.851024
862.731377,1554.432478,888.247130,-9499.584175
862.731697,2664.741391,2294.638420,-10189.070123
862.732017,3923.091493,3775.050304,-10801.946522
862.732337,4145.153275,4811.338623,-11031.775171
862.732657,3627.009116,4515.256246,-10342.289223
862.732977,2960.823768,3701.029710,-10572.117872
862.733296,2146.597232,2368.659014,-11031.775171
862.733616,1332.370696,1554.432478,-10572.117872
862.733936,296.082377,1110.308913,-10265.679673
862.734256,296.082377,888.247130,-9882.631924
862.734576,740.205942,888.247130,-10189.070123
862.734896,1776.494261,1406.391290,-10189.070123
862.735216,2664.741391,2220.617826,-10418.898773
862.735536,3552.988522,3182.885551,-9959.241474
862.735856,5033.400406,3923.091493,-10035.851024
862.736176,6439.791695,4071.132681,-10112.460574
862.736496,6957.935855,4293.194464,-10189.070123
862.736816,6365.771101,4515.256246,-10035.851024
862.737136,3775.050304,4737.318029,-10112.460574
862.737456,1258.350101,4145.153275,-9959.241474
862.737776,-592.164754,3034.844362,-9806.022374
862.738096,-1258.350101,888.247130,-9193.145976
862.738416,-592.164754,-592.164754,-9039.926876
862.738736,814.226536,-1036.288319,-9116.536426
862.739056,1924.535449,0.000000,-9269.755526
862.739376,3330.926739,2294.638420,-9499.584175
862.739696,5107.421000,5181.441594,-9959.241474
862.740016,6143.709319,6661.853478,-9959.241474
862.740336,6217.729913,6957.935855,-10572.117872
862.740656,4959.379811,6291.750507,-10801.946522
862.740976,3923.091493,4589.276840,-10572.117872
862.741296,3404.947333,2886.803174,-10801.946522
862.741616,2294.638420,2516.700203,-10801.946522
862.741936,0.000000,2738.761985,-9959.241474
862.742256,-2368.659014,2738.761985,-10035.851024
862.742576,-2738.761985,2812.782580,-9882.631924
862.742896,-444.123565,2590.720797,-10801.946522
862.743216,2146.597232,2368.659014,-10418.898773
862.743536,3552.988522,2368.659014,-10035.851024
862.743856,4145.153275,3182.885551,-10035.851024
862.744176,4071.132681,5181.441594,-9729.412825
862.744496,4367.215058,5403.503377,-10189.070123
862.744815,5551.544565,5477.523971,-10189.070123
862.745135,5403.503377,5107.421000,-10648.727422
862.745455,2886.803174,4071.132681,-10725.336972
