#time,accel_x,accel_y,accel_z
871.775475,370.102971,370.102971,-10189.070123
871.775795,296.082377,592.164754,-10189.070123
871.776115,518.144159,148.041188,-10112.460574
871.776435,666.185348,-222.061783,-10112.460574
871.776755,592.164754,296.082377,-10189.070123
871.777074,370.102971,370.102971,-9959.241474
871.777394,444.123565,370.102971,-10112.460574
871.777714,370.102971,148.041188,-10112.460574
871.778034,296.082377,222.061783,-10265.679673
871.778354,370.102971,74.020594,-9959.241474
871.778674,666.185348,74.020594,-9269.755526
871.778994,814.226536,592.164754,-10189.070123
871.779314,370.102971,370.102971,-10265.679673
871.779634,444.123565,370.102971,-9806.022374
871.779954,222.061783,0.000000,-9959.241474
871.780274,518.144159,74.020594,-9806.022374
871.780594,592.164754,222.061783,-9959.241474
871.780914,740.205942,74.020594,-10035.851024
871.781234,666.185348,296.082377,-9882.631924
871.781554,962.267725,370.102971,-9959.241474
871.781874,444.123565,518.144159,-10035.851024
871.782194,74.020594,222.061783,-10265.679673
871.782514,444.123565,0.000000,-9882.631924
871.782834,370.102971,444.123565,-9729.412825
871.783154,222.061783,148.041188,-10112.460574
871.783474,518.144159,296.082377,-10495.508323
871.783794,444.123565,592.164754,-10112.460574
871.784114,296.082377,592.164754,-10495.508323
871.784434,1184.329507,-222.061783,-10725.336972
871.784754,888.247130,148.041188,-10035.851024
871.785074,814.226536,0.000000,-10495.508323
871.785394,148.041188,0.000000,-10035.851024
871.785714,0.000000,-222.061783,-9193.145976
871.786034,74.020594,-148.041188,-10112.460574
871.786354,518.144159,0.000000,-10342.289223
871.786674,148.041188,222.061783,-10035.851024
871.786994,222.061783,148.041188,-9882.631924
871.787314,1036.288319,296.082377,-10878.556072
871.787634,1036.288319,222.061783,-10342.289223
871.787954,444.123565,0.000000,-9959.241474
871.788274,148.041188,0.000000,-9806.022374
871.788594,444.123565,-518.144159,-10035.851024
871.788914,0.000000,-74.020594,-9882.631924
871.789234,0.000000,-370.102971,-10418.898773
871.789554,-370.102971,-740.205942,-10112.460574
871.789874,-592.164754,-518.144159,-10112.460574
871.790194,-740.205942,-740.205942,-10035.851024
871.790514,-296.082377,-518.144159,-9806.022374
871.790834,-740.205942,-370.102971,-10342.289223
871.791154,-222.061783,-592.164754,-9959.241474
871.791474,148.041188,-814.226536,-9806.022374
871.791794,-296.082377,-962.267725,-9806.022374
871.792114,-1036.288319,-1702.473667,-10112.460574
871.792434,-740.205942,-1702.473667,-9959.241474
871.792753,-518.144159,-1776.494261,-10265.679673
871.793073,-1110.308913,-1406.391290,-9882.631924
871.793393,-2294.638420,-1776.494261,-10035.851024
871.793713,-2220.617826,-2072.576638,-9806.022374
871.794033,-1480.411884,-2072.576638,-10112.460574
871.794353,-296.082377,-1184.329507,-11031.775171
871.794673,-1184.329507,-1628.453072,-10112.460574
871.794993,-1702.473667,-1924.535449,-9882.631924
871.795313,-740.205942,-1924.535449,-9882.631924
871.795633,0.000000,-1258.350101,-10955.165621
871.795953,-740.205942,-1184.329507,-10112.460574
871.796273,-2368.659014,-2294.638420,-10112.460574
871.796593,-3034.844362,-2738.761985,-9882.631924
871.796913,-2738.761985,-3108.864956,-10189.070123
871.797233,-2442.679609,-3034.844362,-9959.241474
871.797553,-2812.782580,-3404.947333,-10035.851024
871.797873,-3108.864956,-3182.885551,-10112.460574
871.798193,-2146.597232,-2960.823768,-9806.022374
871.798513,0.000000,-2146.597232,-10112.460574
871.798833,1110.308913,-1110.308913,-10035.851024
871.799153,444.123565,-888.247130,-10418.898773
871.799473,-666.185348,-1184.329507,-10648.727422
871.799793,-2294.638420,-1480.411884,-10342.289223
871.800113,-3404.947333,-2442.679609,-9806.022374
871.800433,-4959.379811,-3330.926739,-9959.241474
871.800753,-5477.523971,-4737.318029,-9652.803275
871.801073,-4071.132681,-5551.544565,-9422.974625
871.801393,-1554.432478,-4959.379811,-9422.974625
871.801713,222.061783,-3923.091493,-10265.679673
871.802033,962.267725,-1850.514855,-10189.070123
871.802353,1554.432478,518.144159,-10495.508323
871.802673,2368.659014,1776.494261,-10725.336972
871.802993,2516.700203,1258.350101,-10265.679673
871.803313,1184.329507,370.102971,-10572.117872
871.803633,-444.123565,-1406.391290,-10418.898773
871.803953,-2294.638420,-3108.864956,-10265.679673
871.804273,-3775.050304,-3552.988522,-9806.022374
871.804593,-5181.441594,-3701.029710,-9346.365076
871.804913,-5625.565159,-4145.153275,-9116.536426
871.805233,-3627.009116,-4441.235652,-9269.755526
871.805553,-592.164754,-3775.050304,-9652.803275
871.805873,1628.453072,-2072.576638,-10112.460574
871.806193,2294.638420,296.082377,-10035.851024
871.806513,3404.947333,2294.638420,-10495.508323
871.806833,4145.153275,3478.967927,-10648.727422
871.807153,2368.659014,3404.947333,-10418.898773
871.807473,-1628.453072,1406.391290,-10801.946522
871.807793,-5477.523971,-1332.370696,-10112.460574
871.808113,-7031.956449,-3849.070898,-9499.584175
871.808432,-5921.647536,-5699.585753,-8273.831378
871.808752,-4441.235652,-6735.874072,-9346.365076
871.809072,-3627.009116,-6439.791695,-9116.536426
871.809392,-1924.535449,-4071.132681,-9576.193725
871.809712,740.205942,0.000000,-10265.679673
871.810032,2738.761985,3182.885551,-10801.946522
871.810352,3552.988522,4663.297435,-10648.727422
871.810672,3330.926739,2960.823768,-10495.508323
871.810992,2812.782580,592.164754,-10801.946522
871.811312,814.226536,-1110.308913,-10495.508323
871.811632,-2368.659014,-1776.494261,-10265.679673
871.811952,-4441.235652,-2294.638420,-9882.631924
871.812272,-6069.688724,-2294.638420,-9806.022374
871.812592,-7402.059420,-3404.947333,-9652.803275
871.812912,-7105.977043,-5699.585753,-9422.974625
871.813232,-5033.400406,-6957.935855,-9039.926876
871.813552,-888.247130,-5625.565159,-9499.584175
871.813872,2442.679609,-1924.535449,-9882.631924
871.814192,3330.926739,2368.659014,-11644.651570
871.814512,2516.700203,4811.338623,-10878.556072
871.814832,1924.535449,4737.318029,-10572.117872
871.815152,1480.411884,2516.700203,-10725.336972
871.815472,1554.432478,-814.226536,-10418.898773
871.815792,-888.247130,-4367.215058,-10572.117872
871.816112,-3997.112087,-5995.668130,-10418.898773
871.816432,-6513.812290,-5699.585753,-9882.631924
871.816752,-8586.388927,-3997.112087,-9576.193725
871.817072,-8512.368333,-2664.741391,-9193.145976
871.817392,-4589.276840,-3478.967927,-9499.584175
871.817712,592.164754,-3552.988522,-9806.022374
871.818032,3552.988522,-2442.679609,-10725.336972
871.818352,3404.947333,-2368.659014,-10418.898773
871.818672,2368.659014,-518.144159,-10725.336972
871.818992,2886.803174,888.247130,-10418.898773
871.819312,2516.700203,2072.576638,-11031.775171
871.819632,148.041188,1554.432478,-10801.946522
871.819952,-3256.906145,-888.247130,-10342.289223
871.820272,-6661.853478,-4145.153275,-10265.679673
871.820592,-6365.771101,-7920.203579,-9346.365076
871.820912,-5551.544565,-9622.677246,-9039.926876
871.821232,-4811.338623,-9770.718434,-8810.098227
871.821552,-4663.297435,-7920.203579,-8810.098227
871.821872,-1998.556043,-3849.070898,-9269.755526
871.822192,1480.411884,222.061783,-9576.193725
871.822512,5107.421000,3034.844362,-10878.556072
871.822832,5625.565159,3256.906145,-11338.213370
871.823152,1924.535449,1184.329507,-10725.336972
871.823472,-1628.453072,-814.226536,-10112.460574
871.823792,-2960.823768,-3330.926739,-9806.022374
871.824111,-3478.967927,-3997.112087,-9959.241474
871.824431,-4589.276840,-4811.338623,-10112.460574
871.824751,-7031.956449,-5181.441594,-9806.022374
871.825071,-6957.935855,-5921.647536,-9346.365076
871.825391,-3775.050304,-5995.668130,-9959.241474
871.825711,-1406.391290,-3256.906145,-10418.898773
871.826031,-1110.308913,-1554.432478,-10342.289223
871.826351,-1776.494261,740.205942,-10495.508323
871.826671,148.041188,1554.432478,-10265.679673
871.826991,2738.761985,444.123565,-10801.946522
871.827311,3923.091493,1702.473667,-11108.384721
871.827631,2072.576638,370.102971,-10955.165621
871.827951,0.000000,-740.205942,-10418.898773
871.828271,-2146.597232,-2368.659014,-10572.117872
871.828591,-5033.400406,-3701.029710,-9806.022374
871.828911,-7402.059420,-4737.318029,-9576.193725
871.829231,-4737.318029,-5477.523971,-9039.926876
871.829551,-2516.700203,-4885.359217,-9806.022374
871.829871,-222.061783,-2738.761985,-9193.145976
871.830191,148.041188,-1036.288319,-9882.631924
871.830511,1776.494261,-296.082377,-10112.460574
871.830831,3404.947333,1332.370696,-10265.679673
871.831151,2146.597232,1628.453072,-10572.117872
871.831471,1554.432478,1258.350101,-9729.412825
871.831791,1554.432478,-222.061783,-10112.460574
871.832111,814.226536,-2442.679609,-10418.898773
871.832431,-2220.617826,-3330.926739,-9729.412825
871.832751,-5255.462188,-3627.009116,-9499.584175
871.833071,-4737.318029,-2294.638420,-9729.412825
871.833391,-3552.988522,-2442.679609,-10035.851024
871.833711,-1258.350101,-1702.473667,-9346.365076
871.834031,-1628.453072,-1554.432478,-9806.022374
871.834351,0.000000,-3108.864956,-9652.803275
871.834671,1406.391290,-1702.473667,-10572.117872
871.834992,2516.700203,518.144159,-10342.289223
871.835312,888.247130,3775.050304,-11184.994271
871.835632,-814.226536,3108.864956,-10418.898773
871.835952,-888.247130,1776.494261,-10342.289223
871.836272,-666.185348,-518.144159,-10418.898773
871.836593,-1406.391290,-4071.132681,-9882.631924
871.836913,-2738.761985,-6217.729913,-9499.584175
871.837233,-3108.864956,-5847.626942,-9422.974625
871.837553,-4367.215058,-2442.679609,-10418.898773
871.837873,-4885.359217,-962.267725,-9576.193725
871.838194,-2442.679609,1702.473667,-10265.679673
871.838514,444.123565,3182.885551,-10878.556072
871.838834,2664.741391,2442.679609,-10801.946522
871.839154,2516.700203,2738.761985,-11414.822920
871.839475,814.226536,1258.350101,-10801.946522
871.839795,370.102971,-518.144159,-9806.022374
871.840115,962.267725,-1332.370696,-9806.022374
871.840435,0.000000,-1184.329507,-9882.631924
871.840755,-1850.514855,-1998.556043,-9959.241474
871.841076,-2368.659014,-1702.473667,-9806.022374
871.841396,-1702.473667,-2590.720797,-9729.412825
871.841716,-2886.803174,-2812.782580,-9729.412825
871.842036,-3182.885551,-1924.535449,-9499.584175
871.842357,-1332.370696,-2442.679609,-9193.145976
871.842677,3701.029710,-1480.411884,-9806.022374
871.842997,4515.256246,1110.308913,-9806.022374
871.843317,3330.926739,1110.308913,-10801.946522
871.843637,2664.741391,1628.453072,-10801.946522
871.843958,2738.761985,1628.453072,-9959.241474
871.844278,1776.494261,148.041188,-10342.289223
871.844598,-148.041188,-1628.453072,-10495.508323
871.844918,-2072.576638,-3701.029710,-9806.022374
871.845238,-2886.803174,-3627.009116,-9652.803275
871.845559,-2294.638420,-2442.679609,-9806.022374
871.845879,-1924.535449,-962.267725,-9576.193725
871.846199,-1036.288319,0.000000,-10495.508323
871.846519,1184.329507,-1702.473667,-9882.631924
871.846840,2072.576638,0.000000,-10342.289223
871.847160,2664.741391,740.205942,-10112.460574
871.847480,1406.391290,1110.308913,-10725.336972
871.847800,444.123565,2220.617826,-10495.508323
871.848120,-518.144159,1036.288319,-10265.679673
871.848441,666.185348,370.102971,-10648.727422
871.848761,1702.473667,-740.205942,-10112.460574
871.849081,148.041188,-592.164754,-10955.165621
871.849401,-3256.906145,-296.082377,-10265.679673
871.849722,-4959.379811,-518.144159,-10189.070123
871.850042,-3775.050304,0.000000,-9806.022374
871.850362,-962.267725,-2516.700203,-9039.926876
871.850682,2516.700203,-1628.453072,-9882.631924
871.851002,4219.173869,518.144159,-10189.070123
871.851323,3923.091493,1332.370696,-10955.165621
871.851643,2516.700203,2886.803174,-10112.460574
871.851963,-1110.308913,2590.720797,-9499.584175
871.852283,-1776.494261,1702.473667,-10112.460574
871.852603,-666.185348,-814.226536,-9652.803275
871.852924,1184.329507,-1702.473667,-10878.556072
871.853244,0.000000,-3552.988522,-9576.193725
871.853564,-666.185348,-2960.823768,-9729.412825
871.853884,-1036.288319,-1702.473667,-9422.974625
871.854205,1110.308913,148.041188,-11721.261119
871.854525,2516.700203,888.247130,-10342.289223
871.854845,3627.009116,740.205942,-10265.679673
871.855165,2442.679609,1776.494261,-10189.070123
871.855485,740.205942,1406.391290,-10035.851024
871.855806,1628.453072,3034.844362,-10648.727422
871.856126,1924.535449,1628.453072,-10342.289223
871.856446,2220.617826,-148.041188,-10572.117872
871.856766,1406.391290,-1332.370696,-10112.460574
871.857087,518.144159,-3552.988522,-10189.070123
871.857407,-518.144159,-888.247130,-10418.898773
871.857727,-2294.638420,370.102971,-9806.022374
871.858047,-888.247130,592.164754,-10112.460574
871.858367,444.123565,518.144159,-9806.022374
871.858688,888.247130,0.000000,-11031.775171
871.859008,1702.473667,0.000000,-10648.727422
871.859328,2072.576638,1480.411884,-10189.070123
871.859648,2442.679609,2960.823768,-10189.070123
871.859968,3404.947333,3923.091493,-10648.727422
871.860289,2664.741391,4071.132681,-11108.384721
871.860609,370.102971,-592.164754,-10035.851024
871.860929,-1110.308913,-2072.576638,-9729.412825
871.861249,-2516.700203,-1998.556043,-9422.974625
871.861570,-2664.741391,-1332.370696,-9882.631924
871.861890,-2146.597232,-814.226536,-9806.022374
871.862210,-444.123565,-1628.453072,-9193.145976
871.862530,1776.494261,-1628.453072,-9882.631924
871.862850,2146.597232,-148.041188,-9346.365076
871.863171,1480.411884,-148.041188,-9806.022374
871.863491,296.082377,1258.350101,-9959.241474
871.863811,1184.329507,2590.720797,-9959.241474
871.864131,222.061783,1850.514855,-10418.898773
871.864452,296.082377,-888.247130,-9729.412825
871.864772,148.041188,-3775.050304,-9652.803275
871.865092,-666.185348,-2738.761985,-9959.241474
871.865412,-962.267725,1628.453072,-10418.898773
871.865732,-2590.720797,2146.597232,-10189.070123
871.866053,-3182.885551,-444.123565,-9959.241474
871.866373,-2590.720797,-2368.659014,-9422.974625
871.866693,-1628.453072,-2294.638420,-10495.508323
871.867013,222.061783,-222.061783,-10418.898773
871.867333,1850.514855,2146.597232,-11031.775171
871.867654,2738.761985,3701.029710,-10878.556072
871.867974,1480.411884,3552.988522,-10495.508323
871.868294,2294.638420,1258.350101,-10878.556072
871.868614,148.041188,148.041188,-11568.042020
871.868935,-1110.308913,-518.144159,-10495.508323
871.869255,-1036.288319,0.000000,-10035.851024
871.869575,0.000000,740.205942,-10189.070123
871.869895,592.164754,0.000000,-9269.755526
871.870215,0.000000,-1406.391290,-9959.241474
871.870536,444.123565,-2442.679609,-9193.145976
871.870856,2516.700203,-666.185348,-9806.022374
871.871176,6143.709319,1850.514855,-10265.679673
871.871496,2886.803174,3552.988522,-10418.898773
871.871817,2960.823768,2516.700203,-9806.022374
871.872137,1036.288319,0.000000,-9806.022374
871.872457,2220.617826,-1998.556043,-9422.974625
871.872777,3775.050304,0.000000,-10112.460574
871.873097,1332.370696,1110.308913,-10189.070123
871.873418,296.082377,148.041188,-9499.584175
871.873738,666.185348,-1702.473667,-10112.460574
871.874058,0.000000,-2072.576638,-9422.974625
871.874378,74.020594,-740.205942,-10035.851024
871.874698,74.020594,740.205942,-10955.165621
871.875019,666.185348,2072.576638,-10035.851024
871.875339,1184.329507,3997.112087,-10418.898773
871.875659,3849.070898,3034.844362,-10418.898773
871.875979,4589.276840,-1110.308913,-9882.631924
871.876300,3997.112087,-1850.514855,-10648.727422
871.876620,1628.453072,-1184.329507,-10418.898773
871.876940,-1110.308913,592.164754,-10418.898773
871.877260,-2960.823768,3478.967927,-9882.631924
871.877580,-2886.803174,962.267725,-10112.460574
871.877901,-2146.597232,-370.102971,-9729.412825
871.878221,-2072.576638,-1850.514855,-9806.022374
871.878541,0.000000,-2146.597232,-10725.336972
871.878861,2072.576638,-2516.700203,-9882.631924
871.879182,814.226536,-74.020594,-10418.898773
871.879502,296.082377,2886.803174,-10112.460574
871.879822,0.000000,4811.338623,-9959.241474
871.880142,666.185348,4071.132681,-11568.042020
871.880462,1110.308913,1184.329507,-10035.851024
871.880783,74.020594,-592.164754,-10648.727422
871.881103,-1184.329507,-1406.391290,-9652.803275
871.881423,-1554.432478,-1776.494261,-9806.022374
871.881743,-1628.453072,-1776.494261,-9499.584175
871.882064,-1776.494261,-1702.473667,-10035.851024
871.882384,-1258.350101,-888.247130,-10112.460574
871.882704,-888.247130,1554.432478,-9959.241474
871.883024,-1480.411884,3330.926739,-10418.898773
871.883344,-148.041188,2590.720797,-10495.508323
871.883665,1110.308913,-296.082377,-10189.070123
871.883985,1554.432478,-3034.844362,-9729.412825
871.884305,1628.453072,-2516.700203,-10189.070123
871.884625,0.000000,-1924.535449,-9806.022374
871.884945,-666.185348,740.205942,-10801.946522
871.885266,-1036.288319,2516.700203,-10418.898773
871.885586,0.000000,2442.679609,-10495.508323
871.885906,-1184.329507,888.247130,-10342.289223
871.886226,-2812.782580,-1924.535449,-9806.022374
871.886547,-1406.391290,-2886.803174,-9576.193725
871.886867,666.185348,-2072.576638,-10265.679673
871.887187,3478.967927,-592.164754,-9652.803275
871.887507,4219.173869,370.102971,-9806.022374
871.887827,3182.885551,1036.288319,-10495.508323
871.888148,1998.556043,1258.350101,-10265.679673
871.888468,-148.041188,1850.514855,-10189.070123
871.888788,148.041188,2664.741391,-10112.460574
871.889108,-740.205942,1258.350101,-9729.412825
871.889429,-666.185348,-1776.494261,-9959.241474
871.889749,592.164754,-3997.112087,-9346.365076
871.890069,1702.473667,-2812.782580,-9652.803275
871.890389,2146.597232,222.061783,-9806.022374
871.890709,2960.823768,3552.988522,-10418.898773
871.891030,2960.823768,3182.885551,-9806.022374
871.891350,962.267725,1184.329507,-9806.022374
871.891670,0.000000,-444.123565,-9422.974625
871.891990,2664.741391,-1332.370696,-9729.412825
871.892310,3775.050304,-1702.473667,-9499.584175
871.892631,1258.350101,-444.123565,-10035.851024
871.892951,0.000000,1258.350101,-10112.460574
871.893271,-962.267725,1258.350101,-9652.803275
871.893591,-2146.597232,740.205942,-9806.022374
871.893912,0.000000,-814.226536,-10112.460574
871.894232,1554.432478,0.000000,-9882.631924
871.894552,518.144159,1924.535449,-10725.336972
871.894872,-74.020594,962.267725,-9882.631924
871.895192,148.041188,296.082377,-9729.412825
871.895513,-814.226536,296.082377,-10035.851024
871.895833,-1036.288319,-1332.370696,-10189.070123
871.896153,518.144159,0.000000,-10418.898773
871.896473,1258.350101,962.267725,-9882.631924
871.896794,1850.514855,962.267725,-10572.117872
871.897114,1924.535449,2516.700203,-9499.584175
871.897434,444.123565,2220.617826,-10955.165621
871.897754,888.247130,1258.350101,-10725.336972
871.898074,666.185348,962.267725,-10418.898773
871.898395,-740.205942,296.082377,-10495.508323
871.898715,-1110.308913,518.144159,-9882.631924
871.899035,0.000000,-962.267725,-9882.631924
871.899355,1406.391290,-888.247130,-10572.117872
871.899675,1332.370696,2072.576638,-10265.679673
871.899996,222.061783,3923.091493,-11721.261119
871.900316,-444.123565,3478.967927,-10648.727422
871.900636,0.000000,2812.782580,-10495.508323
871.900956,592.164754,962.267725,-10189.070123
871.901277,518.144159,74.020594,-9269.755526
871.901597,-740.205942,-1924.535449,-10035.851024
871.901917,148.041188,-1702.473667,-9346.365076
871.902237,1036.288319,-962.267725,-10189.070123
871.902557,1332.370696,0.000000,-9039.926876
871.902878,1184.329507,-962.267725,-9882.631924
871.903198,1628.453072,222.061783,-10342.289223
871.903518,518.144159,2072.576638,-10189.070123
871.903838,370.102971,3775.050304,-10495.508323
871.904159,-1924.535449,3034.844362,-9729.412825
871.904479,-518.144159,2664.741391,-10495.508323
871.904799,888.247130,1776.494261,-9652.803275
871.905119,444.123565,-2442.679609,-10189.070123
871.905439,1406.391290,-3849.070898,-9729.412825
871.905760,370.102971,-4219.173869,-9576.193725
871.906080,370.102971,0.000000,-10035.851024
871.906400,148.041188,3775.050304,-10265.679673
871.906720,296.082377,5033.400406,-10955.165621
871.907040,592.164754,4071.132681,-9882.631924
871.907361,444.123565,1850.514855,-10189.070123
871.907681,518.144159,-1184.329507,-10342.289223
871.908001,1702.473667,-1332.370696,-9729.412825
871.908321,1850.514855,-888.247130,-9652.803275
871.908642,2516.700203,-1480.411884,-9806.022374
871.908962,2812.782580,-1406.391290,-9499.584175
871.909282,740.205942,74.020594,-10342.289223
871.909602,-1776.494261,3182.885551,-10495.508323
871.909922,-1480.411884,4515.256246,-10572.117872
871.910243,-1110.308913,3627.009116,-9959.241474
871.910563,-148.041188,1554.432478,-9806.022374
871.910883,2516.700203,-1998.556043,-9576.193725
871.911203,3330.926739,-4145.153275,-9806.022374
871.911524,2738.761985,-2738.761985,-9729.412825
871.911844,2072.576638,-962.267725,-9499.584175
871.912164,592.164754,2442.679609,-9806.022374
871.912484,518.144159,4663.297435,-9806.022374
871.912804,-370.102971,2072.576638,-9882.631924
871.913125,-740.205942,-444.123565,-10418.898773
871.913445,296.082377,-370.102971,-10112.460574
871.913765,0.000000,-888.247130,-10572.117872
871.914085,1628.453072,-296.082377,-9729.412825
871.914405,2812.782580,-1702.473667,-9806.022374
871.914726,1480.411884,-888.247130,-10189.070123
871.915046,518.144159,296.082377,-10801.946522
871.915366,-888.247130,2886.803174,-10418.898773
871.915686,-1850.514855,3182.885551,-9652.803275
871.916007,-740.205942,1776.494261,-10418.898773
871.916327,1628.453072,-814.226536,-10189.070123
871.916647,2664.741391,-3627.009116,-10495.508323
871.916967,1998.556043,-2294.638420,-10189.070123
871.917287,1110.308913,-740.205942,-9882.631924
871.917608,-370.102971,1998.556043,-10648.727422
871.917928,-2516.700203,2590.720797,-9576.193725
871.918248,-1554.432478,1258.350101,-10495.508323
871.918568,-444.123565,-1480.411884,-9959.241474
871.918889,-592.164754,-2738.761985,-10112.460574
871.919209,518.144159,-1554.432478,-9806.022374
871.919529,592.164754,666.185348,-10189.070123
871.919849,2368.659014,3256.906145,-11184.994271
871.920169,3330.926739,2886.803174,-9882.631924
871.920490,2664.741391,1258.350101,-9959.241474
871.920810,1702.473667,-592.164754,-10035.851024
871.921130,-1184.329507,-1406.391290,-9346.365076
871.921450,-2072.576638,-962.267725,-10572.117872
871.921770,-1702.473667,-444.123565,-9269.755526
871.922091,-740.205942,-1554.432478,-9806.022374
871.922411,0.000000,-2294.638420,-9806.022374
871.922731,-1110.308913,-2220.617826,-9652.803275
871.923051,-1776.494261,-296.082377,-10342.289223
871.923372,0.000000,2146.597232,-10189.070123
871.923692,-666.185348,3701.029710,-10572.117872
871.924012,1036.288319,1998.556043,-10265.679673
871.924332,1036.288319,-1998.556043,-9882.631924
871.924652,1480.411884,-4219.173869,-10112.460574
871.924973,1406.391290,-2442.679609,-9882.631924
871.925293,518.144159,1110.308913,-10112.460574
871.925613,592.164754,3849.070898,-10112.460574
871.925933,518.144159,4441.235652,-10572.117872
871.926254,0.000000,2220.617826,-10342.289223
871.926574,-814.226536,1258.350101,-10189.070123
871.926894,-1850.514855,-888.247130,-10112.460574
871.927214,0.000000,-962.267725,-9882.631924
871.927534,1702.473667,444.123565,-9959.241474
871.927855,2812.782580,1110.308913,-9959.241474
871.928175,3256.906145,740.205942,-9959.241474
871.928495,2294.638420,2072.576638,-9882.631924
871.928815,814.226536,2886.803174,-10648.727422
871.929135,148.041188,3404.947333,-10342.289223
871.929456,74.020594,2960.823768,-9882.631924
871.929776,814.226536,814.226536,-10801.946522
871.930096,888.247130,-2442.679609,-9652.803275
871.930416,962.267725,-4293.194464,-9346.365076
871.930737,2960.823768,-3108.864956,-9806.022374
871.931057,2368.659014,2442.679609,-9806.022374
871.931377,4367.215058,5181.441594,-11874.480219
871.931697,4663.297435,5773.606348,-10648.727422
871.932017,3478.967927,2960.823768,-10572.117872
871.932338,1480.411884,148.041188,-9806.022374
871.932658,-518.144159,-2368.659014,-9959.241474
871.932978,-1184.329507,-2220.617826,-9882.631924
871.933298,-1258.350101,-222.061783,-10035.851024
871.933619,0.000000,888.247130,-9959.241474
871.933939,-370.102971,1036.288319,-10112.460574
871.934259,-666.185348,-296.082377,-9422.974625
871.934579,-1184.329507,-296.082377,-9959.241474
871.934899,-1258.350101,74.020594,-10189.070123
871.935220,-444.123565,1702.473667,-9652.803275
871.935540,1406.391290,1480.411884,-10112.460574
871.935860,3108.864956,-592.164754,-9806.022374
871.936180,2960.823768,-1332.370696,-10189.070123
871.936500,1924.535449,-888.247130,-10418.898773
871.936821,814.226536,962.267725,-10418.898773
871.937141,-222.061783,2886.803174,-10035.851024
871.937461,-296.082377,2590.720797,-10189.070123
871.937781,-592.164754,740.205942,-10342.289223
871.938101,-1110.308913,-1702.473667,-9882.631924
871.938421,-2220.617826,-2368.659014,-10112.460574
871.938742,-2442.679609,-2146.597232,-9806.022374
871.939062,-1554.432478,-962.267725,-9959.241474
871.939382,-962.267725,296.082377,-9959.241474
871.939702,0.000000,0.000000,-10035.851024
871.940022,888.247130,148.041188,-10265.679673
871.940342,1406.391290,-444.123565,-10801.946522
871.940663,370.102971,-296.082377,-10495.508323
871.940983,-1406.391290,148.041188,-10418.898773
871.941303,-1036.288319,740.205942,-10035.851024
871.941623,148.041188,222.061783,-9959.241474
871.941943,1406.391290,-222.061783,-10265.679673
871.942263,1110.308913,0.000000,-10418.898773
871.942583,148.041188,296.082377,-10801.946522
871.942904,-666.185348,0.000000,-9806.022374
871.943224,-1776.494261,-740.205942,-9652.803275
871.943544,-1850.514855,-3034.844362,-9039.926876
871.943864,370.102971,-3923.091493,-9422.974625
871.944184,1110.308913,-2516.700203,-10878.556072
871.944504,2220.617826,370.102971,-11031.775171
871.944825,1184.329507,3478.967927,-10418.898773
871.945145,74.020594,5403.503377,-11261.603821
871.945465,1332.370696,4663.297435,-10955.165621
871.945785,2146.597232,1850.514855,-10342.289223
871.946105,1628.453072,-370.102971,-10342.289223
871.946425,222.061783,-2220.617826,-9729.412825
871.946745,-740.205942,-1998.556043,-9652.803275
871.947066,148.041188,-1628.453072,-9576.193725
871.947386,1776.494261,-296.082377,-10112.460574
871.947706,1554.432478,444.123565,-10112.460574
871.948026,2072.576638,888.247130,-10265.679673
871.948346,1554.432478,2072.576638,-10035.851024
871.948666,1628.453072,3478.967927,-10035.851024
871.948987,1998.556043,2294.638420,-10035.851024
871.949307,3182.885551,-592.164754,-9806.022374
871.949627,1998.556043,-3997.112087,-9193.145976
871.949947,1850.514855,-3701.029710,-8886.707777
871.950267,0.000000,-2368.659014,-9652.803275
871.950587,-444.123565,1184.329507,-9576.193725
871.950907,0.000000,4441.235652,-9806.022374
871.951228,1702.473667,2960.823768,-9882.631924
871.951548,1036.288319,1406.391290,-9806.022374
871.951868,222.061783,74.020594,-10342.289223
871.952188,1036.288319,0.000000,-9959.241474
871.952508,1998.556043,148.041188,-9806.022374
871.952828,1406.391290,518.144159,-10112.460574
871.953149,888.247130,1036.288319,-10189.070123
871.953469,370.102971,296.082377,-10342.289223
871.953789,0.000000,1036.288319,-10648.727422
871.954109,296.082377,1998.556043,-10035.851024
871.954429,148.041188,1924.535449,-10725.336972
871.954749,-666.185348,1332.370696,-10189.070123
871.955069,-444.123565,444.123565,-10189.070123
871.955390,-666.185348,-296.082377,-10648.727422
871.955710,0.000000,0.000000,-10189.070123
871.956030,-370.102971,1628.453072,-10495.508323
871.956350,222.061783,2442.679609,-10725.336972
871.956670,1332.370696,3034.844362,-10342.289223
871.956990,2368.659014,962.267725,-10342.289223
871.957311,1332.370696,-296.082377,-9882.631924
871.957631,370.102971,-1332.370696,-9959.241474
871.957951,-1184.329507,-296.082377,-9806.022374
871.958271,-1554.432478,814.226536,-10112.460574
871.958591,-1406.391290,2220.617826,-9652.803275
871.958911,-518.144159,1702.473667,-9499.584175
871.959231,1110.308913,-666.185348,-9882.631924
871.959552,2294.638420,-1924.535449,-9499.584175
871.959872,148.041188,-2664.741391,-9422.974625
871.960192,-1332.370696,-2590.720797,-9116.536426
871.960512,-1850.514855,-1110.308913,-9346.365076
871.960832,-592.164754,222.061783,-9652.803275
871.961152,518.144159,1258.350101,-9882.631924
871.961473,0.000000,1406.391290,-10495.508323
871.961793,0.000000,148.041188,-10418.898773
871.962113,-370.102971,-814.226536,-9882.631924
871.962433,74.020594,-888.247130,-10035.851024
871.962753,370.102971,-296.082377,-9882.631924
871.963073,962.267725,0.000000,-10342.289223
871.963393,1036.288319,74.020594,-10572.117872
871.963714,0.000000,444.123565,-10495.508323
871.964034,-592.164754,1480.411884,-9499.584175
871.964354,-370.102971,2664.741391,-10495.508323
871.964674,0.000000,2294.638420,-10418.898773
871.964994,740.205942,296.082377,-10572.117872
871.965314,1258.350101,-2294.638420,-10495.508323
871.965635,1406.391290,-3330.926739,-10189.070123
871.965955,370.102971,-2146.597232,-9882.631924
871.966275,0.000000,1480.411884,-10189.070123
871.966595,148.041188,3404.947333,-10648.727422
871.966915,1406.391290,2516.700203,-10418.898773
871.967235,962.267725,666.185348,-9959.241474
871.967555,1406.391290,-1184.329507,-10189.070123
871.967876,1924.535449,-2368.659014,-9806.022374
871.968196,1480.411884,-1184.329507,-9806.022374
871.968516,740.205942,222.061783,-10265.679673
871.968836,1258.350101,444.123565,-9806.022374
871.969156,814.226536,-74.020594,-9959.241474
871.969476,888.247130,-740.205942,-9882.631924
871.969797,370.102971,-296.082377,-9576.193725
871.970117,592.164754,666.185348,-10112.460574
871.970437,1332.370696,2368.659014,-9959.241474
871.970757,1110.308913,1406.391290,-10572.117872
871.971077,1554.432478,-296.082377,-9346.365076
871.971397,0.000000,-962.267725,-10495.508323
871.971717,-666.185348,-1258.350101,-9959.241474
871.972038,-888.247130,0.000000,-9576.193725
871.972358,74.020594,666.185348,-9806.022374
871.972678,1628.453072,666.185348,-11031.775171
871.972998,1850.514855,-1036.288319,-10112.460574
871.973318,1924.535449,-888.247130,-10112.460574
871.973638,222.061783,0.000000,-10112.460574
871.973959,-814.226536,1924.535449,-10342.289223
871.974279,-592.164754,2294.638420,-10418.898773
871.974599,962.267725,518.144159,-10265.679673
871.974919,1480.411884,-1036.288319,-10418.898773
871.975239,1406.391290,-1036.288319,-10112.460574
871.975559,666.185348,-666.185348,-10801.946522
871.975879,-222.061783,1332.370696,-10572.117872
871.976200,0.000000,2146.597232,-10495.508323
871.976520,-444.123565,1258.350101,-10648.727422
871.976840,-1480.411884,-518.144159,-9959.241474
871.977160,-962.267725,-2220.617826,-9959.241474
871.977480,1036.288319,-1702.473667,-10342.289223
871.977800,1406.391290,370.102971,-10265.679673
871.978121,2738.761985,2516.700203,-10035.851024
871.978441,962.267725,3552.988522,-10342.289223
871.978761,1110.308913,1850.514855,-10495.508323
871.979081,-592.164754,-296.082377,-9652.803275
871.979401,-296.082377,-1776.494261,-9882.631924
871.979721,-962.267725,-1998.556043,-9346.365076
871.980041,-814.226536,-1628.453072,-9422.974625
871.980362,-1110.308913,-1776.494261,-9652.803275
871.980682,-1776.494261,-666.185348,-9346.365076
871.981002,-518.144159,518.144159,-10112.460574
871.981322,-740.205942,1258.350101,-11108.384721
871.981642,74.020594,1258.350101,-9652.803275
871.981962,888.247130,1480.411884,-9806.022374
871.982283,1998.556043,518.144159,-10189.070123
871.982603,1702.473667,-666.185348,-10725.336972
871.982923,-592.164754,-1480.411884,-10878.556072
871.983243,-2220.617826,-1184.329507,-10495.508323
871.983563,0.000000,-222.061783,-10418.898773
871.983883,1406.391290,962.267725,-10725.336972
871.984203,1036.288319,1998.556043,-10955.165621
871.984524,148.041188,2516.700203,-11108.384721
871.984844,-148.041188,2960.823768,-11031.775171
871.985164,148.041188,3849.070898,-11414.822920
871.985484,2294.638420,2294.638420,-11261.603821
871.985804,1998.556043,2220.617826,-10878.556072
871.986124,2294.638420,-592.164754,-10725.336972
871.986445,1480.411884,-1998.556043,-9806.022374
871.986765,518.144159,-592.164754,-9959.241474
871.987085,370.102971,1036.288319,-10112.460574
871.987405,962.267725,2368.659014,-9959.241474
871.987725,2220.617826,2220.617826,-9806.022374
871.988045,3034.844362,296.082377,-9806.022374
871.988365,2368.659014,-1554.432478,-9422.974625
871.988686,740.205942,-2220.617826,-9116.536426
871.989006,0.000000,-2146.597232,-9269.755526
871.989326,1776.494261,-2146.597232,-8503.660028
871.989646,2590.720797,-1332.370696,-8963.317327
871.989966,1332.370696,-740.205942,-9269.755526
871.990286,0.000000,-592.164754,-8810.098227
871.990607,-1480.411884,444.123565,-9346.365076
871.990927,-740.205942,1998.556043,-10112.460574
871.991247,888.247130,2590.720797,-9806.022374
871.991567,1258.350101,1110.308913,-9882.631924
871.991887,1850.514855,-1036.288319,-9882.631924
871.992207,296.082377,-3330.926739,-10035.851024
871.992527,-592.164754,-3627.009116,-9652.803275
871.992848,-1406.391290,-1110.308913,-9959.241474
871.993168,74.020594,1776.494261,-10878.556072
871.993488,2368.659014,4959.379811,-11338.213370
871.993808,1702.473667,4293.194464,-11491.432470
871.994128,1776.494261,814.226536,-11031.775171
871.994448,74.020594,370.102971,-11184.994271
871.994769,-814.226536,-1258.350101,-11261.603821
871.995089,-666.185348,-1924.535449,-10342.289223
871.995409,0.000000,-1406.391290,-10801.946522
871.995729,444.123565,-444.123565,-11108.384721
871.996049,-740.205942,222.061783,-11491.432470
871.996369,-1332.370696,888.247130,-11108.384721
871.996689,-2442.679609,3182.885551,-11031.775171
871.997010,-2220.617826,4367.215058,-10189.070123
871.997330,-1702.473667,4515.256246,-10112.460574
871.997650,0.000000,1702.473667,-10342.289223
871.997970,2368.659014,-2590.720797,-9576.193725
871.998290,2812.782580,-5921.647536,-7737.564530
871.998610,1924.535449,-6143.709319,-8733.488677
871.998931,592.164754,-4737.318029,-8197.221829
871.999251,0.000000,-296.082377,-8733.488677
871.999571,-1184.329507,1480.411884,-9269.755526
871.999891,74.020594,1998.556043,-8427.050478
872.000211,-370.102971,0.000000,-9346.365076
872.000531,-1036.288319,-1480.411884,-9116.536426
872.000852,-1110.308913,-1850.514855,-9499.584175
872.001172,-1850.514855,-1406.391290,-9269.755526
872.001492,-1184.329507,-2072.576638,-9269.755526
872.001812,-518.144159,-2442.679609,-9422.974625
872.002132,1110.308913,-1406.391290,-9806.022374
872.002452,1184.329507,740.205942,-10801.946522
872.002772,814.226536,2960.823768,-11031.775171
872.003093,666.185348,3701.029710,-10801.946522
872.003413,666.185348,3108.864956,-11031.775171
872.003733,1258.350101,888.247130,-10955.165621
872.004053,222.061783,222.061783,-10878.556072
872.004373,-222.061783,-1554.432478,-10648.727422
872.004693,222.061783,0.000000,-11031.775171
872.005014,-444.123565,1258.350101,-10878.556072
872.005334,2664.741391,2590.720797,-11338.213370
872.005654,3478.967927,1554.432478,-10801.946522
872.005974,2220.617826,1332.370696,-10801.946522
872.006294,666.185348,2294.638420,-11184.994271
872.006614,0.000000,1480.411884,-10572.117872
872.006934,666.185348,1036.288319,-10189.070123
872.007255,1850.514855,0.000000,-9806.022374
872.007575,3256.906145,-1332.370696,-9729.412825
872.007895,3478.967927,-148.041188,-9959.241474
872.008215,1406.391290,1406.391290,-9959.241474
872.008535,1480.411884,2294.638420,-9499.584175
872.008855,888.247130,2664.741391,-9269.755526
872.009176,3849.070898,1406.391290,-9346.365076
872.009496,2960.823768,-1110.308913,-9729.412825
872.009816,370.102971,-3404.947333,-8350.440928
872.010136,296.082377,-2442.679609,-9039.926876
872.010456,1702.473667,74.020594,-9193.145976
872.010776,370.102971,3330.926739,-9193.145976
872.011096,0.000000,4737.318029,-9882.631924
872.011417,444.123565,888.247130,-9652.803275
872.011737,2294.638420,-1332.370696,-9959.241474
872.012057,-222.061783,-1184.329507,-9806.022374
872.012377,-1554.432478,74.020594,-9806.022374
872.012697,-1110.308913,1776.494261,-9959.241474
872.013017,1110.308913,1850.514855,-10801.946522
872.013338,1998.556043,0.000000,-10495.508323
872.013658,444.123565,-1406.391290,-10418.898773
872.013978,-1184.329507,-814.226536,-10648.727422
872.014298,-1036.288319,444.123565,-11108.384721
872.014618,-962.267725,3478.967927,-11338.213370
872.014938,-2072.576638,3923.091493,-10955.165621
872.015258,-1628.453072,1258.350101,-10801.946522
872.015579,-814.226536,-592.164754,-10878.556072
872.015899,-1776.494261,-888.247130,-11184.994271
872.016219,-1554.432478,-888.247130,-10878.556072
872.016539,0.000000,74.020594,-10495.508323
872.016859,1036.288319,1554.432478,-9959.241474
872.017179,962.267725,962.267725,-10418.898773
872.017500,370.102971,666.185348,-10265.679673
872.017820,-1702.473667,518.144159,-10189.070123
872.018140,-1776.494261,0.000000,-10189.070123
872.018460,0.000000,74.020594,-9499.584175
872.018780,1110.308913,-296.082377,-9729.412825
872.019100,2294.638420,-1480.411884,-9729.412825
872.019420,888.247130,-2146.597232,-9116.536426
872.019741,-888.247130,-740.205942,-8886.707777
872.020061,-592.164754,888.247130,-9806.022374
872.020381,-740.205942,1258.350101,-9882.631924
872.020701,-296.082377,592.164754,-9652.803275
872.021021,148.041188,-1850.514855,-9422.974625
872.021341,888.247130,-3330.926739,-9422.974625
872.021662,1628.453072,-3182.885551,-9576.193725
872.021982,1998.556043,-1924.535449,-9806.022374
872.022302,2590.720797,444.123565,-10189.070123
872.022622,592.164754,3182.885551,-10342.289223
872.022942,2368.659014,2516.700203,-10265.679673
872.023262,1850.514855,814.226536,-11031.775171
872.023582,1850.514855,222.061783,-11414.822920
872.023903,814.226536,-370.102971,-11108.384721
872.024223,-2220.617826,1258.350101,-10648.727422
872.024543,-2442.679609,2368.659014,-10572.117872
872.024863,370.102971,1850.514855,-10725.336972
872.025183,2664.741391,-296.082377,-10955.165621
872.025503,1850.514855,1554.432478,-11261.603821
872.025824,1480.411884,2146.597232,-10955.165621
872.026144,1924.535449,3552.988522,-10342.289223
872.026464,1406.391290,2590.720797,-10112.460574
872.026784,1332.370696,814.226536,-9806.022374
872.027104,1924.535449,-1850.514855,-9576.193725
872.027424,1406.391290,-1924.535449,-9422.974625
872.027744,1554.432478,0.000000,-10265.679673
872.028065,814.226536,1628.453072,-9499.584175
872.028385,370.102971,3552.988522,-10648.727422
872.028705,518.144159,1258.350101,-9806.022374
872.029025,148.041188,-1480.411884,-8963.317327
872.029345,592.164754,-3108.864956,-9346.365076
872.029665,1258.350101,-1924.535449,-8350.440928
872.029986,-666.185348,0.000000,-9422.974625
872.030306,-1628.453072,2072.576638,-9576.193725
872.030626,0.000000,666.185348,-9499.584175
872.030946,1480.411884,-1480.411884,-9269.755526
872.031266,1776.494261,-666.185348,-9729.412825
872.031586,1184.329507,444.123565,-10112.460574
872.031906,1332.370696,2220.617826,-10418.898773
872.032227,1628.453072,3849.070898,-10648.727422
872.032547,1110.308913,2146.597232,-11644.651570
872.032867,222.061783,-2442.679609,-10265.679673
872.033187,-1332.370696,-3552.988522,-10418.898773
872.033507,-1258.350101,-1850.514855,-11031.775171
872.033827,-518.144159,2368.659014,-11414.822920
872.034148,-666.185348,5181.441594,-12257.527968
872.034468,888.247130,4663.297435,-11568.042020
872.034788,2072.576638,2738.761985,-11261.603821
872.035108,296.082377,74.020594,-11031.775171
872.035428,-814.226536,296.082377,-10955.165621
872.035748,-1036.288319,-666.185348,-11108.384721
872.036068,-592.164754,888.247130,-10035.851024
872.036388,0.000000,1036.288319,-9806.022374
872.036708,1184.329507,-518.144159,-9499.584175
872.037028,1850.514855,-888.247130,-9882.631924
872.037348,592.164754,-740.205942,-10035.851024
872.037668,370.102971,-962.267725,-9806.022374
872.037988,-222.061783,-1406.391290,-8886.707777
872.038308,-370.102971,-2220.617826,-8427.050478
872.038628,-296.082377,-3256.906145,-8580.269578
872.038948,0.000000,-2516.700203,-9193.145976
872.039268,592.164754,0.000000,-9806.022374
872.039588,962.267725,2368.659014,-10035.851024
872.039907,296.082377,3108.864956,-9806.022374
872.040227,222.061783,1628.453072,-9422.974625
872.040547,74.020594,-1184.329507,-9422.974625
872.040867,0.000000,-3182.885551,-9806.022374
872.041187,-1036.288319,-2516.700203,-8963.317327
872.041507,-1184.329507,-1332.370696,-9806.022374
872.041827,-888.247130,666.185348,-10418.898773
872.042147,370.102971,2220.617826,-10342.289223
872.042467,1036.288319,1406.391290,-10495.508323
872.042787,1702.473667,1036.288319,-10801.946522
872.043107,1628.453072,1036.288319,-11261.603821
872.043427,1258.350101,814.226536,-11031.775171
872.043747,1480.411884,2072.576638,-10265.679673
872.044067,-444.123565,1480.411884,-11184.994271
872.044386,-148.041188,0.000000,-10342.289223
872.044706,0.000000,-1110.308913,-10189.070123
872.045026,1332.370696,-1258.350101,-10725.336972
872.045346,1776.494261,0.000000,-11261.603821
872.045666,740.205942,2220.617826,-9959.241474
872.045986,370.102971,2738.761985,-10878.556072
872.046306,-148.041188,1480.411884,-10035.851024
872.046626,2516.700203,888.247130,-9269.755526
872.046946,2294.638420,-592.164754,-10265.679673
872.047266,1554.432478,-444.123565,-9806.022374
872.047586,1184.329507,370.102971,-9729.412825
872.047906,2220.617826,1332.370696,-9729.412825
872.048226,3034.844362,444.123565,-9193.145976
872.048546,2738.761985,-740.205942,-9499.584175
872.048866,2220.617826,-666.185348,-9193.145976
872.049185,518.144159,0.000000,-9499.584175
872.049505,-1110.308913,1036.288319,-9652.803275
872.049825,-2812.782580,1480.411884,-9499.584175
872.050145,-3034.844362,518.144159,-9269.755526
872.050465,222.061783,-1036.288319,-9499.584175
872.050785,2590.720797,-1406.391290,-10265.679673
872.051105,3330.926739,-222.061783,-9499.584175
872.051425,1702.473667,1332.370696,-10189.070123
872.051745,222.061783,3256.906145,-10418.898773
872.052065,1406.391290,3775.050304,-10955.165621
872.052385,1406.391290,2442.679609,-10572.117872
872.052705,1110.308913,592.164754,-11031.775171
872.053025,518.144159,-370.102971,-10801.946522
872.053345,0.000000,-518.144159,-10035.851024
872.053665,-148.041188,444.123565,-10878.556072
872.053984,-296.082377,1776.494261,-10572.117872
872.054304,-740.205942,296.082377,-10418.898773
872.054624,-814.226536,444.123565,-10418.898773
872.054944,-296.082377,1110.308913,-10572.117872
872.055264,-1184.329507,1332.370696,-10725.336972
872.055584,-1110.308913,1406.391290,-10189.070123
872.055904,592.164754,-814.226536,-10112.460574
872.056224,2368.659014,-1406.391290,-9959.241474
872.056544,1036.288319,-962.267725,-10189.070123
872.056864,222.061783,-740.205942,-10342.289223
872.057184,-1480.411884,1554.432478,-9806.022374
872.057504,-1702.473667,2368.659014,-10418.898773
872.057824,-1036.288319,962.267725,-9269.755526
872.058144,74.020594,-2220.617826,-9346.365076
872.058463,-296.082377,-2368.659014,-9729.412825
872.058783,-222.061783,-2072.576638,-9576.193725
872.059103,222.061783,518.144159,-9806.022374
872.059423,296.082377,2368.659014,-9422.974625
872.059743,444.123565,2368.659014,-9039.926876
872.060063,-148.041188,296.082377,-9882.631924
872.060383,-296.082377,-1702.473667,-10035.851024
872.060703,-1332.370696,-2146.597232,-9576.193725
872.061023,-1776.494261,-1406.391290,-8580.269578
872.061343,-1628.453072,148.041188,-10112.460574
872.061663,518.144159,-740.205942,-10112.460574
872.061983,1776.494261,-814.226536,-10342.289223
872.062303,1924.535449,-296.082377,-10418.898773
872.062623,2590.720797,1480.411884,-11031.775171
872.062943,2812.782580,3478.967927,-11338.213370
872.063262,2146.597232,4367.215058,-10955.165621
872.063582,888.247130,2812.782580,-11184.994271
872.063902,444.123565,962.267725,-10572.117872
872.064222,370.102971,-1924.535449,-10418.898773
872.064542,1184.329507,-1702.473667,-10878.556072
872.064862,1406.391290,148.041188,-10648.727422
872.065182,1110.308913,2516.700203,-11261.603821
872.065502,1258.350101,3330.926739,-10572.117872
872.065822,1110.308913,1110.308913,-9576.193725
872.066142,296.082377,-814.226536,-9806.022374
872.066462,1184.329507,-1776.494261,-9499.584175
872.066782,1258.350101,-1110.308913,-9193.145976
872.067102,1480.411884,1036.288319,-9576.193725
872.067422,3256.906145,2294.638420,-9576.193725
872.067742,3330.926739,1702.473667,-9806.022374
872.068061,2220.617826,1036.288319,-9806.022374
872.068381,148.041188,222.061783,-9652.803275
872.068701,-1036.288319,-1036.288319,-9269.755526
872.069021,-1332.370696,222.061783,-9499.584175
872.069341,-1036.288319,-518.144159,-9729.412825
872.069661,1184.329507,-1110.308913,-9652.803275
872.069981,1480.411884,-1036.288319,-9652.803275
872.070301,740.205942,0.000000,-10418.898773
872.070621,0.000000,814.226536,-10112.460574
872.070941,-814.226536,2442.679609,-10189.070123
872.071261,-370.102971,3478.967927,-10801.946522
872.071581,-296.082377,1998.556043,-10265.679673
872.071901,814.226536,0.000000,-10725.336972
872.072221,1628.453072,-2072.576638,-10572.117872
872.072541,666.185348,-1480.411884,-10342.289223
872.072860,-370.102971,0.000000,-10572.117872
872.073180,-1110.308913,1998.556043,-10801.946522
872.073500,-296.082377,2812.782580,-10801.946522
872.073820,74.020594,3108.864956,-11491.432470
872.074140,888.247130,1406.391290,-11031.775171
872.074460,1110.308913,74.020594,-10495.508323
872.074780,74.020594,296.082377,-10495.508323
872.075100,-370.102971,444.123565,-10418.898773
872.075420,0.000000,-148.041188,-10342.289223
872.075740,1184.329507,-1554.432478,-9806.022374
872.076060,2294.638420,-666.185348,-10035.851024
872.076380,666.185348,1110.308913,-10265.679673
872.076700,-1998.556043,3923.091493,-9882.631924
872.077020,-2146.597232,4219.173869,-9729.412825
872.077339,1184.329507,1332.370696,-9576.193725
872.077659,2886.803174,-1258.350101,-9346.365076
872.077979,1258.350101,-3997.112087,-9193.145976
872.078299,-1110.308913,-4367.215058,-8963.317327
872.078619,-1332.370696,-1554.432478,-9576.193725
872.078939,-1332.370696,1036.288319,-9806.022374
872.079259,-1480.411884,2886.803174,-9652.803275
872.079579,-1776.494261,2516.700203,-9576.193725
872.079899,-1184.329507,740.205942,-9959.241474
872.080219,-296.082377,-1036.288319,-9959.241474
872.080539,666.185348,-2368.659014,-10189.070123
872.080859,592.164754,-1998.556043,-10112.460574
872.081179,74.020594,-2294.638420,-10112.460574
872.081499,740.205942,-1850.514855,-10495.508323
872.081819,444.123565,-814.226536,-10725.336972
872.082138,666.185348,1702.473667,-10801.946522
872.082458,-148.041188,3997.112087,-10495.508323
872.082778,592.164754,4441.235652,-11184.994271
872.083098,1258.350101,1924.535449,-10801.946522
872.083418,3256.906145,-962.267725,-10495.508323
872.083738,2072.576638,-2738.761985,-10495.508323
872.084058,2146.597232,-3256.906145,-9959.241474
872.084378,1184.329507,-518.144159,-10495.508323
872.084698,370.102971,2294.638420,-10342.289223
872.085018,-148.041188,4071.132681,-10112.460574
872.085338,592.164754,3627.009116,-10265.679673
872.085658,1702.473667,2442.679609,-10495.508323
872.085978,2442.679609,0.000000,-10035.851024
872.086298,1776.494261,-1110.308913,-10189.070123
872.086618,1036.288319,-740.205942,-9422.974625
872.086937,1480.411884,-444.123565,-9499.584175
872.087257,888.247130,-444.123565,-9576.193725
872.087577,74.020594,74.020594,-9576.193725
872.087897,740.205942,0.000000,-9499.584175
872.088217,1776.494261,1332.370696,-9576.193725
872.088537,2664.741391,1480.411884,-10342.289223
872.088857,2220.617826,0.000000,-9959.241474
872.089177,740.205942,-814.226536,-9499.584175
872.089497,-666.185348,0.000000,-9959.241474
872.089817,-962.267725,0.000000,-9882.631924
872.090137,0.000000,296.082377,-9882.631924
872.090457,814.226536,592.164754,-10418.898773
872.090777,1036.288319,0.000000,-9959.241474
872.091097,-370.102971,-296.082377,-10189.070123
872.091416,-1110.308913,518.144159,-10725.336972
872.091736,-666.185348,1184.329507,-10342.289223
872.092056,-666.185348,1480.411884,-10648.727422
872.092376,0.000000,740.205942,-11644.651570
872.092696,666.185348,-74.020594,-10801.946522
872.093016,962.267725,-1554.432478,-10418.898773
872.093336,-370.102971,-148.041188,-10725.336972
872.093656,-1924.535449,1554.432478,-11261.603821
872.093976,-1184.329507,3256.906145,-11338.213370
872.094296,-1184.329507,4441.235652,-10801.946522
872.094616,-1406.391290,2960.823768,-11108.384721
872.094936,-148.041188,740.205942,-10342.289223
872.095256,-222.061783,-962.267725,-10265.679673
872.095576,-444.123565,-2146.597232,-9959.241474
872.095896,-740.205942,-2294.638420,-9346.365076
872.096215,0.000000,-1406.391290,-9806.022374
872.096535,-370.102971,444.123565,-9959.241474
872.096855,-1332.370696,1554.432478,-9882.631924
872.097175,-1554.432478,2294.638420,-9882.631924
872.097495,222.061783,2072.576638,-9882.631924
872.097815,0.000000,222.061783,-9729.412825
872.098135,592.164754,-1998.556043,-9729.412825
872.098455,1184.329507,-2590.720797,-9269.755526
872.098775,2738.761985,-2516.700203,-9116.536426
872.099095,3330.926739,-1332.370696,-9806.022374
872.099415,2664.741391,0.000000,-9729.412825
872.099735,962.267725,1184.329507,-10265.679673
872.100055,592.164754,2072.576638,-9806.022374
872.100375,1554.432478,1036.288319,-10189.070123
872.100695,2738.761985,592.164754,-10418.898773
872.101014,2072.576638,148.041188,-10572.117872
872.101334,1036.288319,444.123565,-10955.165621
872.101654,2072.576638,666.185348,-10801.946522
872.101974,1628.453072,1406.391290,-10725.336972
872.102294,1036.288319,1184.329507,-10495.508323
872.102614,0.000000,1628.453072,-10342.289223
872.102934,0.000000,962.267725,-10801.946522
872.103254,74.020594,296.082377,-10035.851024
872.103574,148.041188,74.020594,-10572.117872
872.103894,370.102971,222.061783,-10112.460574
872.104214,74.020594,888.247130,-10189.070123
872.104534,222.061783,518.144159,-10035.851024
872.104854,1110.308913,1184.329507,-10112.460574
872.105174,2590.720797,0.000000,-9422.974625
872.105494,1258.350101,-888.247130,-9576.193725
872.105813,-1406.391290,-888.247130,-9346.365076
872.106133,-1258.350101,-148.041188,-9576.193725
872.106453,74.020594,-222.061783,-9576.193725
872.106773,1628.453072,296.082377,-9576.193725
872.107093,962.267725,962.267725,-9959.241474
872.107413,-222.061783,814.226536,-9729.412825
872.107733,-962.267725,222.061783,-9959.241474
872.108053,-2590.720797,0.000000,-9806.022374
872.108373,-1998.556043,-222.061783,-9959.241474
872.108693,-2368.659014,518.144159,-10418.898773
872.109013,-444.123565,740.205942,-9959.241474
872.109333,888.247130,592.164754,-10035.851024
872.109653,1110.308913,1480.411884,-10035.851024
872.109973,1406.391290,444.123565,-9882.631924
872.110292,2220.617826,-444.123565,-10342.289223
872.110612,3256.906145,-1110.308913,-10342.289223
872.110932,1406.391290,-1850.514855,-10648.727422
872.111252,518.144159,-1406.391290,-9882.631924
872.111572,666.185348,1036.288319,-10265.679673
872.111892,-592.164754,1110.308913,-10878.556072
872.112212,-444.123565,740.205942,-9806.022374
872.112532,74.020594,148.041188,-10418.898773
872.112852,1554.432478,0.000000,-10342.289223
872.113172,592.164754,-222.061783,-10342.289223
872.113492,74.020594,-296.082377,-9882.631924
872.113812,-1258.350101,-370.102971,-9499.584175
872.114132,-1184.329507,-222.061783,-9882.631924
872.114452,0.000000,0.000000,-9806.022374
872.114772,1036.288319,592.164754,-10648.727422
872.115091,592.164754,1184.329507,-10035.851024
872.115411,1184.329507,296.082377,-10112.460574
872.115731,1998.556043,444.123565,-10035.851024
872.116051,2220.617826,518.144159,-10418.898773
872.116371,1036.288319,-296.082377,-10035.851024
872.116691,74.020594,-666.185348,-9652.803275
872.117011,0.000000,-1184.329507,-10112.460574
872.117331,444.123565,-1258.350101,-9499.584175
872.117651,-148.041188,0.000000,-9652.803275
872.117971,-740.205942,1036.288319,-9882.631924
872.118291,-74.020594,0.000000,-10112.460574
872.118611,-444.123565,-518.144159,-10648.727422
872.118931,-814.226536,-814.226536,-10112.460574
872.119251,0.000000,-296.082377,-9806.022374
872.119571,666.185348,814.226536,-10112.460574
872.119890,2368.659014,1480.411884,-10342.289223
872.120210,1406.391290,0.000000,-10112.460574
872.120530,0.000000,-518.144159,-10189.070123
872.120850,222.061783,-740.205942,-10035.851024
872.121170,1998.556043,-814.226536,-10189.070123
872.121490,1332.370696,444.123565,-10572.117872
872.121810,1850.514855,1110.308913,-10342.289223
872.122130,888.247130,592.164754,-9652.803275
872.122450,962.267725,666.185348,-10725.336972
872.122770,74.020594,592.164754,-10265.679673
872.123090,-1776.494261,592.164754,-10189.070123
872.123410,-740.205942,1776.494261,-10035.851024
872.123730,1924.535449,518.144159,-9652.803275
872.124050,2368.659014,-518.144159,-9882.631924
872.124370,2368.659014,-1406.391290,-10189.070123
872.124689,296.082377,-2072.576638,-10112.460574
872.125009,-518.144159,518.144159,-9269.755526
872.125329,0.000000,2590.720797,-9959.241474
872.125649,1110.308913,3404.947333,-10342.289223
872.125969,2368.659014,3108.864956,-10342.289223
872.126289,74.020594,2220.617826,-10572.117872
872.126609,370.102971,296.082377,-9882.631924
872.126929,1554.432478,-2442.679609,-9116.536426
872.127249,1406.391290,-2146.597232,-9729.412825
872.127569,2516.700203,-2146.597232,-9882.631924
872.127889,1406.391290,-814.226536,-9422.974625
872.128209,222.061783,444.123565,-9882.631924
872.128529,-222.061783,1924.535449,-10112.460574
872.128849,-222.061783,3034.844362,-10189.070123
872.129168,0.000000,2664.741391,-10725.336972
872.129488,0.000000,1036.288319,-10265.679673
872.129808,-518.144159,-1036.288319,-10035.851024
872.130128,-1184.329507,-2812.782580,-10189.070123
872.130448,-592.164754,-2294.638420,-9882.631924
872.130768,592.164754,0.000000,-10112.460574
872.131088,444.123565,2368.659014,-10495.508323
872.131408,74.020594,3923.091493,-10572.117872
872.131728,148.041188,3256.906145,-10955.165621
872.132048,74.020594,1036.288319,-10648.727422
872.132368,592.164754,222.061783,-11031.775171
872.132688,1110.308913,-222.061783,-10342.289223
872.133008,222.061783,-370.102971,-10035.851024
872.133328,740.205942,1036.288319,-10878.556072
872.133648,1480.411884,222.061783,-9269.755526
872.133967,0.000000,0.000000,-10342.289223
872.134287,-444.123565,296.082377,-9959.241474
872.134607,-1110.308913,962.267725,-9959.241474
872.134927,-222.061783,444.123565,-9882.631924
872.135247,814.226536,-518.144159,-9729.412825
872.135567,2220.617826,-2072.576638,-9806.022374
872.135887,296.082377,-1924.535449,-10112.460574
872.136207,222.061783,-1258.350101,-10418.898773
872.136527,296.082377,1554.432478,-9652.803275
872.136847,-296.082377,4071.132681,-10495.508323
872.137167,-1184.329507,4071.132681,-10418.898773
872.137487,-888.247130,1628.453072,-9729.412825
872.137807,370.102971,-592.164754,-9882.631924
872.138127,962.267725,-2590.720797,-9882.631924
872.138447,1776.494261,-3701.029710,-9806.022374
872.138767,222.061783,-1850.514855,-10035.851024
872.139087,592.164754,-296.082377,-9882.631924
872.139407,814.226536,1110.308913,-11261.603821
872.139727,1480.411884,2590.720797,-10955.165621
872.140047,444.123565,2664.741391,-10495.508323
872.140367,74.020594,2368.659014,-10878.556072
872.140687,1332.370696,1036.288319,-10801.946522
872.141007,2368.659014,-296.082377,-10035.851024
872.141327,2738.761985,-1554.432478,-10265.679673
872.141647,1258.350101,-1554.432478,-10342.289223
872.141967,-296.082377,-296.082377,-10265.679673
872.142287,1036.288319,0.000000,-10112.460574
872.142607,1480.411884,1998.556043,-10342.289223
872.142927,1628.453072,1924.535449,-10648.727422
872.143247,518.144159,592.164754,-9959.241474
872.143567,1628.453072,74.020594,-10342.289223
872.143887,2072.576638,1406.391290,-10572.117872
872.144207,74.020594,1702.473667,-10265.679673
872.144527,148.041188,1406.391290,-9422.974625
872.144847,370.102971,0.000000,-9959.241474
872.145167,2442.679609,-1258.350101,-9116.536426
872.145487,1702.473667,-1184.329507,-10112.460574
872.145807,-296.082377,-814.226536,-9806.022374
872.146127,-1850.514855,0.000000,-9729.412825
872.146447,-1110.308913,2590.720797,-10035.851024
872.146767,-666.185348,2590.720797,-10265.679673
872.147087,-148.041188,1332.370696,-9806.022374
872.147407,-1480.411884,-1332.370696,-10265.679673
872.147727,-1184.329507,-3034.844362,-9346.365076
872.148047,0.000000,-2738.761985,-9806.022374
872.148367,1258.350101,-592.164754,-9959.241474
872.148687,296.082377,2072.576638,-10418.898773
872.149007,-148.041188,3182.885551,-10801.946522
872.149327,222.061783,2516.700203,-10648.727422
872.149647,666.185348,666.185348,-10572.117872
872.149967,666.185348,-740.205942,-10342.289223
872.150287,518.144159,74.020594,-10189.070123
872.150607,222.061783,888.247130,-10418.898773
872.150927,1184.329507,0.000000,-10495.508323
872.151247,1480.411884,-592.164754,-10418.898773
872.151567,-296.082377,-1628.453072,-10035.851024
872.151887,0.000000,-592.164754,-9959.241474
872.152207,-148.041188,1702.473667,-9882.631924
872.152527,0.000000,2664.741391,-10418.898773
872.152847,1406.391290,2146.597232,-10342.289223
872.153167,518.144159,-740.205942,-10495.508323
872.153487,1480.411884,-2368.659014,-9806.022374
872.153807,814.226536,-2368.659014,-9576.193725
872.154127,0.000000,-740.205942,-9576.193725
872.154447,666.185348,1036.288319,-10265.679673
872.154767,1628.453072,1776.494261,-9959.241474
872.155087,370.102971,1628.453072,-9882.631924
872.155407,-1998.556043,444.123565,-9729.412825
872.155727,-962.267725,222.061783,-9882.631924
872.156047,-518.144159,0.000000,-9652.803275
872.156367,666.185348,-814.226536,-9806.022374
872.156687,1554.432478,-1702.473667,-9499.584175
872.157007,1480.411884,-2072.576638,-9576.193725
872.157327,444.123565,-1036.288319,-9882.631924
872.157647,-222.061783,1036.288319,-9959.241474
872.157967,-1110.308913,2664.741391,-10265.679673
872.158287,-1184.329507,2220.617826,-10112.460574
872.158607,-740.205942,1036.288319,-9959.241474
872.158927,-296.082377,-222.061783,-10495.508323
872.159247,-592.164754,-962.267725,-9116.536426
872.159567,0.000000,0.000000,-10189.070123
872.159887,222.061783,740.205942,-10648.727422
872.160207,74.020594,1184.329507,-10035.851024
872.160527,444.123565,-518.144159,-10418.898773
872.160847,1776.494261,-370.102971,-9729.412825
872.161167,3478.967927,1036.288319,-10648.727422
872.161487,3775.050304,2072.576638,-11108.384721
872.161807,2072.576638,2220.617826,-10572.117872
872.162127,592.164754,1480.411884,-9882.631924
872.162447,-222.061783,-740.205942,-9806.022374
872.162767,-370.102971,-2368.659014,-9193.145976
872.163087,370.102971,-1998.556043,-10112.460574
872.163407,1480.411884,-740.205942,-10112.460574
872.163727,1110.308913,888.247130,-9882.631924
872.164047,0.000000,2072.576638,-10265.679673
872.164367,518.144159,2368.659014,-9652.803275
872.164687,296.082377,1554.432478,-10035.851024
872.165007,740.205942,1258.350101,-10112.460574
872.165327,2294.638420,888.247130,-9729.412825
872.165647,3478.967927,74.020594,-9729.412825
872.165967,3034.844362,-1184.329507,-9652.803275
872.166287,2590.720797,-2146.597232,-9346.365076
872.166607,1480.411884,-1406.391290,-9422.974625
872.166927,740.205942,444.123565,-9729.412825
872.167247,444.123565,2368.659014,-10112.460574
872.167567,-148.041188,2738.761985,-9806.022374
872.167887,-666.185348,1776.494261,-10035.851024
872.168207,370.102971,-222.061783,-10112.460574
872.168527,1332.370696,-2220.617826,-9959.241474
872.168847,1406.391290,-1998.556043,-10189.070123
872.169167,1998.556043,0.000000,-10112.460574
872.169487,1850.514855,2072.576638,-10955.165621
872.169807,592.164754,3849.070898,-11108.384721
872.170127,518.144159,3108.864956,-10801.946522
872.170447,-370.102971,962.267725,-10572.117872
872.170767,222.061783,-592.164754,-10878.556072
872.171087,-148.041188,-1036.288319,-11031.775171
872.171407,-296.082377,-1554.432478,-9959.241474
872.171727,0.000000,-666.185348,-10189.070123
872.172047,222.061783,1036.288319,-10955.165621
872.172367,0.000000,148.041188,-9806.022374
872.172687,-1110.308913,814.226536,-10342.289223
872.173007,-1776.494261,2072.576638,-10265.679673
872.173327,-1258.350101,1406.391290,-9806.022374
872.173647,-1184.329507,444.123565,-9806.022374
872.173967,-888.247130,-2072.576638,-9576.193725
872.174287,-888.247130,-2960.823768,-9729.412825
872.174607,74.020594,-2072.576638,-10112.460574
872.174927,-296.082377,370.102971,-11414.822920
872.175247,-1036.288319,2146.597232,-9959.241474
872.175567,-2442.679609,3627.009116,-9806.022374
872.175887,-2146.597232,2664.741391,-10112.460574
872.176207,-2294.638420,74.020594,-9806.022374
872.176527,-1406.391290,-1036.288319,-10189.070123
872.176847,370.102971,-1702.473667,-9882.631924
872.177167,1110.308913,-2516.700203,-9806.022374
872.177487,1702.473667,-740.205942,-10265.679673
872.177807,2516.700203,-222.061783,-9882.631924
872.178127,1776.494261,148.041188,-10418.898773
872.178447,1702.473667,888.247130,-10189.070123
872.178767,-148.041188,1184.329507,-10418.898773
872.179087,-592.164754,1554.432478,-10342.289223
872.179407,962.267725,518.144159,-10495.508323
872.179727,3330.926739,0.000000,-10495.508323
872.180047,3256.906145,-1628.453072,-10418.898773
872.180367,1554.432478,-2220.617826,-10495.508323
872.180687,2072.576638,-962.267725,-10878.556072
872.181007,444.123565,1184.329507,-10572.117872
872.181327,-518.144159,3108.864956,-10342.289223
872.181647,1776.494261,4219.173869,-10955.165621
872.181967,2664.741391,1776.494261,-10801.946522
872.182287,1924.535449,-888.247130,-10189.070123
872.182607,1036.288319,-1258.350101,-10189.070123
872.182927,1924.535449,-1110.308913,-9729.412825
872.183247,1406.391290,74.020594,-9422.974625
872.183567,962.267725,148.041188,-9806.022374
872.183887,962.267725,-444.123565,-9039.926876
872.184207,1258.350101,-518.144159,-9576.193725
872.184527,1480.411884,370.102971,-9422.974625
872.184847,1036.288319,1258.350101,-9346.365076
872.185167,2220.617826,1184.329507,-9806.022374
872.185487,3182.885551,1332.370696,-9806.022374
872.185807,2368.659014,-148.041188,-10035.851024
872.186127,222.061783,-1554.432478,-9806.022374
872.186447,-888.247130,-2146.597232,-9499.584175
872.186767,-296.082377,-814.226536,-9806.022374
872.187087,0.000000,1110.308913,-9806.022374
872.187407,962.267725,2516.700203,-10265.679673
872.187727,1110.308913,4071.132681,-10801.946522
872.188047,1184.329507,2294.638420,-11031.775171
872.188367,1480.411884,962.267725,-10572.117872
872.188687,1998.556043,-518.144159,-10801.946522
872.189007,740.205942,-370.102971,-9729.412825
872.189327,-666.185348,-444.123565,-10648.727422
872.189647,-814.226536,1184.329507,-10418.898773
872.189967,0.000000,1628.453072,-10725.336972
872.190287,0.000000,1924.535449,-10878.556072
872.190607,518.144159,2442.679609,-10878.556072
872.190927,-740.205942,1998.556043,-10418.898773
872.191247,-1628.453072,370.102971,-10035.851024
872.191568,-962.267725,-740.205942,-10189.070123
872.191888,-1184.329507,-1480.411884,-9652.803275
872.192208,-1924.535449,-2294.638420,-9116.536426
872.192528,0.000000,-1036.288319,-9422.974625
872.192848,962.267725,1110.308913,-9499.584175
872.193168,518.144159,2738.761985,-10878.556072
872.193488,2368.659014,2886.803174,-9652.803275
872.193808,1628.453072,1184.329507,-9806.022374
872.194128,-296.082377,148.041188,-9806.022374
872.194448,-1850.514855,-740.205942,-9806.022374
872.194768,-2146.597232,-1554.432478,-9269.755526
872.195088,-1628.453072,-1036.288319,-9346.365076
872.195408,-814.226536,-1554.432478,-9269.755526
872.195728,-148.041188,-1776.494261,-9652.803275
872.196048,-444.123565,-592.164754,-10189.070123
872.196368,-1554.432478,1554.432478,-10495.508323
872.196688,74.020594,2146.597232,-10418.898773
872.197008,1332.370696,1924.535449,-10418.898773
872.197328,1332.370696,222.061783,-10265.679673
872.197648,1036.288319,-1628.453072,-9729.412825
872.197968,1628.453072,-2294.638420,-10112.460574
872.198288,1110.308913,-296.082377,-10265.679673
872.198608,444.123565,1258.350101,-10495.508323
872.198928,-444.123565,2960.823768,-10801.946522
872.199248,962.267725,1776.494261,-10878.556072
872.199568,370.102971,296.082377,-10725.336972
872.199888,-444.123565,74.020594,-10648.727422
872.200208,-740.205942,0.000000,-10648.727422
872.200528,-666.185348,370.102971,-9959.241474
872.200848,74.020594,740.205942,-10265.679673
872.201168,962.267725,-444.123565,-10342.289223
872.201488,148.041188,-1628.453072,-9422.974625
872.201808,-296.082377,-1258.350101,-9959.241474
872.202128,-222.061783,518.144159,-9729.412825
872.202448,1332.370696,1184.329507,-9806.022374
872.202768,2368.659014,814.226536,-9806.022374
872.203088,3108.864956,-444.123565,-9729.412825
872.203408,2590.720797,-1776.494261,-9499.584175
872.203728,1332.370696,-740.205942,-9882.631924
872.204048,1110.308913,0.000000,-9959.241474
872.204368,444.123565,1480.411884,-9576.193725
872.204688,518.144159,1036.288319,-9576.193725
872.205008,1332.370696,0.000000,-9806.022374
872.205328,3849.070898,-2368.659014,-9346.365076
872.205648,1924.535449,-1480.411884,-10112.460574
872.205968,888.247130,962.267725,-9806.022374
872.206288,0.000000,3552.988522,-10418.898773
872.206608,1480.411884,2738.761985,-10035.851024
872.206928,1924.535449,592.164754,-10035.851024
872.207248,1850.514855,-1702.473667,-10189.070123
872.207568,1554.432478,-2072.576638,-10495.508323
872.207888,148.041188,148.041188,-10725.336972
872.208208,148.041188,2368.659014,-10495.508323
872.208528,1258.350101,2664.741391,-10725.336972
872.208848,2294.638420,1628.453072,-10572.117872
872.209168,1628.453072,-592.164754,-10648.727422
872.209488,666.185348,-1036.288319,-10342.289223
872.209808,-444.123565,222.061783,-10801.946522
872.210128,-148.041188,1628.453072,-10801.946522
872.210448,296.082377,1554.432478,-10495.508323
872.210768,-148.041188,0.000000,-9806.022374
872.211088,-592.164754,-2146.597232,-9576.193725
872.211408,-666.185348,-2294.638420,-10495.508323
872.211728,74.020594,-444.123565,-10572.117872
872.212048,-222.061783,814.226536,-9959.241474
872.212368,-1776.494261,2220.617826,-9806.022374
872.212688,-1406.391290,2294.638420,-9806.022374
872.213008,-1036.288319,592.164754,-10189.070123
872.213328,-1110.308913,-444.123565,-9959.241474
872.213648,-2072.576638,-962.267725,-10035.851024
872.213968,-1406.391290,370.102971,-9499.584175
872.214288,-1998.556043,148.041188,-9882.631924
872.214608,-1258.350101,1406.391290,-9422.974625
872.214928,-1776.494261,2294.638420,-9882.631924
872.215248,-1184.329507,1184.329507,-9882.631924
872.215568,-962.267725,2368.659014,-10189.070123
872.215888,-1702.473667,518.144159,-9882.631924
872.216208,-1184.329507,-888.247130,-9499.584175
872.216528,-740.205942,-148.041188,-9806.022374
872.216848,888.247130,-1258.350101,-10112.460574
872.217168,1776.494261,-740.205942,-9882.631924
872.217488,2294.638420,962.267725,-10495.508323
872.217808,1850.514855,2368.659014,-11797.870669
872.218128,370.102971,3701.029710,-10495.508323
872.218448,-148.041188,2294.638420,-11108.384721
872.218768,-518.144159,518.144159,-9729.412825
872.219088,1258.350101,444.123565,-9729.412825
872.219408,1628.453072,666.185348,-10955.165621
872.219728,2146.597232,296.082377,-9959.241474
872.220048,3182.885551,1480.411884,-10648.727422
872.220368,3997.112087,0.000000,-10495.508323
872.220688,3849.070898,-592.164754,-10342.289223
872.221008,2146.597232,666.185348,-10495.508323
872.221328,2146.597232,2368.659014,-10418.898773
872.221648,2590.720797,3775.050304,-10112.460574
872.221968,2146.597232,3997.112087,-9882.631924
872.222288,1554.432478,1776.494261,-10189.070123
872.222608,3775.050304,-2072.576638,-9499.584175
872.222928,4367.215058,-3627.009116,-9346.365076
872.223248,3775.050304,-592.164754,-10035.851024
872.223568,1184.329507,1406.391290,-9806.022374
872.223888,-1110.308913,3997.112087,-10265.679673
872.224208,-1036.288319,3404.947333,-9806.022374
872.224528,0.000000,1110.308913,-10112.460574
872.224848,1184.329507,-1480.411884,-9729.412825
872.225168,888.247130,-3108.864956,-9806.022374
872.225488,148.041188,-2294.638420,-9269.755526
872.225808,1184.329507,0.000000,-9806.022374
872.226128,1924.535449,2072.576638,-10418.898773
872.226448,222.061783,962.267725,-10342.289223
872.226768,-592.164754,-518.144159,-10189.070123
872.227088,-740.205942,-222.061783,-10189.070123
872.227408,-962.267725,-74.020594,-10265.679673
872.227728,-814.226536,1036.288319,-10342.289223
872.228048,-1776.494261,296.082377,-10189.070123
872.228368,-1184.329507,-1924.535449,-10342.289223
872.228688,-296.082377,-1554.432478,-10035.851024
872.229008,-518.144159,-962.267725,-10418.898773
872.229328,-148.041188,518.144159,-10342.289223
872.229648,-592.164754,2516.700203,-10418.898773
872.229968,-1332.370696,1554.432478,-10801.946522
872.230288,74.020594,-518.144159,-9959.241474
872.230608,518.144159,-2812.782580,-9806.022374
872.230928,-962.267725,-1702.473667,-10112.460574
872.231248,-962.267725,-740.205942,-10572.117872
872.231568,-370.102971,74.020594,-9882.631924
872.231888,-148.041188,1480.411884,-9729.412825
872.232208,-370.102971,1332.370696,-9806.022374
872.232528,-296.082377,370.102971,-9959.241474
872.232848,-222.061783,-370.102971,-10035.851024
872.233168,-222.061783,-740.205942,-10342.289223
872.233488,-814.226536,-296.082377,-9729.412825
872.233808,-814.226536,-296.082377,-9806.022374
872.234128,74.020594,-222.061783,-9499.584175
872.234448,1110.308913,-296.082377,-9882.631924
872.234768,-148.041188,148.041188,-10265.679673
872.235088,0.000000,740.205942,-9882.631924
872.235408,-370.102971,592.164754,-9652.803275
872.235728,1184.329507,592.164754,-9806.022374
872.236048,3034.844362,-148.041188,-10648.727422
872.236368,2812.782580,-592.164754,-9882.631924
872.236688,1258.350101,74.020594,-10189.070123
872.237008,148.041188,370.102971,-10189.070123
872.237328,370.102971,1480.411884,-10342.289223
872.237633,1776.494261,1776.494261,-10495.508323
872.237953,2886.803174,1480.411884,-10265.679673
872.238273,2294.638420,888.247130,-10495.508323
872.238594,148.041188,-370.102971,-10342.289223
872.238914,-518.144159,888.247130,-10725.336972
872.239234,-518.144159,2368.659014,-9959.241474
872.239554,592.164754,2886.803174,-10725.336972
872.239874,2368.659014,1406.391290,-10189.070123
872.240194,1998.556043,-518.144159,-9652.803275
872.240514,2220.617826,-2368.659014,-9729.412825
872.240834,4071.132681,-1702.473667,-9806.022374
872.241154,3997.112087,-148.041188,-9959.241474
872.241474,1110.308913,1924.535449,-9882.631924
872.241794,370.102971,1258.350101,-9882.631924
872.242114,0.000000,370.102971,-9959.241474
872.242435,-740.205942,-370.102971,-9576.193725
872.242755,-2146.597232,740.205942,-9882.631924
872.243075,-1110.308913,814.226536,-9499.584175
872.243395,2368.659014,666.185348,-10265.679673
872.243715,3330.926739,740.205942,-10418.898773
872.244035,444.123565,-370.102971,-9882.631924
872.244355,-2072.576638,-740.205942,-9806.022374
872.244675,-3404.947333,74.020594,-9959.241474
872.244995,-2072.576638,-592.164754,-8963.317327
872.245315,-2368.659014,666.185348,-9806.022374
872.245635,-74.020594,296.082377,-9499.584175
872.245955,2368.659014,-592.164754,-10112.460574
872.246276,3478.967927,-888.247130,-10035.851024
872.246596,3923.091493,148.041188,-10801.946522
872.246916,3034.844362,814.226536,-10112.460574
872.247236,962.267725,2294.638420,-10418.898773
872.247556,-370.102971,2664.741391,-10418.898773
872.247876,-888.247130,592.164754,-10495.508323
872.248196,-962.267725,-1554.432478,-10418.898773
872.248516,-740.205942,-1628.453072,-10189.070123
872.248836,-370.102971,-444.123565,-10418.898773
872.249156,-444.123565,2072.576638,-10265.679673
872.249476,518.144159,962.267725,-10342.289223
872.249796,296.082377,814.226536,-11031.775171
872.250117,-962.267725,-370.102971,-10035.851024
872.250437,-1480.411884,-1184.329507,-10648.727422
872.250757,-1406.391290,74.020594,-10265.679673
872.251077,888.247130,1554.432478,-10725.336972
872.251397,814.226536,1776.494261,-10265.679673
872.251717,1332.370696,518.144159,-10495.508323
872.252037,1628.453072,-814.226536,-10648.727422
872.252357,1702.473667,-1998.556043,-9806.022374
872.252677,518.144159,-2146.597232,-9576.193725
872.252997,-2220.617826,-148.041188,-9346.365076
872.253317,-2294.638420,1776.494261,-8886.707777
872.253637,-1554.432478,1036.288319,-9499.584175
872.253958,-296.082377,0.000000,-9116.536426
872.254278,518.144159,-148.041188,-9806.022374
872.254598,1702.473667,-962.267725,-9269.755526
872.254918,2516.700203,-296.082377,-9116.536426
872.255238,1776.494261,0.000000,-9422.974625
872.255558,2072.576638,-888.247130,-9346.365076
872.255878,2368.659014,740.205942,-9576.193725
872.256198,222.061783,0.000000,-10112.460574
872.256518,0.000000,-888.247130,-9806.022374
872.256838,592.164754,1406.391290,-9959.241474
872.257158,740.205942,2664.741391,-10418.898773
872.257479,2886.803174,1554.432478,-10801.946522
872.257799,3034.844362,0.000000,-9959.241474
872.258119,1850.514855,-1184.329507,-10878.556072
872.258439,1406.391290,-2146.597232,-10342.289223
872.258759,814.226536,444.123565,-10648.727422
872.259079,-518.144159,1776.494261,-10648.727422
872.259399,74.020594,1998.556043,-10035.851024
872.259719,2368.659014,2146.597232,-10572.117872
872.260039,3552.988522,1036.288319,-11414.822920
872.260359,3256.906145,1998.556043,-10878.556072
872.260679,74.020594,2960.823768,-10648.727422
872.260999,-148.041188,2220.617826,-10801.946522
872.261320,814.226536,-222.061783,-9959.241474
872.261640,296.082377,-1184.329507,-10035.851024
872.261960,-1184.329507,-1258.350101,-10265.679673
872.262280,-888.247130,-666.185348,-9499.584175
872.262600,-518.144159,2368.659014,-9729.412825
872.262920,0.000000,2738.761985,-10342.289223
872.263240,1036.288319,518.144159,-9652.803275
872.263560,296.082377,-1332.370696,-10035.851024
872.263880,-222.061783,-2146.597232,-9652.803275
872.264200,888.247130,-1332.370696,-9652.803275
872.264520,-518.144159,962.267725,-9499.584175
872.264840,-518.144159,2368.659014,-9039.926876
872.265161,-370.102971,814.226536,-9499.584175
872.265481,-222.061783,-888.247130,-9499.584175
872.265801,-1258.350101,-2072.576638,-9806.022374
872.266121,-666.185348,-2220.617826,-10418.898773
872.266441,-888.247130,-518.144159,-9806.022374
872.266761,-1110.308913,1258.350101,-10035.851024
872.267081,-518.144159,370.102971,-10342.289223
872.267401,148.041188,-370.102971,-10265.679673
872.267721,-370.102971,666.185348,-11108.384721
872.268041,370.102971,518.144159,-10955.165621
872.268361,1184.329507,2664.741391,-10725.336972
872.268681,814.226536,2368.659014,-11031.775171
872.269002,1554.432478,296.082377,-10801.946522
872.269322,0.000000,-2368.659014,-9882.631924
872.269642,-1036.288319,-2590.720797,-10495.508323
872.269962,222.061783,-1258.350101,-10572.117872
872.270282,888.247130,518.144159,-10342.289223
872.270602,0.000000,2738.761985,-11261.603821
872.270922,0.000000,1628.453072,-10035.851024
872.271242,518.144159,592.164754,-10189.070123
872.271562,518.144159,-888.247130,-9959.241474
872.271882,1036.288319,-1702.473667,-9959.241474
872.272202,370.102971,-518.144159,-10035.851024
872.272522,-296.082377,-222.061783,-9806.022374
872.272843,2220.617826,-518.144159,-9882.631924
872.273163,2294.638420,-888.247130,-9346.365076
872.273483,-296.082377,-814.226536,-10572.117872
872.273803,-1036.288319,0.000000,-9499.584175
872.274123,222.061783,1554.432478,-9499.584175
872.274443,592.164754,1554.432478,-10035.851024
872.274763,444.123565,-518.144159,-9652.803275
872.275083,-222.061783,-3627.009116,-9346.365076
872.275403,2812.782580,-2516.700203,-9576.193725
872.275723,1998.556043,-1332.370696,-10112.460574
872.276043,-444.123565,2072.576638,-9806.022374
872.276363,0.000000,2812.782580,-10418.898773
872.276684,2664.741391,2886.803174,-10648.727422
872.277004,3478.967927,296.082377,-9806.022374
872.277324,2368.659014,-74.020594,-10418.898773
872.277644,-962.267725,222.061783,-10265.679673
872.277964,-1998.556043,370.102971,-10112.460574
872.278284,0.000000,666.185348,-10648.727422
872.278604,518.144159,1036.288319,-10265.679673
872.278924,1480.411884,1998.556043,-10342.289223
872.279244,1480.411884,2294.638420,-10648.727422
872.279564,2738.761985,2368.659014,-11108.384721
872.279884,3256.906145,1184.329507,-10572.117872
872.280204,370.102971,518.144159,-9806.022374
872.280525,296.082377,-740.205942,-10035.851024
872.280845,222.061783,-962.267725,-9959.241474
872.281165,1036.288319,74.020594,-10418.898773
872.281485,814.226536,888.247130,-10189.070123
872.281805,962.267725,2146.597232,-10418.898773
872.282125,-370.102971,2738.761985,-11108.384721
872.282445,-814.226536,2368.659014,-10572.117872
872.282765,-148.041188,518.144159,-9959.241474
872.283085,296.082377,814.226536,-10189.070123
872.283405,148.041188,888.247130,-9346.365076
872.283725,1258.350101,1184.329507,-9959.241474
872.284046,296.082377,444.123565,-9652.803275
872.284366,148.041188,0.000000,-9652.803275
872.284686,1628.453072,-1258.350101,-8810.098227
872.285006,1332.370696,-1998.556043,-9652.803275
872.285326,962.267725,-740.205942,-9269.755526
872.285646,370.102971,1258.350101,-10418.898773
872.285966,-370.102971,222.061783,-9499.584175
872.286286,222.061783,1332.370696,-10035.851024
872.286606,-740.205942,1628.453072,-9806.022374
872.286926,74.020594,444.123565,-10112.460574
872.287246,518.144159,-1258.350101,-10189.070123
872.287566,-592.164754,-1850.514855,-9959.241474
872.287887,-2590.720797,-1258.350101,-9729.412825
872.288207,-2072.576638,-370.102971,-10112.460574
872.288527,-888.247130,592.164754,-10418.898773
872.288847,0.000000,962.267725,-10418.898773
872.289167,1628.453072,666.185348,-11184.994271
872.289487,444.123565,0.000000,-10418.898773
872.289807,-222.061783,1110.308913,-11108.384721
872.290127,740.205942,1184.329507,-10801.946522
872.290447,1998.556043,1406.391290,-10035.851024
872.290767,1332.370696,-962.267725,-10648.727422
872.291087,1480.411884,-1258.350101,-10342.289223
872.291407,222.061783,-2072.576638,-9959.241474
872.291728,-296.082377,-1258.350101,-9882.631924
872.292048,-1702.473667,-222.061783,-10035.851024
872.292368,-2368.659014,814.226536,-9576.193725
872.292688,-1110.308913,1258.350101,-9882.631924
872.293008,-74.020594,1184.329507,-10265.679673
872.293328,370.102971,0.000000,-8427.050478
872.293648,2442.679609,-1258.350101,-10035.851024
872.293968,3256.906145,-1332.370696,-9499.584175
872.294288,1110.308913,-2368.659014,-9193.145976
872.294608,-370.102971,-1554.432478,-9576.193725
872.294928,-222.061783,0.000000,-9652.803275
872.295248,-148.041188,962.267725,-9806.022374
872.295569,666.185348,1776.494261,-10035.851024
872.295889,2294.638420,814.226536,-10342.289223
872.296209,1998.556043,-740.205942,-9652.803275
872.296529,2812.782580,-1628.453072,-10342.289223
872.296849,2516.700203,-666.185348,-10035.851024
872.297169,1184.329507,0.000000,-10189.070123
872.297489,-222.061783,518.144159,-9882.631924
872.297809,0.000000,1406.391290,-10265.679673
872.298129,222.061783,296.082377,-10189.070123
872.298449,2590.720797,222.061783,-10878.556072
872.298769,1406.391290,814.226536,-10342.289223
872.299089,1258.350101,1850.514855,-11644.651570
872.299410,1480.411884,3627.009116,-10801.946522
872.299730,1480.411884,4663.297435,-11568.042020
872.300050,740.205942,1480.411884,-10572.117872
872.300370,888.247130,-740.205942,-10112.460574
872.300690,296.082377,-1184.329507,-9882.631924
872.301010,1924.535449,-740.205942,-9806.022374
872.301330,2294.638420,1332.370696,-9959.241474
872.301650,740.205942,2664.741391,-10265.679673
872.301970,0.000000,2516.700203,-10189.070123
872.302290,-370.102971,1036.288319,-9269.755526
872.302610,-296.082377,370.102971,-10265.679673
872.302930,-2146.597232,444.123565,-9269.755526
872.303251,-2146.597232,-370.102971,-9193.145976
872.303571,370.102971,1702.473667,-9652.803275
872.303891,370.102971,0.000000,-9269.755526
872.304211,1924.535449,-296.082377,-9806.022374
872.304531,2442.679609,-148.041188,-9499.584175
872.304851,2146.597232,370.102971,-9959.241474
872.305171,1036.288319,370.102971,-9652.803275
872.305491,296.082377,1628.453072,-10035.851024
872.305811,-148.041188,740.205942,-9882.631924
872.306131,-2368.659014,518.144159,-9806.022374
872.306451,-2294.638420,222.061783,-9806.022374
872.306772,-1332.370696,222.061783,-10265.679673
872.307092,148.041188,0.000000,-10112.460574
872.307412,1702.473667,1036.288319,-10572.117872
872.307732,2368.659014,888.247130,-10342.289223
872.308052,2294.638420,740.205942,-10418.898773
872.308372,-814.226536,-592.164754,-10265.679673
872.308692,-1406.391290,0.000000,-10342.289223
872.309012,-740.205942,518.144159,-10801.946522
872.309332,0.000000,1480.411884,-10648.727422
872.309652,1258.350101,1702.473667,-10801.946522
872.309972,888.247130,74.020594,-10342.289223
872.310292,-74.020594,666.185348,-10648.727422
872.310613,-1036.288319,592.164754,-10878.556072
872.310933,-1036.288319,370.102971,-9576.193725
872.311253,-1110.308913,-444.123565,-10418.898773
872.311573,0.000000,-666.185348,-10189.070123
872.311893,1332.370696,-740.205942,-9882.631924
872.312213,1480.411884,-962.267725,-10112.460574
872.312533,888.247130,0.000000,-9652.803275
872.312853,370.102971,962.267725,-9882.631924
872.313173,962.267725,370.102971,-9959.241474
872.313493,1702.473667,0.000000,-10801.946522
872.313813,1110.308913,-592.164754,-9806.022374
872.314133,0.000000,-592.164754,-9806.022374
872.314454,222.061783,666.185348,-9959.241474
872.314774,814.226536,296.082377,-10342.289223
872.315094,592.164754,370.102971,-10112.460574
872.315414,370.102971,-222.061783,-9576.193725
872.315734,592.164754,-814.226536,-10035.851024
872.316054,740.205942,-814.226536,-10572.117872
872.316374,1332.370696,-740.205942,-10265.679673
872.316694,1406.391290,74.020594,-10418.898773
872.317014,222.061783,1628.453072,-9652.803275
872.317334,1554.432478,666.185348,-10801.946522
872.317654,2590.720797,-222.061783,-10342.289223
872.317974,1406.391290,-444.123565,-10572.117872
872.318295,1480.411884,962.267725,-10955.165621
872.318615,0.000000,592.164754,-10265.679673
872.318935,0.000000,296.082377,-10878.556072
872.319255,1110.308913,962.267725,-10801.946522
872.319575,1924.535449,444.123565,-10495.508323
872.319895,2072.576638,-1258.350101,-10265.679673
872.320215,1406.391290,-518.144159,-10189.070123
872.320535,-1702.473667,1110.308913,-10189.070123
872.320855,-518.144159,1184.329507,-10112.460574
872.321175,666.185348,2294.638420,-10801.946522
872.321495,74.020594,148.041188,-9882.631924
872.321815,666.185348,-1406.391290,-10265.679673
872.322136,370.102971,-444.123565,-9652.803275
872.322456,1332.370696,1332.370696,-10725.336972
872.322776,1036.288319,2368.659014,-9729.412825
872.323096,888.247130,2294.638420,-10572.117872
872.323416,-1036.288319,-296.082377,-9959.241474
872.323736,-518.144159,-1406.391290,-9652.803275
872.324056,-740.205942,-592.164754,-9346.365076
872.324376,-370.102971,-370.102971,-9729.412825
872.324696,-74.020594,148.041188,-8810.098227
872.325016,518.144159,888.247130,-10112.460574
872.325336,1702.473667,2738.761985,-9652.803275
872.325656,592.164754,3997.112087,-10801.946522
872.325977,-444.123565,2812.782580,-10342.289223
872.326297,-592.164754,1258.350101,-10189.070123
872.326617,0.000000,296.082377,-9729.412825
872.326937,1036.288319,-3034.844362,-9882.631924
872.327257,1554.432478,-3478.967927,-9652.803275
872.327577,-222.061783,-3108.864956,-9576.193725
872.327897,-518.144159,0.000000,-10648.727422
872.328217,-592.164754,3404.947333,-10265.679673
872.328537,0.000000,4737.318029,-10725.336972
872.328857,-296.082377,4145.153275,-10878.556072
872.329177,-740.205942,592.164754,-10418.898773
872.329497,-444.123565,-3256.906145,-10342.289223
872.329818,0.000000,-3108.864956,-10189.070123
872.330138,0.000000,-370.102971,-10495.508323
872.330458,740.205942,2812.782580,-10572.117872
872.330778,296.082377,2442.679609,-10955.165621
872.331098,592.164754,2886.803174,-10418.898773
872.331418,-814.226536,1776.494261,-10342.289223
872.331738,-1776.494261,-592.164754,-9806.022374
872.332058,-814.226536,592.164754,-9499.584175
872.332378,-222.061783,444.123565,-9806.022374
872.332698,1110.308913,-592.164754,-10342.289223
872.333018,2294.638420,-1998.556043,-9269.755526
872.333339,2812.782580,-1924.535449,-10495.508323
872.333659,1628.453072,-666.185348,-9499.584175
872.333979,1924.535449,3034.844362,-10265.679673
872.334299,1036.288319,2960.823768,-10112.460574
872.334619,1184.329507,1406.391290,-10189.070123
872.334939,518.144159,-1036.288319,-10189.070123
872.335259,518.144159,-3330.926739,-9576.193725
872.335579,1480.411884,-2960.823768,-9729.412825
872.335899,1480.411884,-518.144159,-10648.727422
872.336219,2146.597232,1702.473667,-9422.974625
872.336539,1036.288319,3256.906145,-10955.165621
872.336859,2072.576638,1554.432478,-9806.022374
872.337180,1776.494261,-740.205942,-10342.289223
872.337500,-370.102971,-74.020594,-9959.241474
872.337820,-518.144159,444.123565,-11108.384721
872.338140,-666.185348,444.123565,-10265.679673
872.338460,1110.308913,1036.288319,-10801.946522
872.338780,1628.453072,-444.123565,-10342.289223
872.339100,3182.885551,1332.370696,-10648.727422
872.339420,2072.576638,1036.288319,-10648.727422
872.339740,1998.556043,1554.432478,-10572.117872
872.340060,0.000000,1850.514855,-10035.851024
872.340380,-370.102971,2368.659014,-10418.898773
872.340700,1036.288319,0.000000,-9729.412825
872.341020,444.123565,-1998.556043,-9959.241474
872.341340,-1332.370696,-2146.597232,-9576.193725
872.341660,148.041188,-1998.556043,-9959.241474
872.341980,1924.535449,1036.288319,-8810.098227
872.342300,1110.308913,1628.453072,-10035.851024
872.342620,1998.556043,1998.556043,-10112.460574
872.342940,-1406.391290,1036.288319,-9269.755526
872.343260,-518.144159,740.205942,-10112.460574
872.343581,1184.329507,518.144159,-9806.022374
872.343901,518.144159,-2220.617826,-8963.317327
872.344221,1258.350101,-2294.638420,-9576.193725
872.344541,444.123565,-2590.720797,-9039.926876
872.344861,2072.576638,-518.144159,-9882.631924
872.345181,370.102971,2146.597232,-10189.070123
872.345501,-814.226536,3182.885551,-10955.165621
872.345821,-2072.576638,2516.700203,-10265.679673
872.346141,-2220.617826,148.041188,-9499.584175
872.346461,-1332.370696,-1110.308913,-9806.022374
872.346781,0.000000,-2368.659014,-9806.022374
872.347101,148.041188,-2220.617826,-10342.289223
872.347421,-592.164754,-888.247130,-9806.022374
872.347741,0.000000,1332.370696,-10418.898773
872.348061,-1110.308913,1850.514855,-10265.679673
872.348381,-444.123565,962.267725,-10265.679673
872.348701,148.041188,962.267725,-10801.946522
872.349021,-518.144159,814.226536,-10495.508323
872.349341,-296.082377,-814.226536,-10801.946522
872.349661,0.000000,-814.226536,-9882.631924
872.349981,0.000000,-222.061783,-10035.851024
872.350301,-1406.391290,-1036.288319,-10648.727422
872.350621,0.000000,-370.102971,-10648.727422
872.350941,444.123565,518.144159,-10418.898773
872.351261,444.123565,1628.453072,-10342.289223
872.351581,-592.164754,2220.617826,-10189.070123
872.351901,0.000000,-296.082377,-9806.022374
872.352221,-666.185348,-1184.329507,-10112.460574
872.352541,1258.350101,-2368.659014,-9729.412825
872.352861,3627.009116,-962.267725,-9806.022374
872.353181,2146.597232,518.144159,-9882.631924
872.353501,1184.329507,2368.659014,-9652.803275
872.353821,888.247130,2516.700203,-9882.631924
872.354141,1776.494261,592.164754,-9652.803275
872.354461,2812.782580,-1628.453072,-9806.022374
872.354781,3330.926739,-2664.741391,-9806.022374
872.355101,740.205942,-962.267725,-10342.289223
872.355421,1480.411884,1332.370696,-9806.022374
872.355742,2368.659014,2738.761985,-10189.070123
872.356062,2960.823768,2738.761985,-10418.898773
872.356382,4441.235652,1332.370696,-10418.898773
872.356702,2664.741391,0.000000,-10189.070123
872.357022,1628.453072,148.041188,-10418.898773
872.357342,814.226536,0.000000,-10035.851024
872.357662,148.041188,814.226536,-10418.898773
872.357982,0.000000,-222.061783,-10189.070123
872.358302,1480.411884,-370.102971,-10572.117872
872.358622,1554.432478,74.020594,-10648.727422
872.358942,1480.411884,2368.659014,-10801.946522
872.359262,-148.041188,1998.556043,-10725.336972
872.359582,-370.102971,1924.535449,-9959.241474
872.359902,-1184.329507,296.082377,-10112.460574
872.360222,-222.061783,-2516.700203,-9882.631924
872.360542,444.123565,-2664.741391,-9422.974625
872.360862,-296.082377,518.144159,-10572.117872
872.361182,296.082377,2294.638420,-9806.022374
872.361502,1184.329507,2812.782580,-10189.070123
872.361822,222.061783,740.205942,-9882.631924
872.362142,0.000000,-518.144159,-10112.460574
872.362462,-1184.329507,-1776.494261,-9193.145976
872.362782,-1258.350101,-1998.556043,-9806.022374
872.363102,-2146.597232,444.123565,-9729.412825
872.363422,-1776.494261,666.185348,-9652.803275
872.363742,-148.041188,1554.432478,-9882.631924
872.364062,1702.473667,222.061783,-9806.022374
872.364382,888.247130,222.061783,-9882.631924
872.364702,-370.102971,0.000000,-9652.803275
872.365022,-666.185348,-296.082377,-9882.631924
872.365342,-370.102971,0.000000,-9806.022374
872.365662,-1258.350101,-74.020594,-9729.412825
872.365982,-370.102971,0.000000,-10035.851024
872.366302,444.123565,1110.308913,-10112.460574
872.366622,1406.391290,1554.432478,-10955.165621
872.366942,962.267725,1406.391290,-10878.556072
872.367262,666.185348,-444.123565,-9806.022374
872.367583,74.020594,-1110.308913,-10112.460574
872.367903,-296.082377,-1850.514855,-9882.631924
872.368223,74.020594,-1480.411884,-10418.898773
872.368543,-296.082377,666.185348,-10495.508323
872.368863,-962.267725,1998.556043,-11031.775171
872.369183,0.000000,2072.576638,-10648.727422
872.369503,296.082377,1776.494261,-11184.994271
872.369823,0.000000,888.247130,-10648.727422
872.370143,888.247130,222.061783,-10418.898773
872.370463,1332.370696,-592.164754,-9882.631924
872.370783,2294.638420,-1036.288319,-10572.117872
872.371103,1628.453072,296.082377,-10035.851024
872.371423,2220.617826,592.164754,-9959.241474
872.371743,2442.679609,296.082377,-9039.926876
872.372063,2664.741391,0.000000,-9652.803275
872.372383,1110.308913,370.102971,-10112.460574
872.372703,962.267725,370.102971,-9806.022374
872.373023,1332.370696,-592.164754,-9576.193725
872.373343,1776.494261,-1036.288319,-9882.631924
872.373663,1406.391290,-592.164754,-10189.070123
872.373983,518.144159,74.020594,-9729.412825
872.374303,814.226536,1110.308913,-10112.460574
872.374623,74.020594,1332.370696,-9499.584175
872.374943,0.000000,1406.391290,-9499.584175
872.375263,-222.061783,1184.329507,-9806.022374
872.375583,740.205942,-1110.308913,-9269.755526
872.375903,1110.308913,-1702.473667,-9729.412825
872.376223,-592.164754,-592.164754,-9806.022374
872.376543,-1776.494261,-74.020594,-10035.851024
872.376863,-592.164754,1332.370696,-10189.070123
872.377183,888.247130,1776.494261,-10648.727422
872.377503,3404.947333,3108.864956,-10418.898773
872.377823,3108.864956,1850.514855,-10801.946522
872.378143,3330.926739,444.123565,-10112.460574
872.378463,2294.638420,1258.350101,-11491.432470
872.378783,222.061783,-296.082377,-9882.631924
872.379103,-2368.659014,-666.185348,-10418.898773
872.379423,-2812.782580,-518.144159,-9806.022374
872.379744,-1184.329507,0.000000,-10112.460574
872.380064,0.000000,1184.329507,-10801.946522
872.380384,74.020594,1110.308913,-11261.603821
872.380704,-222.061783,666.185348,-10418.898773
872.381024,0.000000,-148.041188,-9806.022374
872.381344,592.164754,-1184.329507,-10112.460574
872.381664,0.000000,-518.144159,-9652.803275
872.381984,-962.267725,-222.061783,-10265.679673
872.382304,0.000000,888.247130,-10572.117872
872.382624,814.226536,888.247130,-9882.631924
872.382944,1998.556043,1332.370696,-10265.679673
872.383264,1702.473667,1776.494261,-9269.755526
872.383584,1184.329507,814.226536,-9806.022374
872.383904,666.185348,518.144159,-10112.460574
872.384224,-296.082377,74.020594,-10342.289223
872.384544,-1554.432478,-814.226536,-10495.508323
872.384864,-1702.473667,-1406.391290,-9729.412825
872.385184,-1110.308913,-962.267725,-9269.755526
872.385504,0.000000,0.000000,-9729.412825
872.385824,592.164754,1184.329507,-9882.631924
872.386144,1554.432478,1480.411884,-12027.699319
872.386464,1036.288319,222.061783,-9806.022374
872.386784,444.123565,666.185348,-10112.460574
872.387104,592.164754,0.000000,-10035.851024
872.387424,2072.576638,-1554.432478,-9806.022374
872.387744,740.205942,-370.102971,-10112.460574
872.388064,-962.267725,-222.061783,-10265.679673
872.388384,-814.226536,296.082377,-9959.241474
872.388704,74.020594,1628.453072,-10342.289223
872.389024,1628.453072,-296.082377,-9576.193725
872.389344,2294.638420,-2072.576638,-10265.679673
872.389664,1258.350101,-2738.761985,-9729.412825
872.389984,-592.164754,-2368.659014,-9959.241474
872.390304,-1406.391290,0.000000,-9959.241474
872.390624,-814.226536,2812.782580,-10418.898773
872.390944,0.000000,1924.535449,-10189.070123
872.391264,1480.411884,1702.473667,-10112.460574
872.391585,2072.576638,740.205942,-10189.070123
872.391905,1998.556043,222.061783,-10725.336972
872.392225,296.082377,1850.514855,-10418.898773
872.392545,0.000000,2294.638420,-10112.460574
872.392865,222.061783,1332.370696,-9959.241474
872.393185,1406.391290,-814.226536,-8427.050478
872.393505,666.185348,-518.144159,-9729.412825
872.393825,296.082377,-1258.350101,-9652.803275
872.394145,1332.370696,1036.288319,-10189.070123
872.394465,3552.988522,3627.009116,-11031.775171
872.394785,3256.906145,3108.864956,-9806.022374
872.395105,2590.720797,814.226536,-10418.898773
872.395425,740.205942,222.061783,-10265.679673
872.395745,-740.205942,-370.102971,-10495.508323
872.396065,-370.102971,148.041188,-11031.775171
872.396385,-1036.288319,962.267725,-9959.241474
872.396705,-370.102971,1036.288319,-10035.851024
872.397025,1850.514855,-888.247130,-9729.412825
872.397345,1850.514855,-1258.350101,-9576.193725
872.397665,666.185348,-888.247130,-10572.117872
872.397985,-518.144159,74.020594,-10112.460574
872.398305,0.000000,1110.308913,-9576.193725
872.398625,1110.308913,888.247130,-10342.289223
872.398945,1258.350101,1480.411884,-9729.412825
872.399265,592.164754,-1036.288319,-9806.022374
872.399585,148.041188,-296.082377,-10265.679673
872.399905,74.020594,1184.329507,-10495.508323
872.400225,-222.061783,1702.473667,-9959.241474
872.400545,-518.144159,2220.617826,-10112.460574
872.400865,74.020594,-1184.329507,-9806.022374
872.401185,1850.514855,-1480.411884,-9882.631924
872.401505,0.000000,-1258.350101,-10189.070123
872.401825,1332.370696,296.082377,-10265.679673
872.402145,370.102971,962.267725,-9729.412825
872.402465,518.144159,2072.576638,-9882.631924
872.402785,814.226536,370.102971,-10035.851024
872.403105,518.144159,-666.185348,-9806.022374
872.403425,0.000000,222.061783,-10189.070123
872.403746,0.000000,1702.473667,-10648.727422
872.404066,-666.185348,2516.700203,-10418.898773
872.404386,-1036.288319,814.226536,-9882.631924
872.404706,-592.164754,-2812.782580,-9882.631924
872.405026,-518.144159,-4367.215058,-9576.193725
872.405346,296.082377,-2072.576638,-10418.898773
872.405666,962.267725,1406.391290,-10955.165621
872.405986,888.247130,4071.132681,-11108.384721
872.406306,296.082377,3256.906145,-10265.679673
872.406626,814.226536,370.102971,-9882.631924
872.406946,1258.350101,-2664.741391,-10112.460574
872.407266,296.082377,-3478.967927,-10112.460574
872.407586,-2146.597232,-1184.329507,-9806.022374
872.407906,-1776.494261,592.164754,-9652.803275
872.408226,-444.123565,2146.597232,-10342.289223
872.408546,74.020594,1258.350101,-9882.631924
872.408866,444.123565,-1480.411884,-9806.022374
872.409186,740.205942,-1184.329507,-10112.460574
872.409506,-962.267725,-592.164754,-10035.851024
872.409826,-1702.473667,666.185348,-9729.412825
872.410146,-1924.535449,1554.432478,-9039.926876
872.410466,592.164754,-370.102971,-9729.412825
872.410786,2960.823768,-1406.391290,-9806.022374
872.411106,3330.926739,-1332.370696,-10265.679673
872.411426,2220.617826,740.205942,-10878.556072
872.411746,1554.432478,2368.659014,-9576.193725
872.412066,814.226536,2368.659014,-10495.508323
872.412386,-74.020594,2368.659014,-10495.508323
872.412706,-222.061783,-592.164754,-10189.070123
872.413026,-888.247130,-740.205942,-10725.336972
872.413346,-370.102971,0.000000,-10878.556072
872.413666,1184.329507,1332.370696,-10035.851024
872.413986,1702.473667,2664.741391,-11031.775171
872.414306,2072.576638,1628.453072,-10725.336972
872.414626,3108.864956,-1036.288319,-9806.022374
872.414946,3404.947333,-1332.370696,-10035.851024
872.415266,1776.494261,370.102971,-10418.898773
872.415587,1702.473667,1184.329507,-9729.412825
872.415907,1924.535449,1332.370696,-10725.336972
872.416227,1998.556043,444.123565,-9882.631924
872.416547,1924.535449,-740.205942,-9652.803275
872.416867,1480.411884,-740.205942,-9959.241474
872.417187,888.247130,-444.123565,-9806.022374
872.417507,0.000000,592.164754,-10878.556072
872.417827,-1332.370696,2072.576638,-9806.022374
872.418147,-1110.308913,1628.453072,-9499.584175
872.418467,888.247130,-148.041188,-9422.974625
872.418787,2590.720797,-592.164754,-10342.289223
872.419107,1924.535449,740.205942,-10495.508323
872.419427,-444.123565,444.123565,-10189.070123
872.419747,-2516.700203,2738.761985,-9576.193725
872.420067,-2146.597232,1332.370696,-9806.022374
872.420387,-222.061783,-444.123565,-9729.412825
872.420707,370.102971,-2072.576638,-9806.022374
872.421027,148.041188,-1702.473667,-10725.336972
872.421347,1258.350101,518.144159,-9959.241474
872.421667,666.185348,2886.803174,-11184.994271
872.421987,2220.617826,3404.947333,-10725.336972
872.422307,1110.308913,1184.329507,-10265.679673
872.422627,0.000000,-370.102971,-10725.336972
872.422947,-592.164754,-740.205942,-10648.727422
872.423267,-2146.597232,-148.041188,-10189.070123
872.423587,-296.082377,740.205942,-10495.508323
872.423907,296.082377,1406.391290,-10189.070123
872.424227,518.144159,0.000000,-9959.241474
872.424547,0.000000,-148.041188,-10342.289223
872.424867,-222.061783,-222.061783,-10418.898773
872.425187,-222.061783,222.061783,-10342.289223
872.425507,-518.144159,1110.308913,-10035.851024
872.425827,-592.164754,1258.350101,-10035.851024
872.426147,370.102971,-370.102971,-9806.022374
872.426467,1776.494261,-962.267725,-9959.241474
872.426787,2072.576638,-592.164754,-9959.241474
872.427107,1480.411884,1258.350101,-10495.508323
872.427427,-370.102971,1332.370696,-9806.022374
872.427748,-2146.597232,1258.350101,-9959.241474
872.428068,-518.144159,-1480.411884,-9652.803275
872.428388,74.020594,-2220.617826,-9652.803275
872.428708,-444.123565,-1850.514855,-9959.241474
872.429028,-740.205942,0.000000,-9806.022374
872.429348,-1406.391290,1332.370696,-9422.974625
872.429668,0.000000,1554.432478,-9882.631924
872.429988,2812.782580,-1110.308913,-9422.974625
872.430308,4293.194464,-2368.659014,-9652.803275
872.430628,3256.906145,-2072.576638,-10572.117872
872.430948,1924.535449,-1776.494261,-10265.679673
872.431268,-814.226536,888.247130,-10265.679673
872.431588,-2516.700203,2442.679609,-10801.946522
872.431908,-666.185348,2960.823768,-10112.460574
872.432228,1184.329507,1554.432478,-11108.384721
872.432548,1628.453072,1332.370696,-11108.384721
872.432868,1480.411884,1258.350101,-10955.165621
872.433188,1998.556043,444.123565,-10878.556072
872.433508,1702.473667,0.000000,-10418.898773
872.433828,1480.411884,296.082377,-9729.412825
872.434148,962.267725,444.123565,-10189.070123
872.434468,888.247130,740.205942,-10495.508323
872.434788,814.226536,1480.411884,-10878.556072
872.435108,-148.041188,1554.432478,-9959.241474
872.435428,-1332.370696,1480.411884,-10342.289223
872.435748,444.123565,444.123565,-10342.289223
872.436068,2220.617826,-666.185348,-10189.070123
872.436388,1406.391290,-962.267725,-10495.508323
872.436708,-814.226536,-962.267725,-9729.412825
872.437028,-962.267725,592.164754,-9806.022374
872.437348,-1184.329507,1998.556043,-10035.851024
872.437668,592.164754,1184.329507,-9499.584175
872.437988,1184.329507,0.000000,-9193.145976
872.438308,3330.926739,-1110.308913,-10112.460574
872.438628,2886.803174,-518.144159,-10342.289223
872.438948,1184.329507,-222.061783,-10035.851024
872.439269,-888.247130,1628.453072,-10495.508323
872.439589,-814.226536,888.247130,-9882.631924
872.439909,0.000000,0.000000,-9882.631924
872.440229,74.020594,0.000000,-9652.803275
872.440549,-296.082377,-888.247130,-9729.412825
872.440869,-370.102971,0.000000,-9806.022374
872.441189,444.123565,1036.288319,-10112.460574
872.441509,2220.617826,962.267725,-10189.070123
872.441829,1850.514855,-148.041188,-10189.070123
872.442149,814.226536,-592.164754,-9806.022374
872.442469,-740.205942,-814.226536,-10189.070123
872.442789,-222.061783,888.247130,-9806.022374
872.443109,-518.144159,2664.741391,-10725.336972
872.443429,-888.247130,1258.350101,-10189.070123
872.443749,0.000000,-962.267725,-9729.412825
872.444069,814.226536,-1480.411884,-10189.070123
872.444390,1110.308913,-1702.473667,-9576.193725
872.444710,0.000000,0.000000,-10189.070123
872.445030,-1036.288319,1258.350101,-10495.508323
872.445350,-666.185348,666.185348,-9806.022374
872.445670,-296.082377,-370.102971,-10265.679673
872.445990,-296.082377,-888.247130,-9269.755526
872.446310,-1184.329507,222.061783,-10342.289223
872.446630,-592.164754,1702.473667,-10418.898773
872.446950,74.020594,3256.906145,-10495.508323
872.447270,814.226536,2368.659014,-12257.527968
872.447590,1998.556043,-444.123565,-10112.460574
872.447910,1258.350101,-2590.720797,-10035.851024
872.448230,-370.102971,-1628.453072,-10035.851024
872.448550,-518.144159,444.123565,-10112.460574
872.448870,296.082377,3849.070898,-10955.165621
872.449191,1998.556043,3330.926739,-10418.898773
872.449511,2590.720797,1480.411884,-10572.117872
872.449831,888.247130,518.144159,-10112.460574
872.450151,-222.061783,518.144159,-9729.412825
872.450471,-814.226536,592.164754,-10112.460574
872.450791,-296.082377,592.164754,-9652.803275
872.451111,-666.185348,296.082377,-9806.022374
872.451431,814.226536,0.000000,-9499.584175
872.451751,1998.556043,0.000000,-9882.631924
872.452071,2072.576638,-74.020594,-10265.679673
872.452391,1776.494261,1036.288319,-9959.241474
872.452711,814.226536,1998.556043,-9806.022374
872.453031,666.185348,1924.535449,-10189.070123
872.453351,2368.659014,814.226536,-9729.412825
872.453671,3478.967927,-444.123565,-10265.679673
872.453992,2146.597232,-296.082377,-9882.631924
872.454312,1110.308913,-222.061783,-9806.022374
872.454632,0.000000,296.082377,-9499.584175
872.454952,1776.494261,370.102971,-9959.241474
872.455272,2738.761985,0.000000,-9806.022374
872.455592,2368.659014,0.000000,-9959.241474
872.455912,-370.102971,0.000000,-10648.727422
872.456232,-1036.288319,296.082377,-9806.022374
872.456552,-296.082377,1850.514855,-10418.898773
872.456872,888.247130,2146.597232,-10725.336972
872.457192,1998.556043,148.041188,-10112.460574
872.457512,1036.288319,-1036.288319,-9959.241474
872.457832,1258.350101,-962.267725,-10648.727422
872.458152,1332.370696,0.000000,-10035.851024
872.458472,444.123565,1702.473667,-10189.070123
872.458792,592.164754,2738.761985,-11338.213370
872.459113,888.247130,1258.350101,-10035.851024
872.459433,1110.308913,-222.061783,-10648.727422
872.459753,1480.411884,-1110.308913,-10265.679673
872.460073,-222.061783,-962.267725,-9499.584175
872.460393,-2442.679609,370.102971,-9806.022374
872.460713,-2368.659014,1628.453072,-10112.460574
872.461033,-740.205942,1332.370696,-10035.851024
872.461353,1332.370696,0.000000,-9959.241474
872.461673,1776.494261,-1110.308913,-10418.898773
872.461993,666.185348,-1258.350101,-9959.241474
872.462313,-1184.329507,-444.123565,-10035.851024
872.462633,-2294.638420,666.185348,-9959.241474
872.462953,-1628.453072,-962.267725,-10189.070123
872.463273,-1480.411884,-2146.597232,-9422.974625
872.463593,-2072.576638,-1036.288319,-9959.241474
872.463914,-1924.535449,-222.061783,-10035.851024
872.464234,-1110.308913,1406.391290,-9806.022374
872.464554,-370.102971,1036.288319,-9882.631924
872.464874,370.102971,-740.205942,-9652.803275
872.465194,518.144159,-2590.720797,-9959.241474
872.465514,666.185348,-2516.700203,-9882.631924
872.465834,296.082377,-1480.411884,-9806.022374
872.466154,-222.061783,1702.473667,-10342.289223
872.466474,0.000000,2516.700203,-10648.727422
872.466794,1480.411884,814.226536,-10265.679673
872.467114,888.247130,-888.247130,-10189.070123
872.467434,-1702.473667,-1036.288319,-10342.289223
872.467754,-1554.432478,-666.185348,-10189.070123
872.468074,518.144159,888.247130,-10342.289223
872.468394,3775.050304,1332.370696,-10342.289223
872.468715,2220.617826,-370.102971,-11261.603821
872.469035,-444.123565,-814.226536,-9806.022374
872.469355,-2368.659014,-148.041188,-10878.556072
872.469675,-518.144159,0.000000,-10112.460574
872.469995,1924.535449,2590.720797,-10495.508323
872.470315,2368.659014,3404.947333,-11108.384721
872.470635,3701.029710,2146.597232,-10572.117872
872.470955,5625.565159,-740.205942,-10495.508323
872.471275,3034.844362,-814.226536,-10955.165621
872.471595,2146.597232,0.000000,-10189.070123
872.471915,1110.308913,2146.597232,-10035.851024
872.472235,-148.041188,4441.235652,-9959.241474
872.472555,-518.144159,4071.132681,-10112.460574
872.472875,1258.350101,1702.473667,-9652.803275
872.473195,1998.556043,888.247130,-10112.460574
872.473516,3849.070898,0.000000,-9652.803275
872.473836,2368.659014,666.185348,-9499.584175
872.474156,370.102971,1036.288319,-9729.412825
872.474476,148.041188,814.226536,-9269.755526
872.474796,888.247130,666.185348,-9346.365076
872.475116,1998.556043,1628.453072,-9652.803275
872.475436,2072.576638,2664.741391,-10189.070123
872.475756,3775.050304,1998.556043,-9652.803275
872.476076,3997.112087,1998.556043,-9806.022374
872.476396,2812.782580,1184.329507,-9882.631924
872.476716,1850.514855,0.000000,-9652.803275
872.477036,592.164754,222.061783,-10035.851024
872.477356,1036.288319,1406.391290,-10265.679673
872.477676,0.000000,2960.823768,-10495.508323
872.477996,-444.123565,4737.318029,-10112.460574
872.478316,370.102971,4145.153275,-10265.679673
872.478637,2812.782580,1702.473667,-10955.165621
872.478957,2146.597232,296.082377,-10495.508323
872.479277,1554.432478,74.020594,-9959.241474
872.479597,3034.844362,1332.370696,-10495.508323
872.479917,3627.009116,3034.844362,-10342.289223
872.480237,2516.700203,5033.400406,-11031.775171
872.480557,1406.391290,4663.297435,-10572.117872
872.480877,2072.576638,3182.885551,-10265.679673
872.481197,1924.535449,2294.638420,-9652.803275
872.481517,2516.700203,2442.679609,-9806.022374
872.481837,3478.967927,3256.906145,-10265.679673
872.482157,2960.823768,3034.844362,-10495.508323
872.482477,2442.679609,2220.617826,-9959.241474
872.482797,3182.885551,888.247130,-9959.241474
872.483117,4071.132681,1406.391290,-9882.631924
872.483438,2220.617826,2960.823768,-9806.022374
872.483758,148.041188,3330.926739,-9806.022374
872.484078,-814.226536,3478.967927,-9806.022374
872.484398,-666.185348,2368.659014,-8273.831378
872.484718,1998.556043,1332.370696,-9116.536426
872.485038,4367.215058,740.205942,-9652.803275
872.485358,4219.173869,-148.041188,-9576.193725
872.485678,3108.864956,444.123565,-9806.022374
872.485998,2072.576638,2442.679609,-9576.193725
872.486318,2738.761985,4071.132681,-10342.289223
872.486638,2368.659014,4589.276840,-10189.070123
872.486958,518.144159,4367.215058,-10495.508323
872.487278,148.041188,2368.659014,-9882.631924
872.487598,1184.329507,1332.370696,-10418.898773
872.487918,2960.823768,518.144159,-10418.898773
872.488239,1998.556043,-148.041188,-10342.289223
872.488559,2146.597232,1184.329507,-10265.679673
872.488879,2368.659014,3552.988522,-10725.336972
872.489199,1480.411884,5847.626942,-10955.165621
872.489519,1036.288319,6439.791695,-10648.727422
872.489839,1924.535449,5181.441594,-10725.336972
872.490159,3849.070898,1998.556043,-10725.336972
872.490479,4219.173869,148.041188,-10342.289223
872.490799,3256.906145,-444.123565,-10265.679673
872.491119,1924.535449,1110.308913,-9806.022374
872.491439,2960.823768,2590.720797,-9652.803275
872.491759,2590.720797,4071.132681,-10189.070123
872.492079,1554.432478,4441.235652,-9959.241474
872.492399,1628.453072,3256.906145,-9882.631924
872.492719,3552.988522,1628.453072,-9959.241474
872.493039,5921.647536,0.000000,-9652.803275
872.493360,5107.421000,592.164754,-10189.070123
872.493680,3108.864956,1702.473667,-9652.803275
872.494000,2590.720797,3256.906145,-9039.926876
872.494320,3775.050304,4145.153275,-10035.851024
872.494640,4959.379811,4737.318029,-10189.070123
872.494960,3034.844362,4071.132681,-10265.679673
872.495280,814.226536,2738.761985,-9882.631924
872.495600,1184.329507,1036.288319,-9576.193725
872.495920,1850.514855,518.144159,-10035.851024
872.496240,2146.597232,888.247130,-9806.022374
872.496560,962.267725,1332.370696,-9576.193725
872.496880,1406.391290,2590.720797,-10265.679673
872.497200,3849.070898,3330.926739,-9882.631924
872.497520,5551.544565,3923.091493,-10955.165621
872.497840,4811.338623,4145.153275,-10801.946522
872.498161,2442.679609,3997.112087,-10495.508323
872.498481,222.061783,3404.947333,-10572.117872
872.498801,-222.061783,3256.906145,-11031.775171
872.499121,74.020594,2368.659014,-10418.898773
872.499441,1332.370696,1702.473667,-10648.727422
872.499761,1702.473667,1702.473667,-10112.460574
872.500081,148.041188,1702.473667,-12027.699319
872.500401,-814.226536,2072.576638,-9959.241474
872.500721,296.082377,2812.782580,-9882.631924
872.501041,2368.659014,3627.009116,-10725.336972
872.501361,4219.173869,2960.823768,-9959.241474
872.501681,3256.906145,2886.803174,-10035.851024
872.502001,1184.329507,2516.700203,-10418.898773
872.502321,74.020594,2664.741391,-9806.022374
872.502641,666.185348,2738.761985,-9882.631924
872.502962,2442.679609,2072.576638,-9729.412825
872.503282,2960.823768,370.102971,-9422.974625
872.503602,2294.638420,0.000000,-9652.803275
872.503922,2146.597232,888.247130,-9729.412825
872.504242,2294.638420,2886.803174,-10189.070123
872.504562,1628.453072,4293.194464,-10035.851024
872.504882,1628.453072,3478.967927,-9806.022374
872.505202,3034.844362,1480.411884,-9959.241474
872.505522,3404.947333,74.020594,-10112.460574
872.505842,3108.864956,370.102971,-9652.803275
872.506162,2664.741391,1702.473667,-10265.679673
872.506482,2590.720797,3552.988522,-10418.898773
872.506802,2072.576638,4071.132681,-10189.070123
872.507122,888.247130,3034.844362,-10035.851024
872.507442,1924.535449,1332.370696,-10035.851024
872.507762,3849.070898,0.000000,-10189.070123
872.508083,5107.421000,296.082377,-10572.117872
872.508403,4737.318029,2220.617826,-10572.117872
872.508723,4737.318029,3997.112087,-11568.042020
872.509043,4811.338623,5181.441594,-10725.336972
872.509363,3997.112087,5773.606348,-11184.994271
872.509683,1554.432478,4959.379811,-11108.384721
872.510003,0.000000,3256.906145,-10572.117872
872.510323,592.164754,370.102971,-10648.727422
872.510643,2516.700203,-1184.329507,-10342.289223
872.510963,2886.803174,-1406.391290,-9882.631924
872.511283,2294.638420,222.061783,-9806.022374
872.511603,2664.741391,2368.659014,-9729.412825
872.511923,4145.153275,5329.482782,-9959.241474
872.512243,5403.503377,6513.812290,-10418.898773
872.512563,5181.441594,5403.503377,-10418.898773
872.512884,4071.132681,2590.720797,-10112.460574
872.513204,2146.597232,888.247130,-9882.631924
872.513524,74.020594,0.000000,-9269.755526
872.513844,-518.144159,-296.082377,-9422.974625
872.514164,74.020594,74.020594,-9269.755526
872.514484,666.185348,592.164754,-9116.536426
872.514804,1258.350101,1924.535449,-9806.022374
872.515124,1554.432478,2590.720797,-9959.241474
872.515444,2886.803174,4441.235652,-10035.851024
872.515764,3775.050304,5477.523971,-10189.070123
872.516084,5107.421000,5181.441594,-10572.117872
872.516404,3997.112087,4071.132681,-10495.508323
872.516724,2294.638420,2812.782580,-10035.851024
872.517044,1332.370696,2072.576638,-10495.508323
872.517364,0.000000,2886.803174,-10572.117872
872.517685,-888.247130,3182.885551,-10342.289223
872.518005,-1924.535449,2664.741391,-9882.631924
872.518325,-1998.556043,1628.453072,-10035.851024
872.518645,-888.247130,1184.329507,-11568.042020
872.518965,740.205942,1110.308913,-10112.460574
872.519285,2664.741391,2146.597232,-10035.851024
872.519605,4663.297435,3552.988522,-10112.460574
872.519925,6143.709319,4959.379811,-9959.241474
872.520245,5921.647536,6143.709319,-10955.165621
872.520565,4589.276840,6143.709319,-10801.946522
872.520885,2812.782580,5477.523971,-10725.336972
872.521205,1628.453072,4071.132681,-10648.727422
872.521525,2072.576638,1332.370696,-10035.851024
872.521845,1110.308913,222.061783,-9806.022374
872.522165,-148.041188,-370.102971,-9269.755526
872.522485,-814.226536,0.000000,-9576.193725
872.522806,222.061783,1406.391290,-8886.707777
872.523126,2220.617826,2442.679609,-9499.584175
872.523446,4071.132681,3701.029710,-9576.193725
872.523766,6143.709319,3627.009116,-9576.193725
872.524086,7105.977043,2590.720797,-9806.022374
872.524406,5921.647536,1554.432478,-9959.241474
872.524726,3627.009116,1110.308913,-9729.412825
872.525046,592.164754,1332.370696,-9652.803275
872.525366,-592.164754,1850.514855,-9729.412825
872.525686,-1184.329507,1924.535449,-10112.460574
872.526006,-740.205942,370.102971,-9806.022374
872.526326,-666.185348,-740.205942,-9806.022374
872.526646,370.102971,-666.185348,-9806.022374
872.526966,1110.308913,444.123565,-9806.022374
872.527286,2664.741391,2812.782580,-10495.508323
872.527607,4071.132681,4219.173869,-10572.117872
872.527927,4663.297435,5033.400406,-10878.556072
872.528247,3923.091493,4589.276840,-11031.775171
872.528567,3404.947333,3849.070898,-11108.384721
872.528887,2442.679609,2516.700203,-10878.556072
872.529207,1776.494261,1702.473667,-10648.727422
872.529527,444.123565,1184.329507,-10648.727422
872.529847,518.144159,444.123565,-10189.070123
872.530167,444.123565,370.102971,-10265.679673
872.530487,1850.514855,1184.329507,-10189.070123
872.530807,3108.864956,2368.659014,-10265.679673
872.531127,4071.132681,3256.906145,-10418.898773
872.531447,5995.668130,3182.885551,-10342.289223
872.531767,6291.750507,3997.112087,-10572.117872
872.532087,7105.977043,4145.153275,-10189.070123
872.532408,6735.874072,4737.318029,-10418.898773
872.532728,4737.318029,5255.462188,-10112.460574
872.533048,1850.514855,4367.215058,-9729.412825
872.533368,-222.061783,2886.803174,-9652.803275
872.533688,-1036.288319,1036.288319,-9652.803275
872.534008,-518.144159,-518.144159,-9422.974625
872.534328,1110.308913,-1258.350101,-9039.926876
872.534648,2072.576638,-148.041188,-9499.584175
872.534968,3627.009116,2368.659014,-9652.803275
872.535288,5329.482782,4885.359217,-9882.631924
872.535608,6365.771101,7328.038826,-10035.851024
872.535928,6365.771101,7179.997637,-10648.727422
872.536248,5403.503377,6291.750507,-10725.336972
872.536568,4219.173869,4663.297435,-10495.508323
872.536888,3330.926739,3256.906145,-10418.898773
872.537209,1924.535449,2442.679609,-10418.898773
872.537529,-814.226536,2442.679609,-10189.070123
872.537849,-2960.823768,2812.782580,-9806.022374
872.538169,-3108.864956,2368.659014,-9806.022374
872.538489,-888.247130,1998.556043,-9959.241474
872.538809,1480.411884,1776.494261,-10189.070123
872.539129,2812.782580,2146.597232,-10495.508323
872.539449,3404.947333,3182.885551,-10342.289223
872.539769,3775.050304,4737.318029,-10112.460574
872.540089,4737.318029,5921.647536,-10112.460574
872.540409,5773.606348,6365.771101,-10648.727422
872.540729,5329.482782,5699.585753,-10725.336972
872.541049,2590.720797,4071.132681,-10725.336972
872.541369,-1184.329507,2960.823768,-9116.536426
872.541689,-3478.967927,1702.473667,-9346.365076
872.542009,-2368.659014,666.185348,-9806.022374
872.542329,-1110.308913,-296.082377,-9499.584175
872.542650,-370.102971,-370.102971,-8886.707777
872.542970,1480.411884,296.082377,-10035.851024
872.543290,3923.091493,2886.803174,-9806.022374
872.543610,6365.771101,5181.441594,-10418.898773
872.543930,7031.956449,6217.729913,-10495.508323
872.544250,5551.544565,6217.729913,-9422.974625
872.544570,4293.194464,4589.276840,-9959.241474
872.544890,2516.700203,2516.700203,-9806.022374
872.545210,814.226536,1184.329507,-9806.022374
872.545530,370.102971,-222.061783,-9806.022374
872.545850,444.123565,-666.185348,-9039.926876
872.546170,0.000000,-444.123565,-9652.803275
872.546490,-962.267725,1036.288319,-9652.803275
872.546810,666.185348,2590.720797,-10342.289223
872.547130,4589.276840,4071.132681,-10112.460574
872.547450,6291.750507,3627.009116,-10495.508323
872.547770,7624.121203,2960.823768,-10725.336972
872.548090,7476.080014,2960.823768,-10955.165621
872.548410,5847.626942,3627.009116,-11108.384721
872.548730,3775.050304,5033.400406,-10112.460574
872.549050,1110.308913,4589.276840,-10878.556072
872.549371,-222.061783,2738.761985,-10495.508323
872.549691,0.000000,-296.082377,-9959.241474
872.550011,74.020594,-1554.432478,-10418.898773
872.550331,-888.247130,-1924.535449,-9729.412825
872.550651,-1406.391290,0.000000,-9882.631924
872.550971,814.226536,1406.391290,-9882.631924
872.551291,4219.173869,2516.700203,-9806.022374
872.551611,6069.688724,3478.967927,-9882.631924
872.551931,7476.080014,3404.947333,-10801.946522
872.552251,6957.935855,3849.070898,-10265.679673
872.552571,4737.318029,4515.256246,-10035.851024
872.552891,3330.926739,4293.194464,-10495.508323
872.553211,1776.494261,3108.864956,-9806.022374
872.553531,-148.041188,962.267725,-10112.460574
872.553851,-2664.741391,-1036.288319,-9576.193725
872.554171,-3849.070898,-1628.453072,-9193.145976
872.554491,-5551.544565,-1850.514855,-9346.365076
872.554811,-592.164754,-1184.329507,-8886.707777
872.555131,4589.276840,740.205942,-9652.803275
872.555451,5773.606348,2590.720797,-11031.775171
872.555771,3404.947333,4663.297435,-9806.022374
872.556091,3330.926739,5699.585753,-10342.289223
872.556412,5255.462188,6365.771101,-11031.775171
872.556732,6291.750507,5477.523971,-10725.336972
872.557052,4145.153275,3849.070898,-11644.651570
872.557372,0.000000,1036.288319,-9806.022374
872.557692,-2368.659014,-740.205942,-9806.022374
872.558012,-2590.720797,-592.164754,-10342.289223
872.558332,-2368.659014,0.000000,-10189.070123
872.558652,-2146.597232,1850.514855,-10265.679673
872.558972,0.000000,2738.761985,-10112.460574
872.559292,4589.276840,3256.906145,-10265.679673
872.559612,6735.874072,4367.215058,-11108.384721
872.559932,6513.812290,5477.523971,-11108.384721
872.560252,5551.544565,5773.606348,-10112.460574
872.560572,5699.585753,5921.647536,-10418.898773
872.560892,5625.565159,5181.441594,-10801.946522
872.561212,4737.318029,3997.112087,-10112.460574
872.561532,1258.350101,3849.070898,-10342.289223
872.561852,-296.082377,2368.659014,-9806.022374
872.562172,-666.185348,1554.432478,-9806.022374
872.562492,-1332.370696,1184.329507,-9882.631924
872.562812,-1184.329507,1184.329507,-8886.707777
872.563132,1776.494261,1406.391290,-9422.974625
872.563453,5773.606348,2294.638420,-9806.022374
872.563773,7402.059420,3627.009116,-10112.460574
872.564093,6143.709319,5699.585753,-10265.679673
872.564413,6217.729913,7031.956449,-10418.898773
872.564733,6883.915261,7105.977043,-10725.336972
872.565053,5847.626942,5847.626942,-10801.946522
872.565373,2442.679609,4145.153275,-10112.460574
872.565693,0.000000,2146.597232,-9959.241474
872.566013,-814.226536,370.102971,-10112.460574
872.566333,-1998.556043,148.041188,-9882.631924
872.566653,-2738.761985,222.061783,-9652.803275
872.566973,-1924.535449,1036.288319,-9806.022374
872.567293,222.061783,2516.700203,-10189.070123
872.567613,2294.638420,4663.297435,-9882.631924
872.567933,4515.256246,4959.379811,-10495.508323
872.568253,6957.935855,3849.070898,-10189.070123
872.568573,7994.224174,2442.679609,-10265.679673
872.568893,6587.832884,2072.576638,-10112.460574
872.569213,4145.153275,2664.741391,-10495.508323
872.569533,0.000000,3478.967927,-10189.070123
872.569853,-3330.926739,2812.782580,-9652.803275
872.570174,-4737.318029,1850.514855,-10189.070123
872.570494,-3997.112087,0.000000,-9346.365076
872.570814,-3997.112087,-1850.514855,-8503.660028
872.571134,-3108.864956,-1776.494261,-9193.145976
872.571454,740.205942,-666.185348,-9652.803275
872.571774,4515.256246,1036.288319,-9729.412825
872.572094,5551.544565,2516.700203,-9729.412825
872.572414,4219.173869,3701.029710,-10035.851024
872.572734,3404.947333,4293.194464,-9959.241474
872.573054,3849.070898,4367.215058,-10495.508323
