#time,accel_x,accel_y,accel_z
856.946757,592.164754,444.123565,-10189.070123
856.947077,370.102971,666.185348,-10189.070123
856.947397,222.061783,592.164754,-10035.851024
856.947717,296.082377,444.123565,-9959.241474
856.948037,444.123565,222.061783,-10955.165621
856.948357,518.144159,0.000000,-9806.022374
856.948677,444.123565,-444.123565,-9882.631924
856.948997,444.123565,148.041188,-10035.851024
856.949318,148.041188,888.247130,-8963.317327
856.949638,592.164754,518.144159,-10035.851024
856.949958,518.144159,666.185348,-9959.241474
856.950278,518.144159,0.000000,-9806.022374
856.950598,740.205942,-222.061783,-10112.460574
856.950918,1110.308913,-814.226536,-9499.584175
856.951238,592.164754,0.000000,-9959.241474
856.951558,1036.288319,444.123565,-9882.631924
856.951878,962.267725,666.185348,-10342.289223
856.952198,0.000000,1036.288319,-9499.584175
856.952518,-296.082377,74.020594,-10265.679673
856.952838,222.061783,-444.123565,-10189.070123
856.953158,888.247130,-296.082377,-10189.070123
856.953478,0.000000,74.020594,-10572.117872
856.953798,148.041188,666.185348,-10495.508323
856.954118,592.164754,1184.329507,-10035.851024
856.954438,888.247130,962.267725,-10495.508323
856.954758,444.123565,444.123565,-10342.289223
856.955078,148.041188,0.000000,-8733.488677
856.955398,0.000000,-296.082377,-9806.022374
856.955718,0.000000,74.020594,-10035.851024
856.956038,222.061783,222.061783,-10342.289223
856.956358,-592.164754,148.041188,-9882.631924
856.956678,-962.267725,74.020594,-9959.241474
856.956998,-592.164754,-518.144159,-9882.631924
856.957319,-296.082377,-592.164754,-10189.070123
856.957639,-666.185348,-592.164754,-9959.241474
856.957959,0.000000,-1628.453072,-10035.851024
856.958279,0.000000,-518.144159,-9959.241474
856.958599,-666.185348,-296.082377,-9806.022374
856.958919,-888.247130,-962.267725,-9882.631924
856.959239,-814.226536,-740.205942,-9499.584175
856.959559,-666.185348,-962.267725,-9882.631924
856.959879,-814.226536,-1184.329507,-9806.022374
856.960199,-1702.473667,-1628.453072,-10035.851024
856.960519,-2146.597232,-1332.370696,-10112.460574
856.960839,-1110.308913,-1480.411884,-9806.022374
856.961159,-888.247130,-888.247130,-9882.631924
856.961479,-1406.391290,-444.123565,-10189.070123
856.961799,-1554.432478,-1110.308913,-10112.460574
856.962119,-814.226536,-1406.391290,-9806.022374
856.962439,-74.020594,-1332.370696,-10342.289223
856.962759,-444.123565,-1628.453072,-10035.851024
856.963079,-2072.576638,-2516.700203,-10189.070123
856.963399,-2886.803174,-3256.906145,-9729.412825
856.963719,-2442.679609,-3404.947333,-9116.536426
856.964039,-1702.473667,-3034.844362,-9652.803275
856.964359,-1776.494261,-2960.823768,-10035.851024
856.964679,-2368.659014,-3182.885551,-10035.851024
856.964999,-1850.514855,-3108.864956,-8503.660028
856.965320,0.000000,-2738.761985,-9806.022374
856.965640,1110.308913,-2072.576638,-10265.679673
856.965960,592.164754,-1924.535449,-10342.289223
856.966280,-1258.350101,-2072.576638,-10112.460574
856.966600,-2220.617826,-2220.617826,-10189.070123
856.966920,-3108.864956,-2664.741391,-10189.070123
856.967240,-4663.297435,-3108.864956,-9806.022374
856.967560,-5329.482782,-4737.318029,-9499.584175
856.967880,-3997.112087,-5477.523971,-9499.584175
856.968200,-1924.535449,-6365.771101,-9882.631924
856.968520,-148.041188,-5033.400406,-10035.851024
856.968840,222.061783,-2590.720797,-10801.946522
856.969160,888.247130,-518.144159,-10495.508323
856.969480,2294.638420,1702.473667,-10648.727422
856.969800,1702.473667,2072.576638,-10878.556072
856.970120,814.226536,370.102971,-10572.117872
856.970440,-666.185348,-1924.535449,-10342.289223
856.970760,-2442.679609,-3701.029710,-10112.460574
856.971080,-4293.194464,-4071.132681,-10189.070123
856.971400,-5773.606348,-4293.194464,-9422.974625
856.971720,-5477.523971,-4737.318029,-9576.193725
856.972040,-3478.967927,-5329.482782,-8733.488677
856.972360,-740.205942,-4811.338623,-10035.851024
856.972680,1110.308913,-3034.844362,-9959.241474
856.973000,2146.597232,-666.185348,-10112.460574
856.973320,3478.967927,1850.514855,-10648.727422
856.973641,4663.297435,2738.761985,-10801.946522
856.973961,3627.009116,2886.803174,-10955.165621
856.974281,-370.102971,888.247130,-10648.727422
856.974601,-4515.256246,-2146.597232,-10189.070123
856.974921,-6513.812290,-4737.318029,-9652.803275
856.975241,-5255.462188,-6439.791695,-9652.803275
856.975561,-3775.050304,-6587.832884,-9422.974625
856.975881,-3404.947333,-5699.585753,-9499.584175
856.976201,-2294.638420,-3182.885551,-9652.803275
856.976521,444.123565,0.000000,-10495.508323
856.976841,2368.659014,2812.782580,-10648.727422
856.977161,3404.947333,5107.421000,-10955.165621
856.977481,2886.803174,4441.235652,-10725.336972
856.977801,3478.967927,1554.432478,-10648.727422
856.978121,814.226536,-740.205942,-10418.898773
856.978441,-2146.597232,-2294.638420,-10342.289223
856.978761,-4145.153275,-3256.906145,-9806.022374
856.979081,-5033.400406,-2886.803174,-9576.193725
856.979401,-6735.874072,-2738.761985,-9652.803275
856.979721,-7994.224174,-3404.947333,-9346.365076
856.980041,-6587.832884,-4663.297435,-9193.145976
856.980361,-1850.514855,-4811.338623,-9422.974625
856.980681,3108.864956,-3627.009116,-9729.412825
856.981001,3330.926739,222.061783,-10342.289223
856.981321,2368.659014,3108.864956,-10342.289223
856.981642,1480.411884,5107.421000,-10572.117872
856.981962,1110.308913,3775.050304,-10342.289223
856.982282,370.102971,592.164754,-10495.508323
856.982602,-1628.453072,-2368.659014,-10265.679673
856.982922,-5107.421000,-4885.359217,-10035.851024
856.983242,-7920.203579,-4737.318029,-9882.631924
856.983562,-9030.512492,-4811.338623,-9116.536426
856.983882,-7994.224174,-5181.441594,-9193.145976
856.984202,-3923.091493,-5033.400406,-8963.317327
856.984522,296.082377,-4515.256246,-10035.851024
856.984842,3256.906145,-2442.679609,-10035.851024
856.985162,3997.112087,0.000000,-10418.898773
856.985482,3997.112087,2664.741391,-10955.165621
856.985802,4293.194464,4293.194464,-10801.946522
856.986122,3775.050304,3404.947333,-11108.384721
856.986442,962.267725,370.102971,-12104.308868
856.986762,-3108.864956,-2368.659014,-10495.508323
856.987082,-6513.812290,-5329.482782,-10265.679673
856.987402,-7179.997637,-7772.162391,-9652.803275
856.987722,-6513.812290,-8734.430116,-8963.317327
856.988042,-5477.523971,-7328.038826,-9882.631924
856.988362,-4737.318029,-5551.544565,-9346.365076
856.988682,-2146.597232,-3404.947333,-9269.755526
856.989002,1628.453072,0.000000,-10112.460574
856.989322,6217.729913,888.247130,-10955.165621
856.989643,5921.647536,1628.453072,-11338.213370
856.989963,3330.926739,1110.308913,-10495.508323
856.990283,0.000000,444.123565,-10418.898773
856.990603,-1332.370696,-1554.432478,-10112.460574
856.990923,-2960.823768,-3627.009116,-10189.070123
856.991243,-5699.585753,-4959.379811,-10112.460574
856.991563,-8660.409521,-6291.750507,-9729.412825
856.991883,-7920.203579,-8290.306550,-9039.926876
856.992203,-3701.029710,-6883.915261,-9806.022374
856.992523,-814.226536,-3404.947333,-9806.022374
856.992843,-1480.411884,-1554.432478,-10189.070123
856.993163,-1110.308913,-888.247130,-9576.193725
856.993483,1406.391290,148.041188,-9882.631924
856.993803,3997.112087,1628.453072,-10495.508323
856.994123,4737.318029,1406.391290,-11031.775171
856.994443,2738.761985,222.061783,-10725.336972
856.994763,-518.144159,-2294.638420,-10189.070123
856.995083,-1998.556043,-4367.215058,-10189.070123
856.995403,-4145.153275,-3923.091493,-10342.289223
856.995723,-6587.832884,-4145.153275,-9652.803275
856.996043,-7772.162391,-4145.153275,-9576.193725
856.996363,-6069.688724,-3997.112087,-10189.070123
856.996683,-2738.761985,-2960.823768,-9729.412825
856.997003,-222.061783,-2220.617826,-10189.070123
856.997323,3034.844362,-1036.288319,-10572.117872
856.997643,4441.235652,-370.102971,-10495.508323
856.997964,2812.782580,1702.473667,-11414.822920
856.998284,1406.391290,4071.132681,-10265.679673
856.998604,1480.411884,3701.029710,-11414.822920
856.998924,2960.823768,2220.617826,-10878.556072
856.999244,-1628.453072,-518.144159,-10189.070123
856.999564,-3849.070898,-3997.112087,-9806.022374
856.999884,-5847.626942,-5699.585753,-9652.803275
857.000204,-4219.173869,-4811.338623,-9729.412825
857.000524,-3478.967927,-3034.844362,-9499.584175
857.000844,-4219.173869,-2072.576638,-9269.755526
857.001164,-1332.370696,-1110.308913,-9269.755526
857.001484,3034.844362,74.020594,-10112.460574
857.001804,5773.606348,2442.679609,-10112.460574
857.002124,5477.523971,4515.256246,-10725.336972
857.002444,3256.906145,3330.926739,-10725.336972
857.002764,1036.288319,1628.453072,-10035.851024
857.003084,-1406.391290,-1110.308913,-9652.803275
857.003404,-1924.535449,-2220.617826,-9729.412825
857.003724,-2516.700203,-3701.029710,-10035.851024
857.004044,-1184.329507,-3256.906145,-9806.022374
857.004364,-1924.535449,-2146.597232,-9806.022374
857.004684,-2146.597232,592.164754,-9806.022374
857.005004,-1702.473667,1036.288319,-9806.022374
857.005323,962.267725,1702.473667,-10265.679673
857.005643,2590.720797,2664.741391,-10495.508323
857.005963,2146.597232,2072.576638,-11721.261119
857.006283,3701.029710,1628.453072,-10648.727422
857.006603,3330.926739,1480.411884,-10495.508323
857.006923,2368.659014,2960.823768,-10801.946522
857.007243,-592.164754,2664.741391,-10801.946522
857.007563,-2886.803174,296.082377,-10342.289223
857.007882,-3478.967927,-3108.864956,-9882.631924
857.008202,-1776.494261,-3627.009116,-9806.022374
857.008522,740.205942,-3849.070898,-10112.460574
857.008842,962.267725,-1702.473667,-10112.460574
857.009162,-1110.308913,370.102971,-11184.994271
857.009482,-1036.288319,2368.659014,-9806.022374
857.009802,1998.556043,1480.411884,-9806.022374
857.010122,4515.256246,740.205942,-10112.460574
857.010441,5107.421000,666.185348,-10265.679673
857.010761,3256.906145,518.144159,-10725.336972
857.011081,814.226536,444.123565,-10418.898773
857.011401,-1628.453072,0.000000,-9576.193725
857.011721,-2442.679609,-1258.350101,-9039.926876
857.012041,-3627.009116,-2664.741391,-9116.536426
857.012361,-3256.906145,-2886.803174,-9116.536426
857.012680,-1776.494261,-2368.659014,-9652.803275
857.013000,592.164754,-1998.556043,-9806.022374
857.013320,2886.803174,-888.247130,-10112.460574
857.013640,2146.597232,0.000000,-9806.022374
857.013960,2368.659014,814.226536,-9806.022374
857.014280,1406.391290,1702.473667,-10342.289223
857.014600,592.164754,888.247130,-10418.898773
857.014920,888.247130,148.041188,-10189.070123
857.015239,444.123565,1036.288319,-10572.117872
857.015559,-518.144159,1184.329507,-10801.946522
857.015879,-1628.453072,74.020594,-10495.508323
857.016199,-3330.926739,-1702.473667,-10342.289223
857.016519,-3108.864956,-3330.926739,-9422.974625
857.016839,-1702.473667,-3552.988522,-10265.679673
857.017159,962.267725,-1924.535449,-10035.851024
857.017479,2664.741391,-814.226536,-9959.241474
857.017798,740.205942,2072.576638,-10112.460574
857.018118,1258.350101,3478.967927,-10495.508323
857.018438,1480.411884,2516.700203,-10725.336972
857.018758,370.102971,1480.411884,-10801.946522
857.019078,74.020594,1480.411884,-11491.432470
857.019398,962.267725,-518.144159,-10725.336972
857.019718,444.123565,-2294.638420,-10035.851024
857.020038,-148.041188,-2146.597232,-9959.241474
857.020357,-1480.411884,-1554.432478,-9806.022374
857.020677,-1998.556043,-666.185348,-10878.556072
857.020997,-370.102971,740.205942,-9882.631924
857.021317,370.102971,296.082377,-10342.289223
857.021637,296.082377,666.185348,-10189.070123
857.021957,296.082377,0.000000,-9806.022374
857.022277,2220.617826,1258.350101,-9499.584175
857.022597,4293.194464,74.020594,-9806.022374
857.022916,4219.173869,-1554.432478,-9882.631924
857.023236,2960.823768,-1924.535449,-9959.241474
857.023556,666.185348,-1702.473667,-9882.631924
857.023876,-1628.453072,-444.123565,-9499.584175
857.024196,-2368.659014,222.061783,-9806.022374
857.024516,-814.226536,370.102971,-9116.536426
857.024836,444.123565,-1036.288319,-9576.193725
857.025156,814.226536,-444.123565,-9652.803275
857.025475,1554.432478,-518.144159,-10112.460574
857.025795,2220.617826,1110.308913,-10572.117872
857.026115,1406.391290,2368.659014,-10035.851024
857.026435,1554.432478,3182.885551,-10495.508323
857.026755,1998.556043,2812.782580,-10265.679673
857.027075,1480.411884,1406.391290,-10342.289223
857.027395,888.247130,0.000000,-10572.117872
857.027714,888.247130,444.123565,-9882.631924
857.028034,-666.185348,222.061783,-10572.117872
857.028354,-1406.391290,-370.102971,-10418.898773
857.028674,-1184.329507,-370.102971,-9729.412825
857.028994,370.102971,-740.205942,-10035.851024
857.029314,-444.123565,518.144159,-10418.898773
857.029634,518.144159,1110.308913,-10725.336972
857.029954,1036.288319,1850.514855,-10955.165621
857.030273,2220.617826,1850.514855,-10725.336972
857.030593,2886.803174,3256.906145,-10495.508323
857.030913,3701.029710,2738.761985,-10878.556072
857.031233,1702.473667,296.082377,-10265.679673
857.031553,-222.061783,-1258.350101,-10112.460574
857.031873,-962.267725,-2220.617826,-10112.460574
857.032193,-1998.556043,-148.041188,-10035.851024
857.032513,-1924.535449,-592.164754,-9652.803275
857.032832,-1406.391290,-888.247130,-9499.584175
857.033152,-1258.350101,-1998.556043,-9576.193725
857.033472,74.020594,-1184.329507,-9652.803275
857.033792,370.102971,370.102971,-9652.803275
857.034112,1036.288319,1628.453072,-10265.679673
857.034432,518.144159,2294.638420,-9806.022374
857.034752,1036.288319,1924.535449,-9882.631924
857.035072,1184.329507,370.102971,-9652.803275
857.035391,148.041188,-666.185348,-9652.803275
857.035711,-1258.350101,-888.247130,-9806.022374
857.036031,-962.267725,-814.226536,-9576.193725
857.036351,-1332.370696,-148.041188,-9806.022374
857.036671,-1776.494261,-370.102971,-9806.022374
857.036991,-1406.391290,296.082377,-9729.412825
857.037311,-1110.308913,-814.226536,-9959.241474
857.037631,962.267725,-1924.535449,-9806.022374
857.037950,2516.700203,0.000000,-10112.460574
857.038270,2886.803174,1480.411884,-10495.508323
857.038590,1554.432478,2220.617826,-10878.556072
857.038910,962.267725,2368.659014,-10955.165621
857.039230,2294.638420,1702.473667,-10418.898773
857.039550,2220.617826,1258.350101,-10955.165621
857.039870,296.082377,1480.411884,-10801.946522
857.040190,-1110.308913,-592.164754,-10495.508323
857.040509,-148.041188,-814.226536,-10342.289223
857.040829,-814.226536,-1480.411884,-9959.241474
857.041149,518.144159,-740.205942,-10035.851024
857.041469,2146.597232,74.020594,-10418.898773
857.041789,2738.761985,0.000000,-8733.488677
857.042109,3775.050304,1554.432478,-10418.898773
857.042429,3330.926739,2442.679609,-10265.679673
857.042748,2146.597232,2294.638420,-10955.165621
857.043068,1702.473667,1110.308913,-9499.584175
857.043388,1258.350101,1776.494261,-9806.022374
857.043708,1036.288319,-222.061783,-10189.070123
857.044028,74.020594,-1850.514855,-9116.536426
857.044348,0.000000,-2516.700203,-9576.193725
857.044668,0.000000,-2146.597232,-9652.803275
857.044988,518.144159,-1776.494261,-9959.241474
857.045307,666.185348,-222.061783,-9422.974625
857.045627,1406.391290,2146.597232,-9806.022374
857.045947,666.185348,1998.556043,-9652.803275
857.046267,814.226536,1406.391290,-10265.679673
857.046587,1850.514855,888.247130,-10112.460574
857.046907,1628.453072,0.000000,-10725.336972
857.047227,148.041188,0.000000,-10418.898773
857.047547,-814.226536,0.000000,-10495.508323
857.047866,-888.247130,-370.102971,-10648.727422
857.048186,-962.267725,0.000000,-10265.679673
857.048506,-740.205942,-296.082377,-10112.460574
857.048826,-1110.308913,0.000000,-10572.117872
857.049146,-814.226536,2664.741391,-10265.679673
857.049466,814.226536,1850.514855,-10878.556072
857.049786,2960.823768,1184.329507,-10495.508323
857.050106,1924.535449,-148.041188,-10265.679673
857.050425,666.185348,-444.123565,-11338.213370
857.050745,0.000000,814.226536,-10572.117872
857.051065,0.000000,1184.329507,-10112.460574
857.051385,222.061783,2960.823768,-10495.508323
857.051705,-518.144159,3552.988522,-10035.851024
857.052025,-666.185348,1110.308913,-10648.727422
857.052345,-888.247130,-1036.288319,-9652.803275
857.052665,-1332.370696,-2664.741391,-10035.851024
857.052984,148.041188,-2442.679609,-9806.022374
857.053304,-148.041188,-444.123565,-9422.974625
857.053624,222.061783,666.185348,-9806.022374
857.053944,814.226536,814.226536,-9499.584175
857.054264,962.267725,1406.391290,-10495.508323
857.054584,222.061783,2590.720797,-11031.775171
857.054904,222.061783,74.020594,-9652.803275
857.055224,1850.514855,0.000000,-10189.070123
857.055543,1184.329507,-518.144159,-10035.851024
857.055863,-296.082377,-1332.370696,-10342.289223
857.056183,-592.164754,-2664.741391,-10495.508323
857.056503,-1554.432478,-1702.473667,-9652.803275
857.056823,-814.226536,1184.329507,-10265.679673
857.057143,-518.144159,814.226536,-10418.898773
857.057463,1554.432478,370.102971,-10035.851024
857.057782,962.267725,666.185348,-10189.070123
857.058102,962.267725,296.082377,-10189.070123
857.058422,2146.597232,666.185348,-10495.508323
857.058742,2368.659014,592.164754,-10418.898773
857.059062,814.226536,814.226536,-10648.727422
857.059382,-296.082377,1036.288319,-10189.070123
857.059702,-444.123565,74.020594,-10265.679673
857.060022,-148.041188,888.247130,-9882.631924
857.060341,1850.514855,296.082377,-9959.241474
857.060661,2516.700203,74.020594,-10572.117872
857.060981,2072.576638,962.267725,-10265.679673
857.061301,0.000000,296.082377,-10035.851024
857.061621,0.000000,0.000000,-9806.022374
857.061941,-148.041188,222.061783,-10035.851024
857.062261,1702.473667,0.000000,-9882.631924
857.062581,2146.597232,1850.514855,-10265.679673
857.062900,1184.329507,2664.741391,-10342.289223
857.063220,1628.453072,2442.679609,-8886.707777
857.063540,1776.494261,666.185348,-9882.631924
857.063860,592.164754,296.082377,-9882.631924
857.064180,0.000000,-666.185348,-9806.022374
857.064500,592.164754,-1628.453072,-9806.022374
857.064820,888.247130,-1332.370696,-9422.974625
857.065140,-296.082377,0.000000,-9729.412825
857.065459,0.000000,1702.473667,-10035.851024
857.065779,222.061783,2886.803174,-10725.336972
857.066099,962.267725,2590.720797,-12104.308868
857.066419,2220.617826,962.267725,-10495.508323
857.066739,1184.329507,-1628.453072,-9576.193725
857.067059,888.247130,-1628.453072,-9806.022374
857.067379,-222.061783,-1406.391290,-9499.584175
857.067699,148.041188,-1184.329507,-10495.508323
857.068018,0.000000,1184.329507,-10572.117872
857.068338,-592.164754,1332.370696,-10342.289223
857.068658,148.041188,1998.556043,-9729.412825
857.068978,296.082377,518.144159,-9806.022374
857.069298,1184.329507,-370.102971,-9576.193725
857.069618,814.226536,962.267725,-10265.679673
857.069938,-296.082377,370.102971,-10189.070123
857.070257,888.247130,1184.329507,-10342.289223
857.070577,0.000000,3108.864956,-10112.460574
857.070897,518.144159,3330.926739,-10572.117872
857.071217,2220.617826,1998.556043,-9806.022374
857.071537,888.247130,-296.082377,-10265.679673
857.071857,1998.556043,-1628.453072,-9806.022374
857.072177,518.144159,-2146.597232,-9806.022374
857.072497,-1776.494261,-370.102971,-10112.460574
857.072816,-1258.350101,0.000000,-9806.022374
857.073136,74.020594,518.144159,-10035.851024
857.073456,1924.535449,666.185348,-9806.022374
857.073776,1184.329507,-592.164754,-10265.679673
857.074096,666.185348,-592.164754,-10112.460574
857.074416,0.000000,740.205942,-9652.803275
857.074736,0.000000,962.267725,-9959.241474
857.075056,2294.638420,370.102971,-9422.974625
857.075375,2812.782580,-1110.308913,-10418.898773
857.075695,1480.411884,-1184.329507,-9729.412825
857.076015,1332.370696,-740.205942,-11031.775171
857.076335,1850.514855,0.000000,-10342.289223
857.076655,2368.659014,1110.308913,-9882.631924
857.076975,74.020594,2072.576638,-10342.289223
857.077295,-148.041188,1924.535449,-10189.070123
857.077615,814.226536,2368.659014,-10572.117872
857.077934,-444.123565,1406.391290,-9959.241474
857.078254,1702.473667,518.144159,-10342.289223
857.078574,2368.659014,518.144159,-10035.851024
857.078894,1406.391290,-148.041188,-9806.022374
857.079214,1036.288319,-814.226536,-10265.679673
857.079534,1332.370696,888.247130,-10878.556072
857.079854,0.000000,2516.700203,-10878.556072
857.080174,-666.185348,5107.421000,-10955.165621
857.080493,-1702.473667,5329.482782,-11031.775171
857.080813,-2442.679609,4293.194464,-11031.775171
857.081133,-1850.514855,2516.700203,-10572.117872
857.081453,0.000000,0.000000,-9652.803275
857.081773,1110.308913,-1036.288319,-9652.803275
857.082093,296.082377,-2664.741391,-9576.193725
857.082413,370.102971,-1258.350101,-9576.193725
857.082733,-222.061783,1258.350101,-10265.679673
857.083052,444.123565,962.267725,-9882.631924
857.083372,148.041188,1110.308913,-9806.022374
857.083692,-814.226536,74.020594,-9269.755526
857.084012,592.164754,222.061783,-9729.412825
857.084332,888.247130,0.000000,-9959.241474
857.084652,222.061783,-148.041188,-9806.022374
857.084972,-592.164754,148.041188,-9346.365076
857.085291,-962.267725,222.061783,-9652.803275
857.085611,814.226536,-1258.350101,-9422.974625
857.085931,1628.453072,-814.226536,-10265.679673
857.086251,1258.350101,518.144159,-10189.070123
857.086571,148.041188,1406.391290,-9806.022374
857.086891,-518.144159,2368.659014,-10495.508323
857.087211,370.102971,1850.514855,-10418.898773
857.087531,1036.288319,1628.453072,-11108.384721
857.087850,592.164754,592.164754,-10495.508323
857.088170,370.102971,-2220.617826,-9806.022374
857.088490,370.102971,-2220.617826,-9959.241474
857.088810,-444.123565,-1850.514855,-10112.460574
857.089130,0.000000,666.185348,-10189.070123
857.089450,888.247130,2220.617826,-10265.679673
857.089770,3330.926739,1850.514855,-10572.117872
857.090090,3997.112087,740.205942,-10495.508323
857.090409,2886.803174,-888.247130,-10418.898773
857.090729,1258.350101,-888.247130,-10265.679673
857.091049,962.267725,-888.247130,-10572.117872
857.091369,-592.164754,592.164754,-10572.117872
857.091689,-2368.659014,888.247130,-10418.898773
857.092009,518.144159,-592.164754,-10035.851024
857.092329,1554.432478,148.041188,-10418.898773
857.092649,2072.576638,-148.041188,-10112.460574
857.092968,1332.370696,74.020594,-10418.898773
857.093288,-666.185348,370.102971,-10495.508323
857.093608,-518.144159,296.082377,-9806.022374
857.093928,0.000000,0.000000,-9806.022374
857.094248,592.164754,-592.164754,-10112.460574
857.094568,0.000000,-1924.535449,-9729.412825
857.094888,-148.041188,-666.185348,-10035.851024
857.095208,518.144159,370.102971,-10112.460574
857.095527,0.000000,2368.659014,-10112.460574
857.095847,0.000000,1850.514855,-9576.193725
857.096167,518.144159,-518.144159,-10112.460574
857.096487,-666.185348,-1554.432478,-9422.974625
857.096807,-1776.494261,-1702.473667,-9652.803275
857.097127,-1036.288319,-888.247130,-9729.412825
857.097447,222.061783,370.102971,-9116.536426
857.097767,518.144159,1480.411884,-10035.851024
857.098086,518.144159,518.144159,-10112.460574
857.098406,814.226536,518.144159,-10112.460574
857.098726,148.041188,814.226536,-10189.070123
857.099046,1258.350101,1184.329507,-10572.117872
857.099366,1924.535449,1702.473667,-10955.165621
857.099686,1036.288319,1332.370696,-10265.679673
857.100006,-814.226536,1036.288319,-10112.460574
857.100325,74.020594,0.000000,-10189.070123
857.100645,1480.411884,296.082377,-10725.336972
857.100965,296.082377,0.000000,-10572.117872
857.101285,-962.267725,1258.350101,-11261.603821
857.101605,-222.061783,2368.659014,-10189.070123
857.101925,0.000000,2368.659014,-10648.727422
857.102245,222.061783,2072.576638,-10418.898773
857.102565,222.061783,370.102971,-9959.241474
857.102884,0.000000,-518.144159,-9959.241474
857.103204,1480.411884,-666.185348,-9346.365076
857.103524,2368.659014,370.102971,-9806.022374
857.103844,2738.761985,1924.535449,-10189.070123
857.104164,2590.720797,2368.659014,-10112.460574
857.104484,2368.659014,1480.411884,-9959.241474
857.104804,2220.617826,-370.102971,-9652.803275
857.105124,1036.288319,-888.247130,-9729.412825
857.105443,222.061783,-296.082377,-9806.022374
857.105763,814.226536,1258.350101,-9882.631924
857.106083,888.247130,1332.370696,-9806.022374
857.106403,1998.556043,1998.556043,-10189.070123
857.106723,1850.514855,1554.432478,-10112.460574
857.107043,1110.308913,962.267725,-10035.851024
857.107363,740.205942,444.123565,-10801.946522
857.107683,1110.308913,-592.164754,-9882.631924
857.108003,962.267725,0.000000,-9882.631924
857.108323,0.000000,296.082377,-9882.631924
857.108643,0.000000,1258.350101,-10265.679673
857.108963,-518.144159,1406.391290,-10342.289223
857.109283,-666.185348,0.000000,-10189.070123
857.109603,0.000000,0.000000,-10112.460574
857.109923,0.000000,0.000000,-10342.289223
857.110243,1110.308913,-370.102971,-10572.117872
857.110563,1258.350101,-592.164754,-10265.679673
857.110883,74.020594,-592.164754,-10189.070123
857.111203,-148.041188,-222.061783,-10189.070123
857.111523,-740.205942,-296.082377,-9882.631924
857.111843,148.041188,-1036.288319,-10495.508323
857.112163,888.247130,-666.185348,-10035.851024
857.112483,-592.164754,518.144159,-10572.117872
857.112803,-1332.370696,1850.514855,-9806.022374
857.113123,-1036.288319,3034.844362,-10265.679673
857.113443,0.000000,2516.700203,-10418.898773
857.113763,814.226536,296.082377,-10112.460574
857.114083,1036.288319,-3330.926739,-9806.022374
857.114403,0.000000,-4589.276840,-9422.974625
857.114723,0.000000,-3108.864956,-9729.412825
857.115043,-592.164754,-296.082377,-9576.193725
857.115363,0.000000,1258.350101,-10189.070123
857.115683,1184.329507,1998.556043,-10189.070123
857.116003,1332.370696,592.164754,-10112.460574
857.116323,1332.370696,-1036.288319,-10342.289223
857.116643,296.082377,-1628.453072,-9806.022374
857.116963,-962.267725,-888.247130,-9806.022374
857.117283,-666.185348,-1036.288319,-9806.022374
857.117603,-518.144159,-1628.453072,-9806.022374
857.117923,-740.205942,-2220.617826,-9959.241474
857.118243,-222.061783,-1924.535449,-10265.679673
857.118563,296.082377,-296.082377,-10725.336972
857.118883,74.020594,2960.823768,-10878.556072
857.119203,0.000000,4441.235652,-10648.727422
857.119523,-1036.288319,2960.823768,-10725.336972
857.119843,-1406.391290,0.000000,-10495.508323
857.120163,-1110.308913,-2442.679609,-9882.631924
857.120483,444.123565,-1998.556043,-10265.679673
857.120803,1628.453072,1258.350101,-10495.508323
857.121123,1702.473667,1776.494261,-10035.851024
857.121443,2960.823768,1332.370696,-10189.070123
857.121763,1850.514855,518.144159,-9959.241474
857.122083,592.164754,-1332.370696,-9346.365076
857.122403,0.000000,-1702.473667,-9806.022374
857.122723,-666.185348,-222.061783,-10035.851024
857.123043,-444.123565,296.082377,-9806.022374
857.123363,370.102971,592.164754,-9959.241474
857.123683,2590.720797,-592.164754,-9652.803275
857.124002,2590.720797,-666.185348,-9729.412825
857.124322,2516.700203,148.041188,-10342.289223
857.124642,2146.597232,1184.329507,-11338.213370
857.124962,1480.411884,3404.947333,-10572.117872
857.125282,518.144159,3923.091493,-10418.898773
857.125602,888.247130,3034.844362,-10189.070123
857.125922,1110.308913,2442.679609,-9882.631924
857.126242,962.267725,2368.659014,-10418.898773
857.126562,1480.411884,2812.782580,-10878.556072
857.126882,1924.535449,2368.659014,-10955.165621
857.127202,1480.411884,1258.350101,-9882.631924
857.127522,370.102971,-888.247130,-9806.022374
857.127842,222.061783,-1924.535449,-9269.755526
857.128162,592.164754,-1850.514855,-9652.803275
857.128482,1480.411884,-1036.288319,-9959.241474
857.128802,1850.514855,518.144159,-9576.193725
857.129122,444.123565,2146.597232,-9806.022374
857.129442,0.000000,2146.597232,-9576.193725
857.129762,444.123565,1850.514855,-9806.022374
857.130082,1480.411884,0.000000,-9882.631924
857.130402,2294.638420,-1258.350101,-9959.241474
857.130722,518.144159,-2294.638420,-9882.631924
857.131042,-222.061783,-2368.659014,-9576.193725
857.131362,-1702.473667,-888.247130,-9576.193725
857.131682,-2886.803174,888.247130,-9806.022374
857.132002,-814.226536,1480.411884,-10035.851024
857.132322,740.205942,1924.535449,-10035.851024
857.132642,814.226536,1850.514855,-10035.851024
857.132962,1628.453072,1998.556043,-10495.508323
857.133282,1702.473667,666.185348,-10189.070123
857.133602,962.267725,-444.123565,-9959.241474
857.133922,74.020594,-1258.350101,-9806.022374
857.134242,74.020594,-740.205942,-9882.631924
857.134562,-1332.370696,-444.123565,-11414.822920
857.134882,-1776.494261,0.000000,-10342.289223
857.135202,-518.144159,962.267725,-10495.508323
857.135522,370.102971,1258.350101,-10572.117872
857.135842,1258.350101,888.247130,-10572.117872
857.136162,1406.391290,444.123565,-10801.946522
857.136482,1110.308913,-666.185348,-10495.508323
857.136802,296.082377,-1554.432478,-10189.070123
857.137122,-888.247130,-1924.535449,-10265.679673
857.137442,-444.123565,-1406.391290,-10189.070123
857.137762,74.020594,-296.082377,-10189.070123
857.138082,814.226536,148.041188,-10572.117872
857.138402,1110.308913,1258.350101,-10112.460574
857.138722,-666.185348,1036.288319,-10572.117872
857.139042,-1554.432478,296.082377,-9882.631924
857.139362,-1258.350101,-2664.741391,-9806.022374
857.139682,148.041188,-2812.782580,-10112.460574
857.140002,74.020594,-1998.556043,-9806.022374
857.140322,1110.308913,0.000000,-9346.365076
857.140642,1184.329507,1702.473667,-9959.241474
857.140962,1036.288319,2072.576638,-10112.460574
857.141282,962.267725,1850.514855,-9959.241474
857.141602,1554.432478,-222.061783,-9882.631924
857.141922,-296.082377,-370.102971,-9576.193725
857.142242,-592.164754,-740.205942,-10035.851024
857.142562,-740.205942,0.000000,-9806.022374
857.142882,-1258.350101,74.020594,-10035.851024
857.143202,592.164754,1036.288319,-9193.145976
857.143522,2960.823768,222.061783,-9882.631924
857.143842,2146.597232,444.123565,-11261.603821
857.144162,1332.370696,814.226536,-10035.851024
857.144482,0.000000,1702.473667,-10342.289223
857.144802,1406.391290,1924.535449,-10189.070123
857.145122,1628.453072,1036.288319,-10112.460574
857.145442,518.144159,0.000000,-10495.508323
857.145762,740.205942,-2072.576638,-10189.070123
857.146081,1110.308913,-1406.391290,-10112.460574
857.146401,370.102971,1036.288319,-9959.241474
857.146721,1406.391290,2516.700203,-9959.241474
857.147041,3256.906145,2072.576638,-10648.727422
857.147361,3923.091493,444.123565,-10495.508323
857.147681,1480.411884,-1184.329507,-10418.898773
857.148001,-370.102971,-1258.350101,-10189.070123
857.148321,-1406.391290,-592.164754,-9959.241474
857.148641,0.000000,814.226536,-10265.679673
857.148961,1628.453072,1776.494261,-10495.508323
857.149281,0.000000,1332.370696,-9806.022374
857.149601,-1406.391290,592.164754,-9959.241474
857.149921,-148.041188,-148.041188,-10265.679673
857.150241,666.185348,1480.411884,-8963.317327
857.150561,-370.102971,666.185348,-9882.631924
857.150881,444.123565,814.226536,-9422.974625
857.151201,1258.350101,222.061783,-9806.022374
857.151521,1480.411884,-740.205942,-9806.022374
857.151841,1110.308913,-444.123565,-9116.536426
857.152161,814.226536,-296.082377,-10112.460574
857.152481,1406.391290,1036.288319,-9729.412825
857.152801,962.267725,1036.288319,-9959.241474
857.153121,222.061783,2220.617826,-9806.022374
857.153441,-444.123565,370.102971,-9959.241474
857.153761,-222.061783,-148.041188,-10189.070123
857.154081,-370.102971,-222.061783,-9882.631924
857.154401,740.205942,-444.123565,-10418.898773
857.154721,1110.308913,-888.247130,-9806.022374
857.155041,-592.164754,-1184.329507,-10035.851024
857.155361,74.020594,-296.082377,-10265.679673
857.155681,0.000000,370.102971,-10265.679673
857.156001,-1036.288319,1258.350101,-10342.289223
857.156321,296.082377,1480.411884,-10495.508323
857.156641,666.185348,2146.597232,-10725.336972
857.156961,444.123565,222.061783,-10418.898773
857.157281,370.102971,-2220.617826,-10112.460574
857.157601,0.000000,-3034.844362,-10035.851024
857.157921,296.082377,-2812.782580,-9576.193725
857.158241,962.267725,-296.082377,-10572.117872
857.158561,592.164754,1850.514855,-10572.117872
857.158881,444.123565,3182.885551,-10648.727422
857.159201,-888.247130,3108.864956,-10801.946522
857.159521,888.247130,0.000000,-10572.117872
857.159841,1776.494261,-1924.535449,-10572.117872
857.160161,-296.082377,-3256.906145,-10418.898773
857.160481,444.123565,-1776.494261,-10112.460574
857.160801,-814.226536,0.000000,-9806.022374
857.161121,-1554.432478,2368.659014,-10418.898773
857.161441,0.000000,2738.761985,-10035.851024
857.161761,-740.205942,2146.597232,-9959.241474
857.162081,740.205942,0.000000,-10189.070123
857.162401,148.041188,-2146.597232,-9652.803275
857.162721,296.082377,-2368.659014,-9806.022374
857.163041,592.164754,-1406.391290,-10572.117872
857.163361,592.164754,-1036.288319,-9499.584175
857.163681,2072.576638,-740.205942,-9499.584175
857.164001,2146.597232,148.041188,-9729.412825
857.164321,1258.350101,2072.576638,-10265.679673
857.164641,0.000000,1998.556043,-11031.775171
857.164961,518.144159,1036.288319,-10495.508323
857.165281,444.123565,814.226536,-10418.898773
857.165601,1184.329507,-1332.370696,-9806.022374
857.165921,1258.350101,-1036.288319,-10572.117872
857.166241,0.000000,0.000000,-10112.460574
857.166561,148.041188,1702.473667,-10265.679673
857.166881,1924.535449,2664.741391,-10495.508323
857.167201,2072.576638,2294.638420,-10572.117872
857.167521,1258.350101,1036.288319,-11031.775171
857.167841,814.226536,740.205942,-10725.336972
857.168160,1628.453072,-222.061783,-10112.460574
857.168480,2590.720797,962.267725,-10955.165621
857.168800,2146.597232,2886.803174,-10572.117872
857.169120,222.061783,5255.462188,-10878.556072
857.169440,0.000000,5255.462188,-11261.603821
857.169760,148.041188,3182.885551,-10342.289223
857.170080,740.205942,-666.185348,-10035.851024
857.170400,1850.514855,-2442.679609,-9576.193725
857.170720,888.247130,-3775.050304,-9269.755526
857.171040,740.205942,-2590.720797,-9652.803275
857.171360,592.164754,-740.205942,-9806.022374
857.171680,-296.082377,1036.288319,-9499.584175
857.172000,-592.164754,2146.597232,-10112.460574
857.172320,-296.082377,1776.494261,-9499.584175
857.172640,-740.205942,1406.391290,-9652.803275
857.172960,-1036.288319,518.144159,-9806.022374
857.173280,518.144159,-1924.535449,-9269.755526
857.173600,1480.411884,-2590.720797,-9422.974625
857.173920,2368.659014,-2812.782580,-9039.926876
857.174240,2072.576638,-1184.329507,-9499.584175
857.174560,-444.123565,962.267725,-9652.803275
857.174880,-1702.473667,2146.597232,-9576.193725
857.175200,-1554.432478,2738.761985,-10035.851024
857.175520,0.000000,2146.597232,-9959.241474
857.175840,444.123565,74.020594,-9806.022374
857.176160,666.185348,-740.205942,-10342.289223
857.176480,666.185348,-1850.514855,-10112.460574
857.176800,1480.411884,-1702.473667,-9882.631924
857.177120,296.082377,-592.164754,-10418.898773
857.177440,-370.102971,518.144159,-10112.460574
857.177760,-1702.473667,2220.617826,-10801.946522
857.178080,-740.205942,2442.679609,-10801.946522
857.178400,1184.329507,1480.411884,-11031.775171
857.178720,1850.514855,222.061783,-11031.775171
857.179040,1184.329507,-1850.514855,-10801.946522
857.179360,592.164754,-1776.494261,-10495.508323
857.179680,222.061783,-1480.411884,-10801.946522
857.180000,370.102971,0.000000,-10495.508323
857.180320,-296.082377,1480.411884,-10418.898773
857.180640,962.267725,2072.576638,-10648.727422
857.180960,1184.329507,962.267725,-10418.898773
857.181280,740.205942,0.000000,-10112.460574
857.181600,0.000000,-1036.288319,-9806.022374
857.181920,296.082377,-1110.308913,-9806.022374
857.182240,-518.144159,-740.205942,-9576.193725
857.182560,-592.164754,-1332.370696,-9806.022374
857.182880,-222.061783,-1776.494261,-9806.022374
857.183200,-592.164754,-2886.803174,-9346.365076
857.183520,0.000000,-1776.494261,-9499.584175
857.183840,0.000000,-444.123565,-9499.584175
857.184160,518.144159,1110.308913,-9806.022374
857.184480,1332.370696,1628.453072,-9193.145976
857.184800,2294.638420,592.164754,-9576.193725
857.185120,1924.535449,-1702.473667,-9346.365076
857.185440,0.000000,-2220.617826,-9422.974625
857.185760,-1406.391290,-1110.308913,-8503.660028
857.186080,-1258.350101,148.041188,-10035.851024
857.186400,0.000000,814.226536,-9882.631924
857.186720,0.000000,962.267725,-10265.679673
857.187040,0.000000,740.205942,-10418.898773
857.187360,1110.308913,222.061783,-10418.898773
857.187680,1406.391290,740.205942,-11031.775171
857.188000,1702.473667,1184.329507,-10725.336972
857.188320,2368.659014,1850.514855,-11108.384721
857.188640,1776.494261,2664.741391,-10648.727422
857.188960,1702.473667,2368.659014,-10495.508323
857.189280,1554.432478,1036.288319,-10495.508323
857.189600,2072.576638,-222.061783,-10495.508323
857.189920,1850.514855,148.041188,-10725.336972
857.190239,-296.082377,-370.102971,-10112.460574
857.190559,-296.082377,518.144159,-9882.631924
857.190879,-370.102971,1628.453072,-10189.070123
857.191199,1406.391290,2516.700203,-9806.022374
857.191519,1628.453072,2368.659014,-10495.508323
857.191839,2146.597232,1036.288319,-10035.851024
857.192159,2072.576638,-370.102971,-9806.022374
857.192479,1998.556043,222.061783,-9806.022374
857.192799,962.267725,1184.329507,-9652.803275
857.193119,-444.123565,1554.432478,-9269.755526
857.193439,-814.226536,814.226536,-9806.022374
857.193759,-370.102971,-296.082377,-9346.365076
857.194079,518.144159,-296.082377,-9193.145976
857.194399,1406.391290,0.000000,-9806.022374
857.194719,2072.576638,592.164754,-9806.022374
857.195039,2516.700203,666.185348,-9882.631924
857.195359,2072.576638,296.082377,-9576.193725
857.195679,444.123565,148.041188,-9729.412825
857.195999,-518.144159,74.020594,-10801.946522
857.196319,-1258.350101,1258.350101,-10035.851024
857.196639,-592.164754,2220.617826,-10572.117872
857.196959,-888.247130,1776.494261,-10035.851024
857.197279,-592.164754,1628.453072,-9882.631924
857.197599,222.061783,-296.082377,-10495.508323
857.197919,1332.370696,-740.205942,-10648.727422
857.198239,888.247130,74.020594,-10725.336972
857.198559,-444.123565,148.041188,-11797.870669
857.198879,-888.247130,1628.453072,-10955.165621
857.199199,-962.267725,1702.473667,-10801.946522
857.199519,-740.205942,1184.329507,-10418.898773
857.199839,518.144159,-148.041188,-10495.508323
857.200159,814.226536,-222.061783,-11797.870669
857.200479,592.164754,-1554.432478,-10342.289223
857.200799,592.164754,-296.082377,-10725.336972
857.201119,-370.102971,222.061783,-10418.898773
857.201439,-888.247130,1184.329507,-9729.412825
857.201759,-370.102971,370.102971,-9806.022374
857.202079,74.020594,-444.123565,-9806.022374
857.202399,74.020594,-592.164754,-9806.022374
857.202719,148.041188,-740.205942,-9806.022374
857.203039,814.226536,296.082377,-9882.631924
857.203359,740.205942,0.000000,-9729.412825
857.203679,296.082377,-222.061783,-9346.365076
857.203999,370.102971,-666.185348,-9116.536426
857.204319,-148.041188,-962.267725,-9193.145976
857.204639,-740.205942,-592.164754,-9959.241474
857.204959,444.123565,-296.082377,-9576.193725
857.205245,-370.102971,222.061783,-9729.412825
857.205565,1036.288319,518.144159,-9806.022374
857.205885,2368.659014,444.123565,-9039.926876
857.206205,1924.535449,-592.164754,-10265.679673
857.206524,1850.514855,-592.164754,-10265.679673
857.206844,1480.411884,-296.082377,-10342.289223
857.207164,888.247130,1184.329507,-10265.679673
857.207484,592.164754,1480.411884,-10725.336972
857.207804,74.020594,888.247130,-10572.117872
857.208124,1184.329507,-148.041188,-10418.898773
857.208444,1480.411884,0.000000,-10801.946522
857.208764,0.000000,0.000000,-10648.727422
857.209084,0.000000,-296.082377,-11108.384721
857.209404,444.123565,814.226536,-11031.775171
857.209724,592.164754,1924.535449,-11031.775171
857.210044,444.123565,2960.823768,-10801.946522
857.210364,518.144159,2812.782580,-11108.384721
857.210684,592.164754,1924.535449,-10955.165621
857.211004,1850.514855,222.061783,-11184.994271
857.211324,2960.823768,0.000000,-10648.727422
857.211644,1554.432478,0.000000,-9882.631924
857.211964,0.000000,888.247130,-9729.412825
857.212284,0.000000,1998.556043,-9959.241474
857.212604,962.267725,2072.576638,-9116.536426
857.212924,74.020594,1332.370696,-9729.412825
857.213244,518.144159,0.000000,-9193.145976
857.213564,962.267725,-2220.617826,-8963.317327
857.213884,1480.411884,-2590.720797,-8503.660028
857.214204,1258.350101,-1776.494261,-8273.831378
857.214524,1184.329507,0.000000,-8963.317327
857.214844,740.205942,518.144159,-9116.536426
857.215164,444.123565,1036.288319,-9346.365076
857.215484,222.061783,740.205942,-9882.631924
857.215804,370.102971,1258.350101,-9729.412825
857.216124,814.226536,1850.514855,-9729.412825
857.216444,2072.576638,666.185348,-9959.241474
857.216764,2368.659014,-148.041188,-9806.022374
857.217084,1036.288319,-592.164754,-10035.851024
857.217404,296.082377,-518.144159,-10572.117872
857.217724,-592.164754,740.205942,-10955.165621
857.218044,-2146.597232,1628.453072,-10801.946522
857.218364,-1776.494261,2664.741391,-10801.946522
857.218684,-888.247130,1850.514855,-11261.603821
857.219004,-740.205942,1258.350101,-10801.946522
857.219324,-1702.473667,1332.370696,-11184.994271
857.219644,-1332.370696,1110.308913,-11414.822920
857.219964,444.123565,1332.370696,-10955.165621
857.220284,814.226536,740.205942,-10725.336972
857.220604,1480.411884,0.000000,-10878.556072
857.220924,888.247130,-888.247130,-10572.117872
857.221244,740.205942,-1332.370696,-9806.022374
857.221564,1184.329507,0.000000,-10801.946522
857.221884,1184.329507,1850.514855,-10189.070123
857.222204,-666.185348,2368.659014,-10112.460574
857.222524,-814.226536,1184.329507,-9882.631924
857.222844,592.164754,-222.061783,-9576.193725
857.223164,518.144159,-1998.556043,-9576.193725
857.223484,-444.123565,-2294.638420,-9422.974625
857.223804,222.061783,-2368.659014,-9499.584175
857.224123,0.000000,-1110.308913,-9269.755526
857.224443,0.000000,-296.082377,-9116.536426
857.224763,-370.102971,592.164754,-9269.755526
857.225083,-518.144159,-296.082377,-9269.755526
857.225403,518.144159,148.041188,-9576.193725
857.225723,2072.576638,-444.123565,-9806.022374
857.226043,2812.782580,296.082377,-10035.851024
857.226363,888.247130,-1036.288319,-9729.412825
857.226683,0.000000,-1406.391290,-9652.803275
857.227003,0.000000,-1776.494261,-9576.193725
857.227323,1554.432478,-592.164754,-10418.898773
857.227643,740.205942,1332.370696,-10572.117872
857.227963,666.185348,1628.453072,-11184.994271
857.228283,0.000000,1776.494261,-10801.946522
857.228603,-148.041188,888.247130,-10418.898773
857.228923,518.144159,74.020594,-10648.727422
857.229243,1628.453072,-666.185348,-10648.727422
857.229563,814.226536,148.041188,-10955.165621
857.229883,-296.082377,666.185348,-10725.336972
857.230203,-592.164754,1036.288319,-10495.508323
857.230523,-444.123565,1406.391290,-10725.336972
857.230843,-148.041188,296.082377,-10418.898773
857.231163,592.164754,518.144159,-10265.679673
857.231483,1924.535449,962.267725,-10418.898773
857.231803,2960.823768,1036.288319,-10265.679673
857.232123,1554.432478,518.144159,-10495.508323
857.232443,370.102971,74.020594,-9499.584175
857.232763,814.226536,-444.123565,-9269.755526
857.233083,2368.659014,74.020594,-9346.365076
857.233403,1924.535449,0.000000,-9576.193725
857.233723,444.123565,-814.226536,-9193.145976
857.234043,-148.041188,-962.267725,-9346.365076
857.234363,1184.329507,-296.082377,-9806.022374
857.234683,814.226536,-296.082377,-9576.193725
857.235003,74.020594,0.000000,-9652.803275
857.235323,370.102971,1184.329507,-9806.022374
857.235643,2146.597232,1776.494261,-9729.412825
857.235963,1776.494261,1036.288319,-9806.022374
857.236283,592.164754,592.164754,-10189.070123
857.236603,518.144159,666.185348,-9959.241474
857.236923,1998.556043,0.000000,-10648.727422
857.237243,2812.782580,518.144159,-10112.460574
857.237563,1628.453072,740.205942,-10189.070123
857.237883,74.020594,740.205942,-10265.679673
857.238203,-592.164754,1406.391290,-10878.556072
857.238523,740.205942,2146.597232,-11338.213370
857.238843,1110.308913,2368.659014,-10955.165621
857.239163,74.020594,1480.411884,-10495.508323
857.239483,740.205942,1776.494261,-10648.727422
857.239803,2220.617826,1184.329507,-10572.117872
857.240123,3108.864956,888.247130,-10725.336972
857.240443,2664.741391,0.000000,-10495.508323
857.240763,2146.597232,0.000000,-10801.946522
857.241083,296.082377,888.247130,-10342.289223
857.241402,-1184.329507,1110.308913,-9882.631924
857.241722,-1628.453072,1998.556043,-9882.631924
857.242042,74.020594,1184.329507,-9806.022374
857.242362,814.226536,-444.123565,-9346.365076
857.242682,1258.350101,-2072.576638,-10572.117872
857.243002,666.185348,-1480.411884,-9806.022374
857.243322,-444.123565,0.000000,-9576.193725
857.243642,-1480.411884,1776.494261,-9576.193725
857.243962,-1554.432478,1480.411884,-9576.193725
857.244282,-2368.659014,-222.061783,-9576.193725
857.244602,-2664.741391,-1776.494261,-9346.365076
857.244922,-3034.844362,-2368.659014,-9576.193725
857.245242,-2368.659014,-888.247130,-9576.193725
857.245562,-1110.308913,814.226536,-9806.022374
857.245882,74.020594,2146.597232,-10035.851024
857.246202,-518.144159,1110.308913,-10342.289223
857.246522,-2516.700203,296.082377,-9959.241474
857.246842,-2146.597232,-666.185348,-10035.851024
857.247162,-1184.329507,222.061783,-10265.679673
857.247482,-148.041188,1406.391290,-10418.898773
857.247802,-296.082377,1776.494261,-10725.336972
857.248122,222.061783,518.144159,-10265.679673
857.248442,888.247130,-962.267725,-10265.679673
857.248762,0.000000,-2368.659014,-10265.679673
857.249082,-740.205942,-1110.308913,-10112.460574
857.249402,0.000000,2072.576638,-10725.336972
857.249722,666.185348,3701.029710,-10572.117872
857.250042,2294.638420,3701.029710,-10878.556072
857.250362,2368.659014,2368.659014,-11261.603821
857.250682,1480.411884,-740.205942,-10189.070123
857.251002,1406.391290,-1850.514855,-10112.460574
857.251322,2294.638420,-1628.453072,-10572.117872
857.251642,2368.659014,-222.061783,-9882.631924
857.251962,296.082377,888.247130,-10572.117872
857.252282,-296.082377,296.082377,-9959.241474
857.252602,148.041188,-148.041188,-9806.022374
857.252922,0.000000,-888.247130,-10342.289223
857.253242,2590.720797,-1110.308913,-10112.460574
857.253562,2368.659014,-148.041188,-10725.336972
857.253882,1850.514855,444.123565,-9882.631924
857.254202,2516.700203,1036.288319,-9729.412825
857.254522,1702.473667,518.144159,-10572.117872
857.254842,2368.659014,148.041188,-9806.022374
857.255162,1924.535449,-1332.370696,-9729.412825
857.255482,2220.617826,-1332.370696,-9729.412825
857.255802,1184.329507,-1480.411884,-10112.460574
857.256122,74.020594,-2072.576638,-9346.365076
857.256442,-740.205942,-1110.308913,-9346.365076
857.256762,518.144159,-592.164754,-9959.241474
857.257082,962.267725,518.144159,-9269.755526
857.257402,740.205942,74.020594,-10035.851024
857.257722,370.102971,814.226536,-10035.851024
857.258042,0.000000,222.061783,-10189.070123
857.258362,370.102971,-592.164754,-10112.460574
857.258681,1110.308913,-1258.350101,-10112.460574
857.259001,0.000000,-370.102971,-10418.898773
857.259321,-740.205942,0.000000,-10112.460574
857.259641,-296.082377,-296.082377,-10572.117872
857.259961,0.000000,592.164754,-10572.117872
857.260281,-1110.308913,666.185348,-10265.679673
857.260601,-1998.556043,1554.432478,-10648.727422
857.260921,-592.164754,1702.473667,-10801.946522
857.261241,1332.370696,0.000000,-10495.508323
857.261561,2368.659014,-1258.350101,-10495.508323
857.261881,1776.494261,-2146.597232,-11031.775171
857.262201,666.185348,-1406.391290,-10418.898773
857.262521,-74.020594,1998.556043,-10648.727422
857.262841,-370.102971,3552.988522,-10878.556072
857.263161,1480.411884,4441.235652,-10648.727422
857.263481,740.205942,3108.864956,-10495.508323
857.263801,962.267725,1110.308913,-9806.022374
857.264121,222.061783,-592.164754,-9882.631924
857.264441,666.185348,-2294.638420,-9422.974625
857.264761,1110.308913,-2442.679609,-9269.755526
857.265081,1184.329507,-1924.535449,-9576.193725
857.265401,-296.082377,-592.164754,-9346.365076
857.265721,-888.247130,1628.453072,-10418.898773
857.266041,0.000000,3404.947333,-10189.070123
857.266361,296.082377,3552.988522,-10035.851024
857.266681,370.102971,2664.741391,-9806.022374
857.267001,0.000000,888.247130,-9652.803275
857.267321,148.041188,-1184.329507,-10189.070123
857.267641,-814.226536,-2516.700203,-9729.412825
857.267961,-74.020594,-1554.432478,-9806.022374
857.268281,1110.308913,-148.041188,-9652.803275
857.268601,888.247130,1776.494261,-9959.241474
857.268921,296.082377,2960.823768,-10112.460574
857.269241,1480.411884,2368.659014,-10648.727422
857.269561,1776.494261,1184.329507,-10801.946522
857.269881,666.185348,666.185348,-10112.460574
857.270201,-148.041188,-518.144159,-10189.070123
857.270521,74.020594,148.041188,-10801.946522
857.270841,592.164754,740.205942,-10265.679673
857.271161,296.082377,814.226536,-10112.460574
857.271481,-296.082377,1184.329507,-10035.851024
857.271801,-222.061783,1258.350101,-10112.460574
857.272121,444.123565,1702.473667,-10801.946522
857.272441,1332.370696,740.205942,-10878.556072
857.272761,1850.514855,666.185348,-9882.631924
857.273081,1184.329507,296.082377,-9652.803275
857.273401,1184.329507,0.000000,-10112.460574
857.273721,1258.350101,666.185348,-10189.070123
857.274041,74.020594,1702.473667,-9959.241474
857.274361,814.226536,1924.535449,-8656.879127
857.274681,1924.535449,1702.473667,-10189.070123
857.275001,1554.432478,962.267725,-9806.022374
857.275321,740.205942,444.123565,-9729.412825
857.275641,1332.370696,-962.267725,-9269.755526
857.275961,814.226536,-1406.391290,-9422.974625
857.276280,888.247130,-1184.329507,-9806.022374
857.276600,740.205942,-1406.391290,-9576.193725
857.276920,666.185348,74.020594,-9882.631924
857.277240,592.164754,1332.370696,-10189.070123
857.277560,888.247130,962.267725,-10112.460574
857.277880,1258.350101,444.123565,-10878.556072
857.278200,296.082377,-1036.288319,-10495.508323
857.278520,814.226536,-1110.308913,-9806.022374
857.278840,296.082377,-296.082377,-10572.117872
857.279160,-740.205942,888.247130,-10572.117872
857.279480,-518.144159,592.164754,-10725.336972
857.279800,2220.617826,-222.061783,-10572.117872
857.280120,3256.906145,-888.247130,-10035.851024
857.280440,1258.350101,-1554.432478,-9959.241474
857.280760,0.000000,-1776.494261,-9959.241474
857.281080,-444.123565,-666.185348,-10035.851024
857.281400,-148.041188,888.247130,-9346.365076
857.281720,-1332.370696,962.267725,-10189.070123
857.282040,-1258.350101,740.205942,-9959.241474
857.282360,-1184.329507,-518.144159,-9806.022374
857.282680,222.061783,-518.144159,-9959.241474
857.283000,518.144159,-296.082377,-9959.241474
857.283320,-962.267725,-370.102971,-10189.070123
857.283640,-740.205942,-740.205942,-9576.193725
857.283960,296.082377,-1258.350101,-9729.412825
857.284280,444.123565,-518.144159,-9806.022374
857.284600,444.123565,222.061783,-9959.241474
857.284920,814.226536,740.205942,-10189.070123
857.285240,1554.432478,1110.308913,-9806.022374
857.285560,1036.288319,370.102971,-10112.460574
857.285880,0.000000,-296.082377,-10112.460574
857.286200,-148.041188,-1554.432478,-10112.460574
857.286520,-518.144159,-1776.494261,-9806.022374
857.286840,-222.061783,-888.247130,-9882.631924
857.287160,222.061783,0.000000,-10112.460574
857.287480,-222.061783,814.226536,-10495.508323
857.287800,-1406.391290,814.226536,-9959.241474
857.288120,-1184.329507,962.267725,-10189.070123
857.288440,592.164754,962.267725,-10572.117872
857.288760,1110.308913,962.267725,-10572.117872
857.289080,1258.350101,666.185348,-10418.898773
857.289400,1850.514855,740.205942,-10572.117872
857.289720,1628.453072,814.226536,-10725.336972
857.290040,1036.288319,888.247130,-10265.679673
857.290360,888.247130,1258.350101,-10418.898773
857.290680,740.205942,1554.432478,-10189.070123
857.291000,0.000000,1776.494261,-10495.508323
857.291320,740.205942,2368.659014,-10418.898773
857.291640,0.000000,1998.556043,-10265.679673
857.291960,-444.123565,2590.720797,-10572.117872
857.292280,148.041188,1628.453072,-9806.022374
857.292600,666.185348,1628.453072,-9959.241474
857.292920,-444.123565,1406.391290,-9729.412825
857.293240,-296.082377,296.082377,-9882.631924
857.293559,740.205942,222.061783,-9652.803275
857.293879,222.061783,1554.432478,-9652.803275
857.294199,1628.453072,2220.617826,-9882.631924
857.294519,2368.659014,2812.782580,-10342.289223
857.294839,3404.947333,1998.556043,-10495.508323
857.295159,2294.638420,888.247130,-9806.022374
857.295479,814.226536,-296.082377,-10035.851024
857.295799,1332.370696,-148.041188,-9959.241474
857.296119,1036.288319,740.205942,-10112.460574
857.296439,962.267725,2442.679609,-9882.631924
857.296759,1776.494261,2886.803174,-10189.070123
857.297079,1480.411884,1702.473667,-9652.803275
857.297399,296.082377,0.000000,-9959.241474
857.297719,1258.350101,-962.267725,-9576.193725
857.298039,666.185348,-1110.308913,-9652.803275
857.298359,74.020594,-1036.288319,-8963.317327
857.298679,592.164754,-370.102971,-9499.584175
857.298999,148.041188,-740.205942,-9806.022374
857.299319,1036.288319,-592.164754,-9882.631924
857.299639,-518.144159,-740.205942,-10035.851024
857.299959,-1332.370696,0.000000,-9039.926876
857.300279,-1184.329507,0.000000,-9806.022374
857.300599,444.123565,-222.061783,-10035.851024
857.300919,1628.453072,-1036.288319,-10112.460574
857.301239,1332.370696,-1998.556043,-10035.851024
857.301559,-814.226536,-2220.617826,-9959.241474
857.301879,-370.102971,-1850.514855,-9959.241474
857.302199,148.041188,-518.144159,-10495.508323
857.302519,-740.205942,444.123565,-10418.898773
857.302839,-888.247130,666.185348,-11568.042020
857.303159,296.082377,-1184.329507,-10648.727422
857.303479,814.226536,-2368.659014,-10495.508323
857.303799,0.000000,-2220.617826,-11184.994271
857.304119,-740.205942,-962.267725,-9652.803275
857.304439,-1850.514855,370.102971,-10725.336972
857.304759,-2516.700203,0.000000,-10648.727422
857.305079,296.082377,-1036.288319,-10265.679673
857.305399,2220.617826,-1554.432478,-10572.117872
857.305719,2812.782580,-740.205942,-10189.070123
857.306039,296.082377,-370.102971,-10572.117872
857.306359,-888.247130,-370.102971,-10725.336972
857.306679,222.061783,-962.267725,-10189.070123
857.306999,-666.185348,-1406.391290,-9729.412825
857.307320,0.000000,-2146.597232,-10035.851024
857.307640,-370.102971,-1406.391290,-10112.460574
857.307960,444.123565,-444.123565,-10112.460574
857.308280,1480.411884,222.061783,-10572.117872
857.308600,296.082377,666.185348,-10112.460574
857.308920,-1110.308913,0.000000,-9959.241474
857.309240,-1332.370696,-370.102971,-9576.193725
857.309560,-370.102971,740.205942,-10112.460574
857.309880,74.020594,1702.473667,-10342.289223
857.310200,0.000000,1406.391290,-10265.679673
857.310520,2738.761985,2294.638420,-9959.241474
857.310840,3256.906145,296.082377,-9729.412825
857.311160,3034.844362,-1406.391290,-9039.926876
857.311480,2294.638420,-2220.617826,-9959.241474
857.311800,1850.514855,-1628.453072,-9346.365076
857.312120,1480.411884,-740.205942,-10035.851024
857.312441,962.267725,296.082377,-9882.631924
857.312761,0.000000,2220.617826,-10342.289223
857.313081,-1184.329507,2960.823768,-10418.898773
857.313401,-222.061783,3256.906145,-10342.289223
857.313721,1628.453072,2442.679609,-10648.727422
857.314041,1702.473667,-222.061783,-10035.851024
857.314361,1110.308913,-1998.556043,-9959.241474
857.314681,962.267725,-1406.391290,-10112.460574
857.315001,1332.370696,666.185348,-10112.460574
857.315321,1628.453072,2738.761985,-10189.070123
857.315641,2368.659014,4737.318029,-10265.679673
857.315961,2442.679609,4885.359217,-10418.898773
857.316281,1258.350101,3923.091493,-10418.898773
857.316601,888.247130,2368.659014,-10418.898773
857.316921,518.144159,222.061783,-9959.241474
857.317242,-518.144159,222.061783,-9499.584175
857.317562,962.267725,1184.329507,-9499.584175
857.317882,1110.308913,740.205942,-9806.022374
857.318202,0.000000,1036.288319,-9882.631924
857.318522,-740.205942,592.164754,-10112.460574
857.318842,-518.144159,2220.617826,-9882.631924
857.319162,962.267725,2960.823768,-10265.679673
857.319482,148.041188,2368.659014,-9729.412825
857.319802,148.041188,74.020594,-8963.317327
857.320122,666.185348,-1702.473667,-9576.193725
857.320442,592.164754,-2072.576638,-9652.803275
857.320762,518.144159,-1332.370696,-9806.022374
857.321082,1406.391290,740.205942,-10112.460574
857.321402,370.102971,2516.700203,-9652.803275
857.321722,-222.061783,3256.906145,-10112.460574
857.322042,0.000000,2072.576638,-10342.289223
857.322363,444.123565,518.144159,-9499.584175
857.322683,222.061783,222.061783,-9806.022374
857.323003,2072.576638,-2146.597232,-10572.117872
857.323323,1776.494261,-1258.350101,-10725.336972
857.323643,888.247130,222.061783,-10801.946522
857.323963,-2072.576638,1332.370696,-10265.679673
857.324283,-962.267725,2960.823768,-10035.851024
857.324603,-888.247130,1332.370696,-10572.117872
857.324923,518.144159,1036.288319,-10725.336972
857.325243,444.123565,-1332.370696,-10572.117872
857.325563,-666.185348,-1924.535449,-10418.898773
857.325883,592.164754,-888.247130,-10342.289223
857.326203,962.267725,-370.102971,-10572.117872
857.326523,666.185348,370.102971,-9959.241474
857.326843,888.247130,1702.473667,-10572.117872
857.327163,1480.411884,1480.411884,-10418.898773
857.327484,3034.844362,370.102971,-10342.289223
857.327804,1628.453072,-518.144159,-10035.851024
857.328124,222.061783,-1924.535449,-10035.851024
857.328444,-296.082377,-3552.988522,-9576.193725
857.328764,-1110.308913,-3849.070898,-9193.145976
857.329084,-2072.576638,-3256.906145,-9346.365076
857.329404,-1480.411884,-2294.638420,-9346.365076
857.329724,-592.164754,370.102971,-9882.631924
857.330044,-370.102971,1258.350101,-9959.241474
857.330364,-666.185348,222.061783,-9959.241474
857.330684,592.164754,0.000000,-9959.241474
857.331004,740.205942,-370.102971,-9882.631924
857.331324,-370.102971,0.000000,-10189.070123
857.331644,1480.411884,-518.144159,-10265.679673
857.331964,2072.576638,444.123565,-10342.289223
857.332285,1036.288319,592.164754,-10418.898773
857.332605,666.185348,666.185348,-10342.289223
857.332925,0.000000,814.226536,-10572.117872
857.333245,-1628.453072,666.185348,-10112.460574
857.333565,-888.247130,1480.411884,-10878.556072
857.333885,0.000000,1406.391290,-10495.508323
857.334205,370.102971,370.102971,-11491.432470
857.334525,1036.288319,-814.226536,-10265.679673
857.334845,1184.329507,-740.205942,-10495.508323
857.335165,1628.453072,-296.082377,-10035.851024
857.335485,2516.700203,1554.432478,-10572.117872
857.335805,2516.700203,3108.864956,-10495.508323
857.336125,1628.453072,3256.906145,-10648.727422
857.336445,2146.597232,2442.679609,-10265.679673
857.336765,2886.803174,1110.308913,-10035.851024
857.337085,2220.617826,-370.102971,-10265.679673
857.337406,1628.453072,0.000000,-9959.241474
857.337726,1184.329507,444.123565,-9959.241474
857.338046,444.123565,1998.556043,-9806.022374
857.338366,-222.061783,1776.494261,-9576.193725
857.338686,1184.329507,1998.556043,-9729.412825
857.339006,2072.576638,1036.288319,-9882.631924
857.339326,1258.350101,888.247130,-9806.022374
857.339646,370.102971,1110.308913,-9806.022374
857.339966,-518.144159,518.144159,-9499.584175
857.340286,-1258.350101,888.247130,-9806.022374
857.340606,-1332.370696,222.061783,-9039.926876
857.340926,-444.123565,0.000000,-9116.536426
857.341246,888.247130,-518.144159,-9652.803275
857.341566,1628.453072,-592.164754,-9652.803275
857.341886,962.267725,-148.041188,-10572.117872
857.342206,444.123565,962.267725,-9959.241474
857.342527,444.123565,1110.308913,-10189.070123
857.342847,148.041188,962.267725,-10112.460574
857.343167,1110.308913,1184.329507,-10035.851024
857.343487,1036.288319,370.102971,-10189.070123
857.343807,1776.494261,0.000000,-10495.508323
857.344127,2072.576638,-814.226536,-10418.898773
857.344447,666.185348,-1036.288319,-10648.727422
857.344767,-1554.432478,148.041188,-9806.022374
857.345087,-1332.370696,1702.473667,-10725.336972
857.345407,-444.123565,1554.432478,-10495.508323
857.345727,-370.102971,444.123565,-9959.241474
857.346047,0.000000,-592.164754,-10265.679673
857.346367,1258.350101,-2072.576638,-10495.508323
857.346687,1480.411884,-1924.535449,-10265.679673
857.347007,962.267725,-888.247130,-10112.460574
857.347327,888.247130,1110.308913,-10112.460574
857.347648,888.247130,1998.556043,-10265.679673
857.347968,0.000000,148.041188,-10265.679673
857.348288,-592.164754,-1554.432478,-9959.241474
857.348608,666.185348,-1702.473667,-9959.241474
857.348928,0.000000,-1702.473667,-9882.631924
857.349248,-666.185348,-962.267725,-9806.022374
857.349568,-1258.350101,-666.185348,-9959.241474
857.349888,-370.102971,-518.144159,-9729.412825
857.350208,-148.041188,-814.226536,-9806.022374
857.350528,444.123565,-222.061783,-10035.851024
857.350848,1924.535449,-518.144159,-10265.679673
857.351168,1554.432478,222.061783,-9959.241474
857.351488,1332.370696,370.102971,-10112.460574
857.351808,740.205942,0.000000,-9882.631924
857.352128,-1036.288319,-962.267725,-10112.460574
857.352449,-1924.535449,-1184.329507,-10112.460574
857.352769,-296.082377,0.000000,-9422.974625
857.353089,370.102971,740.205942,-10265.679673
857.353409,444.123565,1258.350101,-10342.289223
857.353729,148.041188,148.041188,-10265.679673
857.354049,-592.164754,-1554.432478,-9882.631924
857.354369,-592.164754,-1776.494261,-9806.022374
857.354689,-370.102971,370.102971,-9806.022374
857.355009,-888.247130,2590.720797,-10801.946522
857.355329,-518.144159,3997.112087,-10035.851024
857.355649,1110.308913,3108.864956,-10878.556072
857.355969,2072.576638,592.164754,-10342.289223
857.356289,2072.576638,-1998.556043,-9652.803275
857.356609,1110.308913,-3182.885551,-10112.460574
857.356929,296.082377,-1554.432478,-10035.851024
857.357249,-222.061783,370.102971,-10112.460574
857.357570,962.267725,2220.617826,-10035.851024
857.357890,2812.782580,2294.638420,-10265.679673
857.358210,2886.803174,1702.473667,-10572.117872
857.358530,2146.597232,814.226536,-10035.851024
857.358850,1480.411884,444.123565,-10112.460574
857.359170,1332.370696,740.205942,-10189.070123
857.359490,1258.350101,518.144159,-9729.412825
857.359810,370.102971,222.061783,-9652.803275
857.360130,1184.329507,0.000000,-9959.241474
857.360450,1332.370696,-74.020594,-9422.974625
857.360770,370.102971,740.205942,-9806.022374
857.361090,0.000000,1702.473667,-9729.412825
857.361410,148.041188,2516.700203,-9729.412825
857.361730,666.185348,1776.494261,-9806.022374
857.362050,1628.453072,666.185348,-9652.803275
857.362370,3034.844362,74.020594,-9806.022374
857.362691,3034.844362,666.185348,-9652.803275
857.363011,2368.659014,1110.308913,-10112.460574
857.363331,1184.329507,2220.617826,-10418.898773
857.363651,-592.164754,1480.411884,-10035.851024
857.363971,-296.082377,592.164754,-9806.022374
857.364291,1036.288319,74.020594,-10189.070123
857.364611,1776.494261,296.082377,-10418.898773
857.364931,814.226536,1850.514855,-10801.946522
857.365251,-148.041188,1924.535449,-10572.117872
857.365571,-592.164754,2220.617826,-11414.822920
857.365891,-888.247130,1628.453072,-10495.508323
857.366211,-1110.308913,222.061783,-10342.289223
857.366531,-962.267725,-444.123565,-10342.289223
857.366851,0.000000,222.061783,-10342.289223
857.367171,888.247130,0.000000,-10342.289223
857.367492,1036.288319,148.041188,-10342.289223
857.367812,-370.102971,592.164754,-10418.898773
857.368132,-1702.473667,1554.432478,-10342.289223
857.368452,-1924.535449,2368.659014,-10418.898773
857.368772,-1184.329507,1776.494261,-10189.070123
857.369092,-148.041188,1110.308913,-10189.070123
857.369412,-666.185348,-592.164754,-10112.460574
857.369732,-740.205942,-1850.514855,-11261.603821
857.370052,-1110.308913,-2146.597232,-9652.803275
857.370372,-666.185348,-1776.494261,-9729.412825
857.370692,-148.041188,-1184.329507,-9652.803275
857.371012,-814.226536,-296.082377,-9806.022374
857.371332,-222.061783,592.164754,-9499.584175
857.371652,1036.288319,370.102971,-9882.631924
857.371972,740.205942,518.144159,-10265.679673
857.372292,-518.144159,0.000000,-9806.022374
857.372613,-666.185348,-1110.308913,-9806.022374
857.372933,-592.164754,-1258.350101,-9729.412825
857.373253,-444.123565,-1776.494261,-10189.070123
857.373573,296.082377,-1332.370696,-10342.289223
857.373893,1110.308913,0.000000,-10648.727422
857.374213,1184.329507,814.226536,-10878.556072
857.374533,888.247130,2072.576638,-10418.898773
857.374853,1110.308913,1776.494261,-10725.336972
857.375173,1850.514855,0.000000,-10418.898773
857.375493,2146.597232,-2072.576638,-9959.241474
857.375813,1036.288319,-1480.411884,-10418.898773
857.376133,1702.473667,-296.082377,-10725.336972
857.376453,1480.411884,740.205942,-10572.117872
857.376773,2220.617826,1702.473667,-10648.727422
857.377093,2368.659014,2516.700203,-10418.898773
857.377413,1554.432478,1480.411884,-10572.117872
857.377734,444.123565,74.020594,-10112.460574
857.378054,222.061783,-1036.288319,-9959.241474
857.378374,148.041188,-1554.432478,-9882.631924
857.378694,370.102971,-962.267725,-9499.584175
857.379014,1702.473667,148.041188,-9729.412825
857.379334,1554.432478,888.247130,-9806.022374
857.379654,1184.329507,1332.370696,-10189.070123
857.379974,1110.308913,1702.473667,-10418.898773
857.380294,148.041188,592.164754,-9806.022374
857.380614,-370.102971,-888.247130,-9576.193725
857.380934,296.082377,-1628.453072,-9346.365076
857.381254,888.247130,-2146.597232,-9422.974625
857.381574,370.102971,-2368.659014,-9652.803275
857.381894,296.082377,0.000000,-9806.022374
857.382214,1110.308913,1332.370696,-10265.679673
857.382535,592.164754,1924.535449,-10035.851024
857.382855,296.082377,962.267725,-9959.241474
857.383175,-296.082377,-740.205942,-10189.070123
857.383495,-296.082377,-1480.411884,-10342.289223
857.383815,0.000000,-1776.494261,-10572.117872
857.384135,1406.391290,-1036.288319,-10342.289223
857.384455,1628.453072,1998.556043,-10878.556072
857.384775,74.020594,2960.823768,-10801.946522
857.385095,-962.267725,3478.967927,-10725.336972
857.385415,-518.144159,1850.514855,-10189.070123
857.385735,0.000000,0.000000,-10112.460574
857.386055,74.020594,-1110.308913,-10648.727422
857.386375,444.123565,-1702.473667,-10112.460574
857.386695,148.041188,-592.164754,-10572.117872
857.387015,-370.102971,2294.638420,-9806.022374
857.387335,-370.102971,4219.173869,-10572.117872
857.387656,666.185348,4367.215058,-10725.336972
857.387976,1480.411884,2738.761985,-10725.336972
857.388296,2146.597232,444.123565,-10189.070123
857.388616,2812.782580,-2368.659014,-9652.803275
857.388936,1332.370696,-2442.679609,-9806.022374
857.389256,592.164754,-666.185348,-9806.022374
857.389576,888.247130,666.185348,-10035.851024
857.389896,1184.329507,1480.411884,-9882.631924
857.390216,148.041188,814.226536,-9959.241474
857.390536,-592.164754,1258.350101,-9882.631924
857.390856,-1554.432478,1332.370696,-10418.898773
857.391176,-666.185348,1258.350101,-10035.851024
857.391496,0.000000,518.144159,-10112.460574
857.391816,1850.514855,-1110.308913,-9652.803275
857.392136,888.247130,-2146.597232,-9959.241474
857.392456,0.000000,-2146.597232,-9422.974625
857.392777,74.020594,444.123565,-10265.679673
857.393097,-222.061783,3478.967927,-10495.508323
857.393417,74.020594,4663.297435,-10955.165621
857.393737,444.123565,4589.276840,-10572.117872
857.394057,666.185348,2886.803174,-10495.508323
857.394377,-148.041188,0.000000,-10418.898773
857.394697,-296.082377,-962.267725,-10112.460574
857.395017,1110.308913,-1702.473667,-10112.460574
857.395337,1702.473667,-888.247130,-9806.022374
857.395657,1480.411884,-444.123565,-9806.022374
857.395977,148.041188,296.082377,-9959.241474
857.396297,0.000000,1036.288319,-10035.851024
857.396617,0.000000,2664.741391,-10342.289223
857.396937,-370.102971,3330.926739,-10725.336972
857.397257,-814.226536,2368.659014,-10112.460574
857.397578,-666.185348,0.000000,-9806.022374
857.397898,814.226536,-2368.659014,-9346.365076
857.398218,1702.473667,-3404.947333,-9193.145976
857.398538,1406.391290,-3330.926739,-9729.412825
857.398858,1332.370696,-1480.411884,-9193.145976
857.399178,148.041188,444.123565,-10112.460574
857.399498,-370.102971,1924.535449,-10112.460574
857.399818,518.144159,2516.700203,-10495.508323
857.400138,1332.370696,444.123565,-9806.022374
857.400458,1036.288319,-962.267725,-10035.851024
857.400778,1776.494261,-1480.411884,-10112.460574
857.401098,1258.350101,-1702.473667,-11338.213370
857.401418,296.082377,-814.226536,-10189.070123
857.401738,-222.061783,370.102971,-9959.241474
857.402058,-370.102971,1110.308913,-9959.241474
857.402378,740.205942,888.247130,-10418.898773
857.402699,1480.411884,592.164754,-10189.070123
857.403019,1258.350101,962.267725,-10495.508323
857.403339,518.144159,-296.082377,-10112.460574
857.403659,148.041188,-888.247130,-10418.898773
857.403979,888.247130,-1924.535449,-9959.241474
857.404299,296.082377,0.000000,-10112.460574
857.404619,1628.453072,1628.453072,-11108.384721
857.404939,1850.514855,2072.576638,-10955.165621
857.405259,1110.308913,2368.659014,-10112.460574
857.405579,-222.061783,2220.617826,-10878.556072
857.405899,-444.123565,666.185348,-10035.851024
857.406219,74.020594,-2072.576638,-9729.412825
857.406539,1554.432478,-3182.885551,-9806.022374
857.406859,740.205942,-2368.659014,-9729.412825
857.407179,74.020594,-1036.288319,-10189.070123
857.407499,-518.144159,592.164754,-10035.851024
857.407819,-962.267725,2072.576638,-10035.851024
857.408139,-1776.494261,2812.782580,-9269.755526
857.408459,-296.082377,1628.453072,-9652.803275
857.408779,1110.308913,-814.226536,-9959.241474
857.409099,1332.370696,-2738.761985,-9959.241474
857.409419,1110.308913,-2886.803174,-10112.460574
857.409739,1554.432478,-1998.556043,-9882.631924
857.410059,74.020594,666.185348,-9806.022374
857.410379,-1036.288319,3404.947333,-10035.851024
857.410699,-1036.288319,3552.988522,-10342.289223
857.411019,0.000000,2072.576638,-10189.070123
857.411339,888.247130,444.123565,-10572.117872
857.411659,1406.391290,-1998.556043,-10189.070123
857.411979,0.000000,-2146.597232,-10418.898773
857.412300,-1332.370696,-592.164754,-10189.070123
857.412620,0.000000,0.000000,-9499.584175
857.412940,518.144159,1702.473667,-10418.898773
857.413260,666.185348,1998.556043,-10265.679673
857.413580,-888.247130,-222.061783,-10112.460574
857.413900,296.082377,814.226536,-9729.412825
857.414220,888.247130,296.082377,-10035.851024
857.414540,592.164754,592.164754,-10035.851024
857.414860,518.144159,666.185348,-9959.241474
857.415180,814.226536,148.041188,-10189.070123
857.415500,666.185348,-148.041188,-10189.070123
857.415820,1036.288319,-592.164754,-10495.508323
857.416140,1480.411884,0.000000,-10572.117872
857.416460,-222.061783,1110.308913,-10035.851024
857.416780,-1406.391290,3256.906145,-10189.070123
857.417100,0.000000,1998.556043,-9959.241474
857.417420,444.123565,370.102971,-10112.460574
857.417740,444.123565,-740.205942,-10035.851024
857.418060,1036.288319,-1184.329507,-10189.070123
857.418380,1332.370696,-370.102971,-10112.460574
857.418700,1480.411884,814.226536,-9576.193725
857.419020,296.082377,1776.494261,-9806.022374
857.419340,666.185348,2146.597232,-9652.803275
857.419660,592.164754,814.226536,-10189.070123
857.419980,222.061783,-740.205942,-9806.022374
857.420300,222.061783,-444.123565,-9806.022374
857.420620,814.226536,740.205942,-10112.460574
857.420940,2294.638420,1554.432478,-10035.851024
857.421260,3849.070898,1406.391290,-10265.679673
857.421580,2664.741391,1184.329507,-10035.851024
857.421900,1554.432478,592.164754,-9806.022374
857.422220,444.123565,888.247130,-10572.117872
857.422540,814.226536,2220.617826,-9882.631924
857.422860,740.205942,1628.453072,-10418.898773
857.423181,1702.473667,1258.350101,-10648.727422
857.423501,1776.494261,0.000000,-10342.289223
857.423821,1184.329507,-1036.288319,-11184.994271
857.424141,592.164754,-1480.411884,-10189.070123
857.424461,444.123565,-296.082377,-10572.117872
857.424781,0.000000,1406.391290,-10112.460574
857.425101,-740.205942,1850.514855,-10189.070123
857.425421,-444.123565,1332.370696,-10035.851024
857.425741,518.144159,518.144159,-10112.460574
857.426061,1406.391290,-1036.288319,-10418.898773
857.426381,1998.556043,-1332.370696,-10035.851024
857.426701,814.226536,148.041188,-10265.679673
857.427021,-1036.288319,1036.288319,-10418.898773
857.427341,-1258.350101,1258.350101,-9806.022374
857.427661,-1702.473667,518.144159,-9729.412825
857.427981,-1924.535449,-592.164754,-9806.022374
857.428301,-1036.288319,-444.123565,-10648.727422
857.428621,-148.041188,-296.082377,-10189.070123
857.428941,962.267725,74.020594,-10265.679673
857.429261,1924.535449,1332.370696,-10035.851024
857.429581,2886.803174,1110.308913,-10112.460574
857.429901,3330.926739,-222.061783,-10035.851024
857.430221,2368.659014,-1480.411884,-9422.974625
857.430541,-370.102971,-888.247130,-9882.631924
857.430861,-1554.432478,74.020594,-9806.022374
857.431181,-1036.288319,814.226536,-10189.070123
857.431501,-592.164754,962.267725,-10035.851024
857.431821,296.082377,-222.061783,-10189.070123
857.432141,592.164754,-1406.391290,-10418.898773
857.432461,592.164754,-1628.453072,-9806.022374
857.432781,-1480.411884,-1110.308913,-10495.508323
857.433101,-2442.679609,1036.288319,-10878.556072
857.433421,-1628.453072,1258.350101,-10035.851024
857.433741,-814.226536,1258.350101,-10572.117872
857.434062,518.144159,592.164754,-10342.289223
857.434382,370.102971,-518.144159,-9959.241474
857.434702,592.164754,-592.164754,-10342.289223
857.435022,1998.556043,-444.123565,-11031.775171
857.435342,2294.638420,-370.102971,-10342.289223
857.435662,1036.288319,592.164754,-10418.898773
857.435982,592.164754,74.020594,-10418.898773
857.436302,1036.288319,-148.041188,-9882.631924
857.436622,222.061783,222.061783,-10801.946522
857.436942,74.020594,1258.350101,-10801.946522
857.437262,0.000000,2516.700203,-10418.898773
857.437582,-1332.370696,2442.679609,-10418.898773
857.437902,-1850.514855,814.226536,-9193.145976
857.438222,-592.164754,-888.247130,-10495.508323
857.438542,1258.350101,-2368.659014,-8963.317327
857.438862,2738.761985,-2516.700203,-9576.193725
857.439182,2146.597232,-1110.308913,-9422.974625
857.439502,444.123565,1406.391290,-8886.707777
857.439822,222.061783,3034.844362,-9576.193725
857.440142,444.123565,3552.988522,-9806.022374
857.440462,1036.288319,2812.782580,-9806.022374
857.440782,1924.535449,444.123565,-9422.974625
857.441102,3775.050304,-2294.638420,-9346.365076
857.441422,3478.967927,-2516.700203,-9806.022374
857.441742,2220.617826,-2294.638420,-9806.022374
857.442062,1554.432478,296.082377,-10035.851024
857.442382,814.226536,1258.350101,-9652.803275
857.442702,370.102971,1628.453072,-10035.851024
857.443022,-888.247130,2590.720797,-10418.898773
857.443342,-444.123565,2072.576638,-10801.946522
857.443662,370.102971,1702.473667,-10725.336972
857.443982,1554.432478,1110.308913,-10572.117872
857.444302,3256.906145,74.020594,-10648.727422
857.444623,3108.864956,-962.267725,-10265.679673
857.444943,1554.432478,148.041188,-10112.460574
857.445263,-814.226536,1702.473667,-10725.336972
857.445583,-740.205942,2294.638420,-10265.679673
857.445903,-740.205942,1924.535449,-10648.727422
857.446223,-296.082377,1702.473667,-10112.460574
857.446543,518.144159,0.000000,-9729.412825
857.446863,1406.391290,-1406.391290,-10189.070123
857.447183,814.226536,-1702.473667,-9346.365076
857.447503,-296.082377,-296.082377,-10035.851024
857.447823,-222.061783,1406.391290,-10035.851024
857.448143,444.123565,2590.720797,-10189.070123
857.448463,-296.082377,1924.535449,-9806.022374
857.448783,74.020594,222.061783,-9499.584175
857.449103,-814.226536,-1702.473667,-9346.365076
857.449423,0.000000,-2368.659014,-9269.755526
857.449743,962.267725,-2590.720797,-9576.193725
857.450063,1184.329507,-962.267725,-10418.898773
857.450383,222.061783,1184.329507,-10035.851024
857.450703,370.102971,1480.411884,-10418.898773
857.451023,814.226536,2886.803174,-9499.584175
857.451343,74.020594,1184.329507,-10418.898773
857.451663,-370.102971,0.000000,-10112.460574
857.451983,148.041188,-1258.350101,-10265.679673
857.452303,888.247130,-1332.370696,-10572.117872
857.452623,1110.308913,-1036.288319,-9806.022374
857.452943,1628.453072,-222.061783,-9882.631924
857.453263,1036.288319,444.123565,-10265.679673
857.453583,0.000000,1776.494261,-10495.508323
857.453903,-1406.391290,2442.679609,-10725.336972
857.454223,-814.226536,1776.494261,-10418.898773
857.454543,-222.061783,370.102971,-10342.289223
857.454863,740.205942,-1628.453072,-10418.898773
857.455183,1554.432478,-2664.741391,-9959.241474
857.455504,1702.473667,-1776.494261,-10265.679673
857.455824,1110.308913,-518.144159,-10189.070123
857.456144,222.061783,888.247130,-10878.556072
857.456464,-296.082377,2146.597232,-10035.851024
857.456784,148.041188,2516.700203,-10418.898773
857.457104,-148.041188,1480.411884,-10265.679673
857.457424,-814.226536,0.000000,-10189.070123
857.457744,-1184.329507,-1554.432478,-9806.022374
857.458064,222.061783,-2442.679609,-9806.022374
857.458384,1184.329507,-1628.453072,-9806.022374
857.458704,740.205942,0.000000,-9806.022374
857.459024,814.226536,962.267725,-9882.631924
857.459344,1480.411884,2516.700203,-10112.460574
857.459664,592.164754,2368.659014,-10418.898773
857.459984,-1184.329507,1332.370696,-9882.631924
857.460304,0.000000,296.082377,-10418.898773
857.460624,1036.288319,0.000000,-10035.851024
857.460944,2294.638420,0.000000,-9806.022374
857.461264,2146.597232,222.061783,-10265.679673
857.461584,1480.411884,74.020594,-9729.412825
857.461904,444.123565,0.000000,-10035.851024
857.462224,0.000000,-296.082377,-9806.022374
857.462544,296.082377,740.205942,-10035.851024
857.462864,666.185348,1554.432478,-10342.289223
857.463184,1110.308913,2516.700203,-10112.460574
857.463504,666.185348,1480.411884,-10265.679673
857.463824,148.041188,74.020594,-10035.851024
857.464144,1110.308913,0.000000,-9806.022374
857.464464,1776.494261,296.082377,-10725.336972
857.464784,1998.556043,444.123565,-10572.117872
857.465104,1628.453072,2072.576638,-10418.898773
857.465424,518.144159,1406.391290,-10342.289223
857.465744,-148.041188,1258.350101,-10189.070123
857.466065,-814.226536,-444.123565,-10189.070123
857.466385,0.000000,-1258.350101,-10112.460574
857.466705,1480.411884,-592.164754,-9806.022374
857.467025,1406.391290,74.020594,-10189.070123
857.467345,666.185348,1184.329507,-10112.460574
857.467665,888.247130,1036.288319,-10112.460574
857.467985,1924.535449,1184.329507,-10189.070123
857.468305,444.123565,370.102971,-9959.241474
857.468625,-444.123565,-888.247130,-9806.022374
857.468945,-222.061783,-1036.288319,-10418.898773
857.469265,-888.247130,-962.267725,-9806.022374
857.469585,-1554.432478,370.102971,-9039.926876
857.469905,-2146.597232,1406.391290,-9729.412825
857.470225,-296.082377,1480.411884,-10035.851024
857.470545,148.041188,1258.350101,-10342.289223
857.470865,962.267725,-370.102971,-10572.117872
857.471185,1258.350101,-1702.473667,-9652.803275
857.471505,666.185348,-1628.453072,-9652.803275
857.471825,74.020594,-444.123565,-9729.412825
857.472145,518.144159,1036.288319,-9806.022374
857.472465,1036.288319,1406.391290,-10648.727422
857.472785,1332.370696,1258.350101,-10265.679673
857.473105,74.020594,0.000000,-9882.631924
857.473425,-148.041188,-592.164754,-9882.631924
857.473745,-740.205942,-1110.308913,-9346.365076
857.474065,-740.205942,-962.267725,-9959.241474
857.474385,-1036.288319,-1110.308913,-9882.631924
857.474705,-962.267725,-1332.370696,-9882.631924
857.475025,-518.144159,-1184.329507,-9576.193725
857.475345,74.020594,-814.226536,-10189.070123
857.475665,-518.144159,888.247130,-10265.679673
857.475985,296.082377,1924.535449,-10725.336972
857.476305,2664.741391,2368.659014,-10878.556072
857.476625,3923.091493,1702.473667,-10725.336972
857.476946,2294.638420,-518.144159,-10418.898773
857.477266,1480.411884,-1702.473667,-10572.117872
857.477586,-740.205942,-1480.411884,-9806.022374
857.477906,-1628.453072,-370.102971,-10342.289223
857.478226,-1184.329507,0.000000,-10265.679673
857.478546,222.061783,296.082377,-10418.898773
857.478866,148.041188,370.102971,-10495.508323
857.479186,518.144159,148.041188,-10878.556072
857.479506,444.123565,1110.308913,-9806.022374
857.479826,-296.082377,1036.288319,-10265.679673
857.480146,-296.082377,1924.535449,-10189.070123
857.480466,888.247130,1628.453072,-10342.289223
857.480786,1628.453072,296.082377,-9806.022374
857.481106,888.247130,-1110.308913,-9806.022374
857.481426,0.000000,-1258.350101,-9499.584175
857.481746,370.102971,-370.102971,-9499.584175
857.482066,1998.556043,962.267725,-9652.803275
857.482386,1998.556043,1036.288319,-10572.117872
857.482706,3404.947333,1406.391290,-9882.631924
857.483026,2368.659014,666.185348,-9269.755526
857.483346,2072.576638,0.000000,-9882.631924
857.483666,1924.535449,1554.432478,-10189.070123
857.483986,1628.453072,1036.288319,-10342.289223
857.484306,2516.700203,1480.411884,-10265.679673
857.484626,2442.679609,1480.411884,-10035.851024
857.484946,1258.350101,2738.761985,-10495.508323
857.485266,-592.164754,1702.473667,-9652.803275
857.485586,-962.267725,222.061783,-10418.898773
857.485906,-1480.411884,592.164754,-9806.022374
857.486226,-814.226536,740.205942,-10035.851024
857.486546,2072.576638,1850.514855,-9806.022374
857.486866,3478.967927,1406.391290,-10725.336972
857.487186,2812.782580,962.267725,-10418.898773
857.487507,962.267725,1184.329507,-10035.851024
857.487827,814.226536,1554.432478,-10418.898773
857.488147,-222.061783,2368.659014,-10648.727422
857.488467,-666.185348,2590.720797,-10418.898773
857.488787,0.000000,2220.617826,-10189.070123
857.489107,0.000000,-222.061783,-9882.631924
857.489427,740.205942,-1480.411884,-9882.631924
857.489747,-592.164754,-2294.638420,-9959.241474
857.490067,-888.247130,-888.247130,-9882.631924
857.490387,-518.144159,1110.308913,-9806.022374
857.490707,-740.205942,2738.761985,-10035.851024
857.491027,0.000000,3108.864956,-10189.070123
857.491347,-814.226536,1998.556043,-9959.241474
857.491667,-1110.308913,-592.164754,-9576.193725
857.491987,0.000000,-962.267725,-10189.070123
857.492307,0.000000,-1184.329507,-10955.165621
857.492627,-296.082377,-1110.308913,-10112.460574
857.492947,0.000000,0.000000,-9652.803275
857.493267,0.000000,370.102971,-10418.898773
857.493587,-222.061783,-592.164754,-9652.803275
857.493907,0.000000,-370.102971,-10265.679673
857.494227,74.020594,-518.144159,-10418.898773
857.494547,592.164754,-370.102971,-9882.631924
857.494867,222.061783,0.000000,-10189.070123
857.495187,1184.329507,-740.205942,-10035.851024
857.495507,-296.082377,-1628.453072,-9806.022374
857.495827,296.082377,-222.061783,-10189.070123
857.496147,592.164754,-962.267725,-10112.460574
857.496467,370.102971,-740.205942,-10495.508323
857.496787,-222.061783,222.061783,-10265.679673
857.497107,-370.102971,-518.144159,-10189.070123
857.497427,2294.638420,-814.226536,-10725.336972
857.497747,1776.494261,-1628.453072,-9806.022374
857.498067,444.123565,-222.061783,-10955.165621
857.498388,-592.164754,-740.205942,-10189.070123
857.498708,-592.164754,-666.185348,-10265.679673
857.499028,-740.205942,148.041188,-10265.679673
857.499348,222.061783,296.082377,-10112.460574
857.499668,222.061783,814.226536,-10265.679673
857.499988,1406.391290,-296.082377,-9882.631924
857.500308,1776.494261,-1110.308913,-10495.508323
857.500628,518.144159,-1554.432478,-9959.241474
857.500948,740.205942,-1184.329507,-10418.898773
857.501268,444.123565,-148.041188,-9422.974625
857.501588,740.205942,-518.144159,-10189.070123
857.501908,1776.494261,1332.370696,-10265.679673
857.502228,370.102971,518.144159,-9806.022374
857.502548,1036.288319,222.061783,-10495.508323
857.502868,888.247130,1332.370696,-10112.460574
857.503188,814.226536,1110.308913,-9806.022374
857.503508,1184.329507,518.144159,-10265.679673
857.503828,1480.411884,-666.185348,-9193.145976
857.504148,1036.288319,-1110.308913,-9806.022374
857.504468,888.247130,0.000000,-9959.241474
857.504788,1776.494261,1702.473667,-10112.460574
857.505108,1480.411884,2516.700203,-9806.022374
857.505428,1258.350101,1850.514855,-10418.898773
857.505748,518.144159,962.267725,-9882.631924
857.506068,1110.308913,-296.082377,-10342.289223
857.506388,444.123565,-296.082377,-9806.022374
857.506708,-296.082377,0.000000,-9882.631924
857.507028,-444.123565,1110.308913,-9882.631924
857.507348,296.082377,1850.514855,-9882.631924
857.507668,1924.535449,1998.556043,-10189.070123
857.507988,3256.906145,1998.556043,-10418.898773
857.508308,2886.803174,1480.411884,-10189.070123
857.508628,814.226536,962.267725,-10418.898773
857.508948,-148.041188,740.205942,-9806.022374
857.509268,-1110.308913,666.185348,-10035.851024
857.509588,-1924.535449,1110.308913,-10112.460574
857.509909,148.041188,222.061783,-10035.851024
857.510229,1184.329507,740.205942,-10265.679673
857.510549,1406.391290,1776.494261,-9882.631924
857.510869,1110.308913,1776.494261,-10342.289223
857.511189,-222.061783,2368.659014,-10648.727422
857.511509,-888.247130,1480.411884,-9882.631924
857.511829,-666.185348,592.164754,-9959.241474
857.512149,-296.082377,-962.267725,-9576.193725
857.512469,1258.350101,-1628.453072,-9729.412825
857.512789,2368.659014,0.000000,-10112.460574
857.513109,1628.453072,1036.288319,-9806.022374
857.513429,0.000000,2072.576638,-9959.241474
857.513749,-1332.370696,2368.659014,-9652.803275
857.514069,-962.267725,518.144159,-9269.755526
857.514389,888.247130,-222.061783,-10418.898773
857.514709,222.061783,-370.102971,-9576.193725
857.515029,148.041188,-1258.350101,-9806.022374
857.515349,1110.308913,0.000000,-9422.974625
857.515669,222.061783,148.041188,-9652.803275
857.515989,1258.350101,370.102971,-10495.508323
857.516309,2664.741391,296.082377,-10035.851024
857.516629,1258.350101,0.000000,-9882.631924
857.516949,444.123565,0.000000,-9806.022374
857.517269,1036.288319,592.164754,-10189.070123
857.517589,296.082377,74.020594,-10495.508323
857.517909,-222.061783,0.000000,-9882.631924
857.518229,-222.061783,-592.164754,-9806.022374
857.518549,1110.308913,-962.267725,-10725.336972
857.518869,1480.411884,-592.164754,-10112.460574
857.519189,962.267725,0.000000,-10572.117872
857.519509,-222.061783,0.000000,-10265.679673
857.519829,888.247130,592.164754,-10495.508323
857.520149,296.082377,666.185348,-10878.556072
857.520469,-518.144159,-296.082377,-10648.727422
857.520789,-1110.308913,-962.267725,-10265.679673
857.521109,-1184.329507,-370.102971,-10572.117872
857.521429,0.000000,-148.041188,-10955.165621
857.521749,666.185348,296.082377,-10572.117872
857.522069,222.061783,666.185348,-10265.679673
857.522389,-148.041188,-148.041188,-9882.631924
857.522709,222.061783,-888.247130,-10035.851024
857.523029,-962.267725,-1110.308913,-9806.022374
857.523349,-1406.391290,-1332.370696,-9882.631924
857.523670,0.000000,-962.267725,-9806.022374
857.523990,1036.288319,-666.185348,-9959.241474
857.524310,1184.329507,0.000000,-9806.022374
857.524630,1184.329507,1628.453072,-10342.289223
857.524950,1110.308913,2368.659014,-10342.289223
857.525270,1702.473667,1184.329507,-10035.851024
857.525590,296.082377,-296.082377,-9882.631924
857.525910,-1036.288319,-1554.432478,-9652.803275
857.526230,-1480.411884,-2220.617826,-9576.193725
857.526550,0.000000,-740.205942,-9499.584175
857.526870,2072.576638,0.000000,-10342.289223
857.527190,2886.803174,1406.391290,-10189.070123
857.527510,1924.535449,2220.617826,-10648.727422
857.527830,962.267725,1406.391290,-10189.070123
857.528150,0.000000,1554.432478,-10418.898773
857.528470,-370.102971,962.267725,-10265.679673
857.528790,-740.205942,74.020594,-9806.022374
857.529110,0.000000,-814.226536,-10265.679673
857.529430,2072.576638,-1258.350101,-9499.584175
857.529750,2072.576638,148.041188,-11261.603821
857.530070,1110.308913,666.185348,-10112.460574
857.530390,222.061783,2368.659014,-10801.946522
857.530710,-666.185348,2960.823768,-10265.679673
857.531030,1924.535449,2664.741391,-11338.213370
857.531350,1184.329507,296.082377,-9959.241474
857.531670,0.000000,-1258.350101,-9959.241474
857.531990,74.020594,-1406.391290,-9882.631924
857.532310,1480.411884,444.123565,-10801.946522
857.532630,1776.494261,1628.453072,-9806.022374
857.532950,444.123565,3182.885551,-9576.193725
857.533270,1258.350101,3775.050304,-10342.289223
857.533590,1036.288319,2368.659014,-9729.412825
857.533910,1776.494261,-1258.350101,-9806.022374
857.534230,148.041188,-1998.556043,-9499.584175
857.534550,-1036.288319,-2960.823768,-9652.803275
857.534870,-370.102971,-1554.432478,-9193.145976
857.535190,2072.576638,-666.185348,-9729.412825
857.535510,1332.370696,1628.453072,-9959.241474
857.535830,444.123565,1480.411884,-10189.070123
857.536150,-518.144159,1998.556043,-10189.070123
857.536470,814.226536,1332.370696,-10342.289223
857.536790,148.041188,1702.473667,-10189.070123
857.537111,-1184.329507,-518.144159,-9882.631924
857.537431,0.000000,-888.247130,-10189.070123
857.537751,-296.082377,-1776.494261,-10112.460574
857.538071,-962.267725,148.041188,-10955.165621
857.538391,296.082377,2072.576638,-10495.508323
857.538711,296.082377,3034.844362,-11184.994271
857.539031,370.102971,2812.782580,-10648.727422
857.539351,518.144159,1258.350101,-10648.727422
857.539671,592.164754,-370.102971,-10725.336972
857.539991,370.102971,-1850.514855,-10572.117872
857.540311,-592.164754,-1480.411884,-10648.727422
857.540631,-444.123565,74.020594,-10035.851024
857.540951,148.041188,814.226536,-10878.556072
857.541271,666.185348,2146.597232,-9806.022374
857.541591,296.082377,888.247130,-10265.679673
857.541911,296.082377,0.000000,-10418.898773
857.542231,-1628.453072,-592.164754,-9346.365076
857.542551,-740.205942,-1628.453072,-10035.851024
857.542871,-592.164754,-1406.391290,-9269.755526
857.543191,888.247130,-888.247130,-9729.412825
857.543511,666.185348,296.082377,-9652.803275
857.543831,1924.535449,0.000000,-9346.365076
857.544151,3182.885551,148.041188,-9652.803275
857.544471,1480.411884,1554.432478,-9806.022374
857.544791,1184.329507,1702.473667,-10648.727422
857.545111,814.226536,518.144159,-9806.022374
857.545431,740.205942,-370.102971,-9806.022374
857.545751,1406.391290,-1036.288319,-9729.412825
857.546071,444.123565,-1110.308913,-9806.022374
857.546391,-740.205942,-444.123565,-9882.631924
857.546711,0.000000,740.205942,-9652.803275
857.547031,1702.473667,2294.638420,-10418.898773
857.547351,1998.556043,2368.659014,-10035.851024
857.547671,1110.308913,740.205942,-10189.070123
857.547991,962.267725,74.020594,-10495.508323
857.548311,740.205942,0.000000,-9959.241474
857.548631,2220.617826,-222.061783,-10265.679673
857.548951,2220.617826,0.000000,-10342.289223
857.549271,296.082377,814.226536,-10572.117872
857.549591,1258.350101,2516.700203,-10801.946522
857.549911,1554.432478,2738.761985,-10801.946522
857.550231,814.226536,2294.638420,-10572.117872
857.550552,-296.082377,1480.411884,-10265.679673
857.550872,-222.061783,222.061783,-11184.994271
857.551192,1110.308913,-1702.473667,-10342.289223
857.551512,2072.576638,-370.102971,-10112.460574
857.551832,814.226536,1554.432478,-10189.070123
857.552152,0.000000,2072.576638,-10189.070123
857.552472,888.247130,1850.514855,-10265.679673
857.552792,1702.473667,1332.370696,-10035.851024
857.553112,370.102971,74.020594,-9806.022374
857.553432,666.185348,-370.102971,-9806.022374
857.553752,1998.556043,0.000000,-9576.193725
857.554072,1480.411884,148.041188,-9652.803275
857.554392,814.226536,-814.226536,-9806.022374
857.554712,666.185348,-518.144159,-9193.145976
857.555032,444.123565,888.247130,-9652.803275
857.555352,1628.453072,-444.123565,-9729.412825
857.555672,592.164754,-444.123565,-9269.755526
857.555992,0.000000,222.061783,-9652.803275
857.556312,814.226536,0.000000,-9576.193725
857.556632,814.226536,-1110.308913,-9269.755526
857.556952,-518.144159,-814.226536,-9806.022374
857.557272,-1776.494261,-1406.391290,-9652.803275
857.557592,-1554.432478,-1258.350101,-10572.117872
857.557912,-518.144159,-740.205942,-10035.851024
857.558232,0.000000,1258.350101,-10572.117872
857.558552,-1036.288319,592.164754,-10495.508323
857.558872,-1036.288319,-1406.391290,-10112.460574
857.559192,-1332.370696,-1776.494261,-10418.898773
857.559512,-1702.473667,-518.144159,-11568.042020
857.559832,-888.247130,222.061783,-10878.556072
857.560152,1628.453072,666.185348,-11031.775171
857.560472,962.267725,592.164754,-10418.898773
857.560792,-370.102971,-296.082377,-11491.432470
857.561112,-1850.514855,-962.267725,-10801.946522
857.561432,-2072.576638,-888.247130,-10495.508323
857.561752,-296.082377,-518.144159,-10725.336972
857.562072,-814.226536,0.000000,-10572.117872
857.562392,-1776.494261,-1110.308913,-9959.241474
857.562712,-1184.329507,-2294.638420,-9882.631924
857.563032,-444.123565,-888.247130,-10035.851024
857.563352,666.185348,592.164754,-10265.679673
857.563672,1628.453072,592.164754,-9882.631924
857.563993,518.144159,1776.494261,-9806.022374
857.564313,888.247130,-518.144159,-9576.193725
857.564633,2590.720797,-1554.432478,-9729.412825
857.564953,2368.659014,-1554.432478,-9652.803275
857.565273,1776.494261,814.226536,-9652.803275
857.565593,222.061783,2072.576638,-9806.022374
857.565913,740.205942,1480.411884,-9806.022374
857.566233,888.247130,666.185348,-9576.193725
857.566553,1036.288319,666.185348,-9652.803275
857.566873,3034.844362,-814.226536,-9882.631924
857.567193,3997.112087,-740.205942,-9806.022374
857.567513,3034.844362,740.205942,-10112.460574
857.567833,1924.535449,2294.638420,-10112.460574
857.568153,296.082377,3478.967927,-10572.117872
857.568473,0.000000,2220.617826,-10112.460574
857.568793,888.247130,1332.370696,-9882.631924
857.569113,2442.679609,222.061783,-10495.508323
857.569433,1776.494261,0.000000,-11338.213370
857.569753,592.164754,-1332.370696,-9806.022374
857.570073,-370.102971,-1036.288319,-9652.803275
857.570393,370.102971,148.041188,-10189.070123
857.570713,1110.308913,1850.514855,-9652.803275
857.571033,2294.638420,2368.659014,-10878.556072
857.571353,2368.659014,2516.700203,-10878.556072
857.571673,2368.659014,2368.659014,-10342.289223
857.571993,1776.494261,1258.350101,-10955.165621
857.572313,2368.659014,-370.102971,-10648.727422
857.572633,-370.102971,0.000000,-10112.460574
857.572953,-1258.350101,1480.411884,-10572.117872
857.573273,-1998.556043,1184.329507,-10189.070123
857.573593,-2442.679609,1850.514855,-10035.851024
857.573913,-2368.659014,1628.453072,-9882.631924
857.574233,-1480.411884,1480.411884,-10189.070123
857.574553,814.226536,1480.411884,-10418.898773
857.574873,1184.329507,370.102971,-9959.241474
857.575193,1258.350101,0.000000,-9882.631924
857.575513,814.226536,-370.102971,-9959.241474
857.575833,74.020594,-370.102971,-9346.365076
857.576153,-1406.391290,592.164754,-9576.193725
857.576473,-592.164754,1628.453072,-10035.851024
857.576793,1628.453072,2442.679609,-10112.460574
857.577113,1702.473667,1332.370696,-9806.022374
857.577433,1554.432478,222.061783,-9806.022374
857.577754,1554.432478,-888.247130,-9499.584175
857.578074,0.000000,-1110.308913,-10035.851024
857.578394,-740.205942,-1406.391290,-10035.851024
857.578714,-592.164754,74.020594,-9959.241474
857.579034,-740.205942,888.247130,-9729.412825
857.579354,-74.020594,962.267725,-9729.412825
857.579674,74.020594,518.144159,-9959.241474
857.579994,444.123565,0.000000,-10112.460574
857.580314,296.082377,0.000000,-10801.946522
857.580634,296.082377,-962.267725,-10342.289223
857.580954,222.061783,0.000000,-10112.460574
857.581274,0.000000,1480.411884,-10035.851024
857.581594,296.082377,1406.391290,-10495.508323
857.581914,1184.329507,222.061783,-10725.336972
857.582234,1554.432478,-1110.308913,-10265.679673
857.582554,148.041188,-1998.556043,-10112.460574
857.582874,444.123565,-1850.514855,-10112.460574
857.583194,370.102971,-888.247130,-9806.022374
857.583514,0.000000,-444.123565,-10189.070123
857.583834,-888.247130,-1406.391290,-10035.851024
857.584154,-444.123565,-1332.370696,-10265.679673
857.584474,-370.102971,-1184.329507,-9806.022374
857.584794,-444.123565,-518.144159,-9959.241474
857.585114,222.061783,740.205942,-10265.679673
857.585434,1480.411884,222.061783,-10418.898773
857.585754,2368.659014,370.102971,-10342.289223
857.586074,2960.823768,-444.123565,-10648.727422
857.586394,2368.659014,0.000000,-10112.460574
857.586714,444.123565,814.226536,-10801.946522
857.587034,-370.102971,2294.638420,-10648.727422
857.587354,-296.082377,2960.823768,-10495.508323
857.587674,1258.350101,2590.720797,-10265.679673
857.587994,2812.782580,592.164754,-8963.317327
857.588314,2886.803174,-518.144159,-10265.679673
857.588634,1554.432478,-444.123565,-10035.851024
857.588954,148.041188,222.061783,-10112.460574
857.589274,1110.308913,1702.473667,-9959.241474
857.589594,0.000000,2442.679609,-10112.460574
857.589914,-592.164754,1998.556043,-9806.022374
857.590234,-444.123565,592.164754,-9652.803275
857.590554,1332.370696,-592.164754,-9806.022374
857.590874,1924.535449,0.000000,-11108.384721
857.591195,1406.391290,-222.061783,-10112.460574
857.591515,1110.308913,0.000000,-9499.584175
857.591835,592.164754,888.247130,-9499.584175
857.592155,962.267725,1036.288319,-9346.365076
857.592475,370.102971,592.164754,-10035.851024
857.592795,0.000000,74.020594,-9652.803275
857.593115,296.082377,444.123565,-10035.851024
857.593435,296.082377,666.185348,-9959.241474
857.593755,-296.082377,666.185348,-9039.926876
857.594075,-1554.432478,444.123565,-10112.460574
857.594395,-1184.329507,-148.041188,-10035.851024
857.594715,962.267725,-592.164754,-9959.241474
857.595035,962.267725,-148.041188,-9576.193725
857.595355,-592.164754,-296.082377,-10342.289223
857.595675,-1110.308913,444.123565,-9882.631924
857.595995,-1406.391290,814.226536,-9806.022374
857.596315,74.020594,74.020594,-10265.679673
857.596635,2220.617826,74.020594,-10189.070123
857.596955,666.185348,-814.226536,-10112.460574
857.597275,296.082377,-666.185348,-10342.289223
857.597595,74.020594,-518.144159,-10189.070123
857.597915,444.123565,-222.061783,-9729.412825
857.598235,592.164754,-1036.288319,-10265.679673
857.598555,1554.432478,-962.267725,-9882.631924
857.598875,1480.411884,-444.123565,-10189.070123
857.599195,592.164754,-296.082377,-9959.241474
857.599515,370.102971,1184.329507,-10495.508323
857.599835,0.000000,1258.350101,-10572.117872
857.600155,-518.144159,740.205942,-10342.289223
857.600475,888.247130,0.000000,-10112.460574
857.600795,888.247130,-444.123565,-11338.213370
857.601115,296.082377,-1258.350101,-9652.803275
857.601435,0.000000,-296.082377,-10418.898773
857.601755,0.000000,-296.082377,-10418.898773
857.602075,444.123565,0.000000,-10418.898773
857.602395,518.144159,814.226536,-10648.727422
857.602715,1554.432478,1554.432478,-10035.851024
857.603035,1036.288319,1702.473667,-10572.117872
857.603355,592.164754,518.144159,-10418.898773
857.603675,-296.082377,-1110.308913,-9576.193725
857.603995,-518.144159,-444.123565,-10189.070123
857.604315,-518.144159,-1406.391290,-9499.584175
857.604636,-296.082377,-296.082377,-9959.241474
857.604956,74.020594,0.000000,-9729.412825
857.605275,962.267725,-296.082377,-10112.460574
857.605595,148.041188,518.144159,-9959.241474
857.605915,-148.041188,814.226536,-10342.289223
857.606235,-370.102971,1110.308913,-10035.851024
857.606555,1554.432478,1850.514855,-10035.851024
857.606875,74.020594,296.082377,-9806.022374
857.607195,370.102971,-1184.329507,-9806.022374
857.607515,296.082377,740.205942,-9806.022374
857.607835,296.082377,2812.782580,-10572.117872
857.608155,1480.411884,4589.276840,-10572.117872
857.608475,518.144159,3627.009116,-10112.460574
857.608795,-740.205942,1110.308913,-9806.022374
857.609115,-148.041188,-1406.391290,-8963.317327
857.609435,1924.535449,-1924.535449,-10418.898773
857.609755,3256.906145,-2442.679609,-9499.584175
857.610075,2220.617826,-444.123565,-9959.241474
857.610395,0.000000,2220.617826,-10112.460574
857.610714,148.041188,4071.132681,-10112.460574
857.611034,1184.329507,4367.215058,-10648.727422
857.611354,2368.659014,4737.318029,-11184.994271
857.611674,1480.411884,2368.659014,-10418.898773
857.611994,1110.308913,-592.164754,-10801.946522
857.612314,1332.370696,-2812.782580,-10112.460574
857.612634,1998.556043,-1110.308913,-10035.851024
857.612954,1184.329507,2072.576638,-10035.851024
857.613274,370.102971,2368.659014,-10265.679673
857.613594,2072.576638,2294.638420,-10418.898773
857.613914,1702.473667,592.164754,-10725.336972
857.614234,592.164754,666.185348,-10342.289223
857.614554,0.000000,1110.308913,-10035.851024
857.614874,592.164754,1036.288319,-10189.070123
857.615194,518.144159,2294.638420,-9806.022374
857.615514,-740.205942,814.226536,-9806.022374
857.615834,-1258.350101,-518.144159,-9806.022374
857.616153,-666.185348,-1554.432478,-9499.584175
857.616473,1110.308913,0.000000,-9882.631924
857.616793,666.185348,592.164754,-9193.145976
857.617113,666.185348,-222.061783,-9116.536426
857.617433,0.000000,-444.123565,-9422.974625
857.617753,888.247130,-1480.411884,-9422.974625
857.618073,370.102971,-2146.597232,-9116.536426
857.618393,-1110.308913,-1776.494261,-9652.803275
857.618713,-1332.370696,1332.370696,-10265.679673
857.619033,-2072.576638,1406.391290,-10035.851024
857.619353,1480.411884,1258.350101,-10418.898773
857.619673,2146.597232,296.082377,-10112.460574
857.619993,2886.803174,-3404.947333,-10035.851024
857.620313,888.247130,-1258.350101,-10648.727422
857.620633,-518.144159,-1332.370696,-10035.851024
857.620953,814.226536,444.123565,-10648.727422
857.621272,1332.370696,1998.556043,-10648.727422
857.621592,888.247130,518.144159,-10418.898773
857.621912,1184.329507,-666.185348,-11568.042020
857.622232,-222.061783,-518.144159,-10189.070123
857.622552,-962.267725,-296.082377,-10878.556072
857.622872,-518.144159,0.000000,-10955.165621
857.623192,-370.102971,-1480.411884,-10878.556072
857.623512,-740.205942,-1258.350101,-10495.508323
857.623832,-1480.411884,-592.164754,-10878.556072
857.624152,74.020594,-222.061783,-10572.117872
857.624472,1332.370696,962.267725,-10648.727422
857.624792,444.123565,1702.473667,-10878.556072
857.625112,-444.123565,1110.308913,-10572.117872
857.625432,-740.205942,-740.205942,-9882.631924
857.625752,296.082377,-2368.659014,-9729.412825
857.626072,666.185348,-2294.638420,-9499.584175
857.626392,592.164754,-962.267725,-9729.412825
857.626711,666.185348,-148.041188,-9882.631924
857.627031,1110.308913,518.144159,-9882.631924
857.627351,888.247130,962.267725,-9576.193725
857.627671,444.123565,592.164754,-9116.536426
857.627991,-1110.308913,-148.041188,-9116.536426
857.628311,-1776.494261,-962.267725,-9499.584175
857.628631,-962.267725,-1184.329507,-9039.926876
857.628951,888.247130,-962.267725,-10035.851024
857.629271,2368.659014,370.102971,-8733.488677
857.629591,1332.370696,2220.617826,-9806.022374
857.629911,-296.082377,3330.926739,-10189.070123
857.630231,-444.123565,2442.679609,-9729.412825
857.630551,370.102971,1184.329507,-9806.022374
857.630871,2072.576638,-1776.494261,-9499.584175
857.631191,2812.782580,-2516.700203,-10035.851024
857.631511,2812.782580,-1480.411884,-10265.679673
857.631831,1924.535449,1924.535449,-10418.898773
857.632150,148.041188,4885.359217,-10725.336972
857.632470,518.144159,5995.668130,-10955.165621
857.632790,1776.494261,4293.194464,-10725.336972
857.633110,592.164754,1332.370696,-10495.508323
857.633430,-444.123565,-740.205942,-10878.556072
857.633750,-2368.659014,-962.267725,-10112.460574
857.634070,1406.391290,592.164754,-10342.289223
857.634390,2220.617826,1036.288319,-10189.070123
857.634710,2886.803174,2368.659014,-10801.946522
857.635030,2368.659014,1924.535449,-11568.042020
857.635350,2220.617826,1332.370696,-10725.336972
857.635670,740.205942,2664.741391,-10112.460574
857.635990,1036.288319,3627.009116,-10572.117872
857.636310,2072.576638,2664.741391,-9652.803275
857.636630,1258.350101,74.020594,-9806.022374
857.636950,-222.061783,-1110.308913,-9729.412825
857.637270,-1480.411884,-1110.308913,-9652.803275
857.637589,0.000000,0.000000,-9806.022374
857.637909,1110.308913,518.144159,-9806.022374
857.638229,592.164754,1480.411884,-9806.022374
857.638549,148.041188,814.226536,-9576.193725
857.638869,222.061783,-1184.329507,-9039.926876
857.639189,296.082377,-2294.638420,-9039.926876
857.639509,74.020594,0.000000,-9499.584175
857.639829,296.082377,518.144159,-9959.241474
857.640149,1554.432478,370.102971,-9806.022374
857.640469,962.267725,0.000000,-9499.584175
857.640789,0.000000,-1110.308913,-9729.412825
857.641109,-518.144159,74.020594,-9729.412825
857.641429,0.000000,296.082377,-10342.289223
857.641749,1184.329507,222.061783,-10725.336972
857.642069,888.247130,-592.164754,-10342.289223
857.642389,-962.267725,-1110.308913,-10265.679673
857.642709,-2146.597232,-1110.308913,-9959.241474
857.643028,-1036.288319,-1332.370696,-10342.289223
857.643348,0.000000,-518.144159,-10112.460574
857.643668,1702.473667,0.000000,-10955.165621
857.643988,1776.494261,-666.185348,-11031.775171
857.644308,1406.391290,-444.123565,-10955.165621
857.644628,222.061783,-666.185348,-10725.336972
857.644948,-740.205942,296.082377,-10265.679673
857.645268,-370.102971,444.123565,-10648.727422
857.645588,296.082377,-666.185348,-10112.460574
857.645908,-370.102971,-2294.638420,-10112.460574
857.646228,-518.144159,-2886.803174,-10418.898773
857.646548,-666.185348,-3552.988522,-9652.803275
857.646868,-518.144159,-1998.556043,-9806.022374
857.647188,-592.164754,-1332.370696,-9499.584175
857.647508,518.144159,-740.205942,-10189.070123
857.647828,2664.741391,-1184.329507,-9882.631924
857.648148,296.082377,-1628.453072,-10035.851024
857.648467,-518.144159,-1258.350101,-9576.193725
857.648787,-592.164754,-296.082377,-9959.241474
857.649107,740.205942,444.123565,-9806.022374
857.649427,2294.638420,1036.288319,-10035.851024
857.649747,1036.288319,-962.267725,-9422.974625
857.650067,-296.082377,-1332.370696,-9806.022374
857.650387,-1110.308913,-1628.453072,-9959.241474
857.650707,-814.226536,0.000000,-9806.022374
857.651027,222.061783,2442.679609,-9806.022374
857.651347,1184.329507,3034.844362,-10725.336972
857.651667,1554.432478,2368.659014,-10035.851024
857.651987,1406.391290,666.185348,-10572.117872
857.652307,2072.576638,-444.123565,-9729.412825
857.652627,2812.782580,888.247130,-10189.070123
857.652947,3552.988522,1702.473667,-10418.898773
857.653267,3108.864956,2738.761985,-10418.898773
857.653586,740.205942,2294.638420,-9806.022374
857.653906,-296.082377,1184.329507,-10189.070123
857.654226,-1406.391290,1258.350101,-10035.851024
857.654546,-1110.308913,1924.535449,-10572.117872
857.654866,-148.041188,3034.844362,-10112.460574
857.655186,1850.514855,2812.782580,-10878.556072
857.655506,3256.906145,1554.432478,-10418.898773
857.655826,1924.535449,592.164754,-9959.241474
857.656146,222.061783,740.205942,-9499.584175
857.656466,-148.041188,2220.617826,-10112.460574
857.656786,1332.370696,2738.761985,-10342.289223
857.657106,1628.453072,2960.823768,-10112.460574
857.657426,814.226536,2146.597232,-9806.022374
857.657746,0.000000,222.061783,-9729.412825
857.658066,148.041188,-444.123565,-9806.022374
857.658386,592.164754,666.185348,-9959.241474
857.658706,-296.082377,1110.308913,-10112.460574
857.659025,0.000000,1258.350101,-9729.412825
857.659345,962.267725,1554.432478,-9269.755526
857.659665,2220.617826,1110.308913,-9806.022374
857.659985,2516.700203,444.123565,-9346.365076
857.660305,1258.350101,-296.082377,-9346.365076
857.660625,148.041188,-222.061783,-9039.926876
857.660945,814.226536,-592.164754,-9652.803275
857.661265,814.226536,-814.226536,-9346.365076
857.661585,-518.144159,-1110.308913,-9346.365076
857.661905,-1998.556043,-592.164754,-9193.145976
857.662225,-2220.617826,1406.391290,-9806.022374
857.662545,-1480.411884,1850.514855,-9882.631924
857.662865,-666.185348,2738.761985,-10725.336972
857.663185,222.061783,1554.432478,-10801.946522
857.663505,1332.370696,444.123565,-10572.117872
857.663825,1850.514855,-1036.288319,-10648.727422
857.664145,1332.370696,-1110.308913,-10955.165621
857.664464,-666.185348,-296.082377,-10878.556072
857.664784,-1554.432478,1406.391290,-11184.994271
857.665104,-1998.556043,2220.617826,-11568.042020
857.665424,-962.267725,2590.720797,-11568.042020
857.665744,-1332.370696,1628.453072,-11108.384721
857.666064,-1554.432478,296.082377,-10725.336972
857.666384,-370.102971,-1110.308913,-11568.042020
857.666704,1110.308913,-2886.803174,-10112.460574
857.667024,1776.494261,-2738.761985,-10035.851024
857.667344,2442.679609,-1998.556043,-10418.898773
857.667664,2738.761985,444.123565,-9882.631924
857.667984,2368.659014,-148.041188,-10495.508323
857.668304,1036.288319,814.226536,-10035.851024
857.668624,-148.041188,0.000000,-9806.022374
857.668944,444.123565,0.000000,-9729.412825
857.669264,2072.576638,-1110.308913,-9959.241474
857.669584,1850.514855,-2590.720797,-9652.803275
857.669903,74.020594,-2368.659014,-9499.584175
857.670223,-1406.391290,-2664.741391,-9269.755526
857.670543,-1036.288319,-1480.411884,-10801.946522
857.670863,-1184.329507,666.185348,-9499.584175
857.671183,-592.164754,1258.350101,-9806.022374
857.671503,444.123565,740.205942,-10035.851024
857.671823,2220.617826,-592.164754,-10035.851024
857.672143,1480.411884,-1184.329507,-9499.584175
857.672463,1406.391290,-888.247130,-10035.851024
857.672783,2368.659014,74.020594,-10495.508323
857.673103,1924.535449,518.144159,-10801.946522
857.673423,518.144159,888.247130,-10495.508323
857.673743,-222.061783,1850.514855,-10955.165621
857.674063,148.041188,2368.659014,-10648.727422
857.674383,2072.576638,2146.597232,-11184.994271
857.674703,2368.659014,1332.370696,-11184.994271
857.675023,1406.391290,0.000000,-10801.946522
857.675342,592.164754,148.041188,-10801.946522
857.675662,148.041188,1332.370696,-10725.336972
857.675982,-666.185348,3256.906145,-11031.775171
857.676302,0.000000,3627.009116,-10418.898773
857.676622,1110.308913,3182.885551,-10725.336972
857.676942,1850.514855,962.267725,-10265.679673
857.677262,1998.556043,0.000000,-9959.241474
857.677582,962.267725,-296.082377,-10112.460574
857.677902,1110.308913,814.226536,-10342.289223
857.678222,296.082377,592.164754,-9422.974625
857.678542,740.205942,1332.370696,-9806.022374
857.678862,592.164754,1036.288319,-9499.584175
857.679182,666.185348,1110.308913,-9499.584175
857.679502,814.226536,1480.411884,-9499.584175
857.679822,1110.308913,1850.514855,-9806.022374
857.680142,1406.391290,1406.391290,-9576.193725
857.680462,296.082377,888.247130,-9346.365076
857.680781,296.082377,-1332.370696,-9346.365076
857.681101,370.102971,-2294.638420,-9269.755526
857.681421,-370.102971,-1184.329507,-8963.317327
857.681741,0.000000,888.247130,-9882.631924
857.682061,592.164754,2368.659014,-10265.679673
857.682381,1332.370696,3034.844362,-9959.241474
857.682701,962.267725,1850.514855,-10265.679673
857.683021,1924.535449,222.061783,-10112.460574
857.683341,888.247130,-740.205942,-10572.117872
857.683661,888.247130,-1036.288319,-10265.679673
857.683981,888.247130,-814.226536,-10648.727422
857.684301,-1036.288319,-444.123565,-10572.117872
857.684621,-1554.432478,962.267725,-10265.679673
857.684941,-518.144159,666.185348,-10572.117872
857.685261,444.123565,1554.432478,-10648.727422
857.685581,74.020594,888.247130,-11031.775171
857.685900,-148.041188,-370.102971,-10878.556072
857.686220,-148.041188,-2516.700203,-10265.679673
857.686540,-1554.432478,-2886.803174,-10418.898773
857.686860,-1924.535449,-2442.679609,-9959.241474
857.687180,-1184.329507,-2146.597232,-10112.460574
857.687500,-814.226536,-814.226536,-9806.022374
857.687820,-370.102971,-370.102971,-10035.851024
857.688140,148.041188,444.123565,-10189.070123
857.688460,518.144159,-740.205942,-10189.070123
857.688780,370.102971,-1554.432478,-9882.631924
857.689100,-518.144159,-2368.659014,-9193.145976
857.689420,-888.247130,-3404.947333,-9116.536426
857.689740,-1554.432478,-4145.153275,-9269.755526
857.690060,-1554.432478,-4145.153275,-9116.536426
857.690380,0.000000,-2294.638420,-9729.412825
857.690700,1184.329507,-814.226536,-10035.851024
857.691020,2072.576638,1110.308913,-10035.851024
857.691339,1998.556043,2368.659014,-10648.727422
857.691659,1998.556043,2738.761985,-10265.679673
857.691979,1554.432478,2072.576638,-10265.679673
857.692299,1776.494261,-814.226536,-10189.070123
857.692619,666.185348,-3256.906145,-10265.679673
857.692939,0.000000,-2368.659014,-10265.679673
857.693259,444.123565,-1184.329507,-10725.336972
857.693579,1850.514855,2220.617826,-10418.898773
857.693899,2812.782580,4441.235652,-11031.775171
857.694219,592.164754,4071.132681,-10955.165621
857.694539,222.061783,2960.823768,-11338.213370
857.694859,1702.473667,222.061783,-10418.898773
857.695179,2368.659014,0.000000,-10035.851024
857.695499,3478.967927,-444.123565,-10035.851024
857.695819,2368.659014,-296.082377,-10189.070123
857.696139,666.185348,-1036.288319,-9882.631924
857.696459,148.041188,666.185348,-10112.460574
857.696778,814.226536,2146.597232,-10035.851024
857.697098,74.020594,3404.947333,-9882.631924
857.697418,148.041188,3256.906145,-10112.460574
857.697738,1702.473667,1702.473667,-9806.022374
857.698058,1110.308913,444.123565,-9806.022374
857.698378,0.000000,-370.102971,-9269.755526
857.698698,-444.123565,-666.185348,-9729.412825
857.699018,-1406.391290,74.020594,-8963.317327
857.699338,-1184.329507,1924.535449,-9193.145976
857.699658,296.082377,2368.659014,-9422.974625
857.699978,1628.453072,1850.514855,-9499.584175
857.700298,2146.597232,666.185348,-9806.022374
857.700618,888.247130,740.205942,-9652.803275
857.700938,-444.123565,1406.391290,-10342.289223
857.701258,518.144159,2590.720797,-9882.631924
857.701578,666.185348,3701.029710,-10112.460574
857.701898,296.082377,3997.112087,-10801.946522
857.702217,370.102971,2812.782580,-10572.117872
857.702537,-666.185348,1924.535449,-10112.460574
857.702857,222.061783,2220.617826,-10342.289223
857.703177,1554.432478,1628.453072,-10342.289223
857.703497,2294.638420,1998.556043,-10725.336972
857.703817,3256.906145,1628.453072,-10112.460574
857.704137,1776.494261,1998.556043,-9882.631924
857.704457,1702.473667,2812.782580,-10342.289223
857.704777,1998.556043,3256.906145,-10035.851024
857.705097,2960.823768,3478.967927,-10725.336972
857.705417,2590.720797,2590.720797,-10418.898773
857.705737,1702.473667,1850.514855,-9806.022374
857.706057,1998.556043,1480.411884,-10112.460574
857.706377,2368.659014,1184.329507,-9959.241474
857.706697,2960.823768,814.226536,-10112.460574
857.707017,2146.597232,1332.370696,-9806.022374
857.707337,2368.659014,2664.741391,-9959.241474
857.707657,3849.070898,3552.988522,-10265.679673
857.707977,4367.215058,3775.050304,-10112.460574
857.708297,4293.194464,3849.070898,-9959.241474
857.708617,2590.720797,3552.988522,-10189.070123
857.708937,2368.659014,2590.720797,-9806.022374
857.709257,1998.556043,1776.494261,-9116.536426
857.709577,1036.288319,0.000000,-9499.584175
857.709897,444.123565,0.000000,-9269.755526
857.710217,444.123565,0.000000,-9499.584175
857.710537,962.267725,962.267725,-9422.974625
857.710857,1924.535449,1480.411884,-9269.755526
857.711177,2738.761985,2368.659014,-9882.631924
857.711497,2960.823768,1998.556043,-10265.679673
857.711817,1850.514855,1850.514855,-9882.631924
857.712137,1406.391290,2738.761985,-9806.022374
857.712457,2960.823768,2812.782580,-10418.898773
857.712777,3997.112087,3775.050304,-10342.289223
857.713097,888.247130,2294.638420,-10572.117872
857.713417,-1554.432478,592.164754,-10189.070123
857.713737,148.041188,-592.164754,-9959.241474
857.714057,3701.029710,-666.185348,-10189.070123
857.714377,3775.050304,1258.350101,-10495.508323
857.714697,2590.720797,2812.782580,-10725.336972
857.715017,2146.597232,4959.379811,-10572.117872
857.715337,3330.926739,5033.400406,-11108.384721
857.715657,3330.926739,4885.359217,-11261.603821
857.715977,592.164754,2664.741391,-10648.727422
857.716297,-370.102971,1332.370696,-9806.022374
857.716617,1258.350101,148.041188,-10418.898773
857.716937,3256.906145,962.267725,-10342.289223
857.717257,2368.659014,2146.597232,-10801.946522
857.717577,2294.638420,2886.803174,-9959.241474
857.717897,3330.926739,3923.091493,-9806.022374
857.718217,5033.400406,4293.194464,-10189.070123
857.718537,4145.153275,4515.256246,-10342.289223
857.718857,2368.659014,2738.761985,-9806.022374
857.719177,2960.823768,1998.556043,-9422.974625
857.719497,4219.173869,1406.391290,-9959.241474
857.719817,4515.256246,1776.494261,-10035.851024
857.720137,2368.659014,2664.741391,-10112.460574
857.720457,-74.020594,3923.091493,-9729.412825
857.720777,-370.102971,4367.215058,-9806.022374
857.721097,1184.329507,3775.050304,-9806.022374
857.721417,2886.803174,2738.761985,-9959.241474
857.721737,3330.926739,1480.411884,-9959.241474
857.722057,2368.659014,1776.494261,-9882.631924
857.722377,2072.576638,2590.720797,-10112.460574
857.722697,2516.700203,3849.070898,-9882.631924
857.723017,3182.885551,4663.297435,-11031.775171
857.723337,5181.441594,3404.947333,-10418.898773
857.723657,3775.050304,4367.215058,-10418.898773
857.723977,1776.494261,3775.050304,-10572.117872
857.724297,296.082377,3256.906145,-10189.070123
857.724617,1332.370696,2960.823768,-10265.679673
857.724937,3182.885551,1776.494261,-10801.946522
857.725257,4219.173869,592.164754,-9729.412825
857.725577,1998.556043,888.247130,-10418.898773
857.725897,-370.102971,1998.556043,-9729.412825
857.726217,-814.226536,3552.988522,-9039.926876
857.726537,1480.411884,3997.112087,-10035.851024
857.726857,3849.070898,2738.761985,-9959.241474
857.727177,4293.194464,370.102971,-9806.022374
857.727497,3552.988522,74.020594,-8963.317327
857.727817,3330.926739,888.247130,-9806.022374
857.728137,2590.720797,3034.844362,-9806.022374
857.728457,740.205942,4515.256246,-9882.631924
857.728777,888.247130,3330.926739,-9499.584175
857.729097,2368.659014,1628.453072,-9269.755526
857.729417,2738.761985,-592.164754,-9806.022374
857.729737,1776.494261,-740.205942,-9806.022374
857.730057,666.185348,740.205942,-9806.022374
857.730377,814.226536,2590.720797,-10725.336972
857.730697,1776.494261,3108.864956,-9652.803275
857.731017,1702.473667,2368.659014,-9806.022374
857.731337,2516.700203,1332.370696,-10189.070123
857.731657,3552.988522,518.144159,-10342.289223
857.731977,2960.823768,1406.391290,-10648.727422
857.732297,3182.885551,2294.638420,-10265.679673
857.732617,3256.906145,3256.906145,-10112.460574
857.732937,3404.947333,3701.029710,-10878.556072
857.733257,2664.741391,2886.803174,-10801.946522
857.733577,518.144159,2886.803174,-10725.336972
857.733897,-666.185348,2072.576638,-10342.289223
857.734217,518.144159,666.185348,-10342.289223
857.734537,2664.741391,-148.041188,-10035.851024
857.734857,3775.050304,0.000000,-10189.070123
857.735177,3627.009116,1776.494261,-10265.679673
857.735497,3478.967927,4219.173869,-10265.679673
857.735817,4737.318029,6217.729913,-10878.556072
857.736137,5773.606348,6735.874072,-11031.775171
857.736457,4959.379811,5255.462188,-10648.727422
857.736777,2664.741391,3034.844362,-10495.508323
857.737097,740.205942,888.247130,-9959.241474
857.737417,-1110.308913,222.061783,-9806.022374
857.737737,-1036.288319,0.000000,-9346.365076
857.738057,74.020594,0.000000,-9346.365076
857.738377,1332.370696,518.144159,-9346.365076
857.738697,2516.700203,1850.514855,-9652.803275
857.739017,3923.091493,3923.091493,-10112.460574
857.739337,5329.482782,4663.297435,-10189.070123
857.739657,6143.709319,5625.565159,-10189.070123
857.739977,5699.585753,5329.482782,-10265.679673
857.740297,4293.194464,3923.091493,-11414.822920
857.740617,2294.638420,2664.741391,-10342.289223
857.740937,814.226536,2072.576638,-10265.679673
857.741257,-444.123565,2072.576638,-10035.851024
857.741577,-1332.370696,1998.556043,-9806.022374
857.741897,-2442.679609,1258.350101,-9806.022374
857.742217,-1776.494261,740.205942,-9652.803275
857.742537,-370.102971,370.102971,-9729.412825
857.742857,1998.556043,1332.370696,-9729.412825
857.743177,4959.379811,2516.700203,-10418.898773
857.743497,6809.894666,4515.256246,-10112.460574
857.743817,6957.935855,6143.709319,-10878.556072
857.744137,5699.585753,6587.832884,-10878.556072
857.744457,3849.070898,6587.832884,-10725.336972
857.744777,2146.597232,5255.462188,-10725.336972
857.745097,370.102971,3182.885551,-10418.898773
857.745417,0.000000,1406.391290,-10418.898773
857.745737,-148.041188,0.000000,-9806.022374
857.746057,-962.267725,-148.041188,-9882.631924
857.746377,-1184.329507,740.205942,-9806.022374
857.746697,370.102971,2516.700203,-9806.022374
