#time,accel_x,accel_y,accel_z
844.091445,592.164754,0.000000,-10035.851024
844.091765,592.164754,0.000000,-10112.460574
844.092085,666.185348,0.000000,-9806.022374
844.092406,296.082377,444.123565,-10035.851024
844.092726,666.185348,518.144159,-10189.070123
844.093046,222.061783,518.144159,-9652.803275
844.093366,1036.288319,592.164754,-9882.631924
844.093686,518.144159,74.020594,-10265.679673
844.094006,518.144159,0.000000,-10035.851024
844.094326,370.102971,0.000000,-10035.851024
844.094647,444.123565,962.267725,-10035.851024
844.094967,592.164754,666.185348,-9959.241474
844.095287,592.164754,592.164754,-10189.070123
844.095607,888.247130,444.123565,-10112.460574
844.095927,666.185348,222.061783,-10112.460574
844.096247,740.205942,-814.226536,-10265.679673
844.096567,148.041188,-592.164754,-9882.631924
844.096888,666.185348,-74.020594,-10035.851024
844.097208,962.267725,370.102971,-10035.851024
844.097528,0.000000,444.123565,-9882.631924
844.097848,0.000000,370.102971,-9882.631924
844.098168,148.041188,74.020594,-9806.022374
844.098488,740.205942,0.000000,-10112.460574
844.098808,74.020594,0.000000,-10112.460574
844.099129,-148.041188,-222.061783,-10189.070123
844.099449,222.061783,0.000000,-10035.851024
844.099769,740.205942,74.020594,-9806.022374
844.100089,444.123565,-222.061783,-10265.679673
844.100409,-296.082377,-666.185348,-10648.727422
844.100729,-222.061783,-962.267725,-9959.241474
844.101049,148.041188,-888.247130,-9959.241474
844.101370,-592.164754,-222.061783,-10189.070123
844.101690,-1036.288319,-370.102971,-9959.241474
844.102010,-814.226536,0.000000,-10189.070123
844.102330,-148.041188,-666.185348,-9959.241474
844.102650,-592.164754,-1110.308913,-10112.460574
844.102970,-962.267725,-1702.473667,-10112.460574
844.103290,-1480.411884,-1554.432478,-9806.022374
844.103611,-370.102971,-1554.432478,-9806.022374
844.103931,-814.226536,-1332.370696,-10112.460574
844.104251,-1702.473667,-1628.453072,-10189.070123
844.104571,-1776.494261,-1998.556043,-9806.022374
844.104891,-1406.391290,-2294.638420,-10112.460574
844.105211,-444.123565,-1702.473667,-9806.022374
844.105531,-1406.391290,-1554.432478,-9959.241474
844.105852,-1628.453072,-1850.514855,-10035.851024
844.106172,-1406.391290,-1850.514855,-9806.022374
844.106492,-370.102971,-1998.556043,-10189.070123
844.106812,-1110.308913,-1480.411884,-10189.070123
844.107132,-2220.617826,-2146.597232,-10112.460574
844.107452,-2738.761985,-2368.659014,-9652.803275
844.107772,-2368.659014,-2960.823768,-10035.851024
844.108093,-1924.535449,-3034.844362,-10342.289223
844.108413,-2220.617826,-3552.988522,-10035.851024
844.108733,-2368.659014,-3849.070898,-10265.679673
844.109053,-1554.432478,-2664.741391,-9882.631924
844.109373,-370.102971,-1554.432478,-10418.898773
844.109693,888.247130,-666.185348,-10572.117872
844.110013,-148.041188,-148.041188,-10801.946522
844.110334,-2294.638420,-444.123565,-10418.898773
844.110654,-2812.782580,-1480.411884,-10189.070123
844.110974,-3627.009116,-2442.679609,-10265.679673
844.111294,-4959.379811,-3478.967927,-10035.851024
844.111614,-5181.441594,-5181.441594,-9806.022374
844.111934,-3701.029710,-5921.647536,-9576.193725
844.112254,-1258.350101,-5699.585753,-9729.412825
844.112575,518.144159,-3849.070898,-10035.851024
844.112895,370.102971,-1258.350101,-10265.679673
844.113215,888.247130,592.164754,-10112.460574
844.113535,1258.350101,1480.411884,-10418.898773
844.113855,1776.494261,1110.308913,-10342.289223
844.114175,1258.350101,-222.061783,-10495.508323
844.114495,-370.102971,-2442.679609,-9959.241474
844.114816,-2368.659014,-3478.967927,-9806.022374
844.115136,-4367.215058,-3849.070898,-9576.193725
844.115456,-5773.606348,-3478.967927,-9652.803275
844.115776,-4811.338623,-4515.256246,-9269.755526
844.116096,-2442.679609,-4811.338623,-9269.755526
844.116416,296.082377,-4589.276840,-9959.241474
844.116736,1924.535449,-2812.782580,-10418.898773
844.117057,2664.741391,74.020594,-10189.070123
844.117377,3552.988522,2738.761985,-10878.556072
844.117697,4219.173869,3849.070898,-10955.165621
844.118017,2812.782580,4367.215058,-11414.822920
844.118337,-888.247130,2146.597232,-11108.384721
844.118657,-5181.441594,-1702.473667,-10112.460574
844.118978,-6365.771101,-4737.318029,-9576.193725
844.119298,-5403.503377,-7179.997637,-9576.193725
844.119618,-4145.153275,-7328.038826,-9346.365076
844.119938,-3627.009116,-5551.544565,-9039.926876
844.120258,-2590.720797,-2886.803174,-9346.365076
844.120578,518.144159,740.205942,-10495.508323
844.120898,2146.597232,4219.173869,-10801.946522
844.121219,1480.411884,4885.359217,-10878.556072
844.121539,1850.514855,3182.885551,-10418.898773
844.121859,2368.659014,370.102971,-10418.898773
844.122179,666.185348,-1776.494261,-10342.289223
844.122499,-2738.761985,-2664.741391,-9959.241474
844.122819,-4885.359217,-3627.009116,-9346.365076
844.123139,-5699.585753,-2812.782580,-9039.926876
844.123460,-7031.956449,-3108.864956,-9499.584175
844.123780,-6735.874072,-4515.256246,-9039.926876
844.124100,-5255.462188,-5551.544565,-8963.317327
844.124420,-1480.411884,-4515.256246,-9193.145976
844.124740,2516.700203,-1628.453072,-9806.022374
844.125060,3997.112087,1924.535449,-10495.508323
844.125380,2812.782580,3849.070898,-10648.727422
844.125701,1406.391290,3997.112087,-10648.727422
844.126021,1850.514855,2738.761985,-10112.460574
844.126341,1406.391290,0.000000,-10955.165621
844.126661,-1554.432478,-2886.803174,-10342.289223
844.126981,-5033.400406,-4811.338623,-10265.679673
844.127301,-7105.977043,-5033.400406,-9576.193725
844.127621,-8364.327145,-5181.441594,-9499.584175
844.127942,-6809.894666,-4367.215058,-9193.145976
844.128262,-2664.741391,-4737.318029,-9346.365076
844.128582,1702.473667,-4737.318029,-9806.022374
844.128902,3997.112087,-2368.659014,-10725.336972
844.129222,2960.823768,-666.185348,-10495.508323
844.129542,2590.720797,1406.391290,-10801.946522
844.129862,3330.926739,3701.029710,-10572.117872
844.130183,2442.679609,4145.153275,-11261.603821
844.130503,0.000000,1850.514855,-11184.994271
844.130823,-4441.235652,-2442.679609,-10112.460574
844.131143,-7624.121203,-6661.853478,-9959.241474
844.131463,-7698.141797,-9474.636058,-9116.536426
844.131783,-6365.771101,-9992.780217,-8350.440928
844.132103,-4663.297435,-7920.203579,-8656.879127
844.132424,-3849.070898,-5699.585753,-9193.145976
844.132744,-1332.370696,-2368.659014,-9806.022374
844.133064,2960.823768,518.144159,-9806.022374
844.133384,6365.771101,2442.679609,-10725.336972
844.133704,6217.729913,2368.659014,-11184.994271
844.134024,2442.679609,962.267725,-10801.946522
844.134344,-592.164754,-1480.411884,-10495.508323
844.134665,-2812.782580,-2516.700203,-9576.193725
844.134985,-4441.235652,-3923.091493,-10035.851024
844.135305,-7328.038826,-5477.523971,-9959.241474
844.135625,-9400.615463,-6587.832884,-9346.365076
844.135945,-6883.915261,-7105.977043,-8656.879127
844.136265,-2368.659014,-5477.523971,-9806.022374
844.136585,888.247130,-3478.967927,-9882.631924
844.136906,888.247130,-1406.391290,-10878.556072
844.137226,0.000000,370.102971,-10342.289223
844.137546,1628.453072,1702.473667,-10112.460574
844.137866,3182.885551,2960.823768,-11108.384721
844.138186,3701.029710,2812.782580,-10725.336972
844.138506,1776.494261,1406.391290,-10878.556072
844.138826,-666.185348,-2368.659014,-10342.289223
844.139147,-3034.844362,-5033.400406,-10112.460574
844.139467,-4737.318029,-5033.400406,-10035.851024
844.139787,-7179.997637,-4293.194464,-9576.193725
844.140107,-7105.977043,-4071.132681,-9346.365076
844.140427,-4959.379811,-3182.885551,-9193.145976
844.140747,-518.144159,-3627.009116,-9422.974625
844.141067,3404.947333,444.123565,-10035.851024
844.141388,5107.421000,1850.514855,-10495.508323
844.141708,5181.441594,2442.679609,-11261.603821
844.142028,4589.276840,3552.988522,-10418.898773
844.142348,1480.411884,2886.803174,-10035.851024
844.142668,1850.514855,370.102971,-10035.851024
844.142988,1628.453072,-2146.597232,-9729.412825
844.143308,-1406.391290,-1850.514855,-10495.508323
844.143629,-4515.256246,-2590.720797,-9346.365076
844.143949,-6217.729913,-2146.597232,-9576.193725
844.144269,-3775.050304,-3108.864956,-9806.022374
844.144589,222.061783,-3997.112087,-8580.269578
844.144909,1480.411884,-2072.576638,-9269.755526
844.145229,1998.556043,-518.144159,-9652.803275
844.145549,2516.700203,1406.391290,-10265.679673
844.145870,3404.947333,3108.864956,-9806.022374
844.146190,4145.153275,4293.194464,-10112.460574
844.146510,3627.009116,4885.359217,-10878.556072
844.146830,1258.350101,3330.926739,-11108.384721
844.147150,-592.164754,-222.061783,-10112.460574
844.147470,-1776.494261,-2146.597232,-10189.070123
844.147790,-2664.741391,-2812.782580,-10189.070123
844.148111,-4219.173869,-3182.885551,-10112.460574
844.148431,-3552.988522,-3701.029710,-9652.803275
844.148751,-666.185348,-1332.370696,-9193.145976
844.149071,1628.453072,2812.782580,-10265.679673
844.149391,3404.947333,5551.544565,-11338.213370
844.149711,2886.803174,4589.276840,-10725.336972
844.150031,3330.926739,2960.823768,-10801.946522
844.150351,3997.112087,1406.391290,-11108.384721
844.150671,2738.761985,666.185348,-10265.679673
844.150991,3108.864956,296.082377,-10955.165621
844.151310,-370.102971,0.000000,-10572.117872
844.151630,-4589.276840,148.041188,-10112.460574
844.151950,-5625.565159,-1184.329507,-9806.022374
844.152270,-3701.029710,-1554.432478,-9729.412825
844.152590,-666.185348,-2368.659014,-9499.584175
844.152910,2294.638420,-2664.741391,-9806.022374
844.153230,4737.318029,296.082377,-10342.289223
844.153550,4515.256246,2516.700203,-10342.289223
844.153870,3256.906145,3478.967927,-10035.851024
844.154190,2738.761985,3404.947333,-9576.193725
844.154510,3256.906145,1628.453072,-9806.022374
844.154830,1702.473667,370.102971,-10112.460574
844.155149,0.000000,-1702.473667,-10112.460574
844.155469,-1406.391290,-3108.864956,-8886.707777
844.155789,-2368.659014,-2812.782580,-9499.584175
844.156109,-2294.638420,-2590.720797,-9652.803275
844.156429,-2812.782580,-1480.411884,-9193.145976
844.156749,-2664.741391,-1628.453072,-9806.022374
844.157069,74.020594,-962.267725,-10035.851024
844.157389,2664.741391,-814.226536,-10265.679673
844.157709,4885.359217,0.000000,-10418.898773
844.158029,4367.215058,2072.576638,-10878.556072
844.158349,2072.576638,2442.679609,-11108.384721
844.158669,1110.308913,3108.864956,-11031.775171
844.158988,222.061783,222.061783,-10342.289223
844.159308,0.000000,-1036.288319,-10725.336972
844.159628,-2664.741391,-2812.782580,-10418.898773
844.159948,-3034.844362,-2368.659014,-10572.117872
844.160268,-2368.659014,-1480.411884,-10035.851024
844.160588,-3034.844362,-1480.411884,-10189.070123
844.160908,-1776.494261,592.164754,-10342.289223
844.161228,74.020594,74.020594,-10342.289223
844.161548,3034.844362,0.000000,-9806.022374
844.161868,3849.070898,-518.144159,-10112.460574
844.162188,3182.885551,-1036.288319,-10495.508323
844.162508,3108.864956,1184.329507,-10648.727422
844.162827,1554.432478,3478.967927,-10801.946522
844.163147,-1184.329507,2812.782580,-10112.460574
844.163467,-2294.638420,-444.123565,-9806.022374
844.163787,-1924.535449,-3182.885551,-9269.755526
844.164107,-518.144159,-4811.338623,-9806.022374
844.164427,-1036.288319,-4885.359217,-10572.117872
844.164747,0.000000,-3923.091493,-9346.365076
844.165067,-740.205942,-148.041188,-9576.193725
844.165387,518.144159,3552.988522,-9806.022374
844.165707,2072.576638,3404.947333,-9806.022374
844.166027,3849.070898,2812.782580,-10572.117872
844.166347,3849.070898,814.226536,-9882.631924
844.166666,3330.926739,148.041188,-9882.631924
844.166986,4145.153275,0.000000,-9882.631924
844.167306,2516.700203,222.061783,-10189.070123
844.167626,-518.144159,666.185348,-9806.022374
844.167946,-2516.700203,740.205942,-9806.022374
844.168266,-1776.494261,518.144159,-10189.070123
844.168586,0.000000,-2220.617826,-9576.193725
844.168906,814.226536,-3404.947333,-9729.412825
844.169226,2294.638420,-1850.514855,-9499.584175
844.169546,2442.679609,370.102971,-10572.117872
844.169866,2664.741391,3775.050304,-10725.336972
844.170186,2220.617826,4515.256246,-11108.384721
844.170505,2442.679609,4071.132681,-11261.603821
844.170825,1480.411884,2442.679609,-11184.994271
844.171145,370.102971,814.226536,-10801.946522
844.171465,-1480.411884,-148.041188,-10342.289223
844.171785,-1702.473667,-962.267725,-10572.117872
844.172105,-1924.535449,-592.164754,-10342.289223
844.172425,-2590.720797,-1406.391290,-10035.851024
844.172745,-3775.050304,-2590.720797,-9959.241474
844.173065,-3552.988522,-1702.473667,-9346.365076
844.173385,-370.102971,370.102971,-10035.851024
844.173705,2294.638420,2812.782580,-9959.241474
844.174025,3478.967927,3108.864956,-10265.679673
844.174344,1110.308913,3034.844362,-11108.384721
844.174664,-2442.679609,1850.514855,-9806.022374
844.174984,-444.123565,-740.205942,-9193.145976
844.175304,666.185348,-1554.432478,-9729.412825
844.175624,518.144159,-2294.638420,-9422.974625
844.175944,-592.164754,-1924.535449,-10189.070123
844.176264,-2442.679609,-1332.370696,-9652.803275
844.176584,-3034.844362,-370.102971,-9039.926876
844.176904,-2738.761985,148.041188,-9652.803275
844.177224,-148.041188,-740.205942,-9039.926876
844.177544,1702.473667,740.205942,-9422.974625
844.177864,2960.823768,222.061783,-10112.460574
844.178183,4071.132681,0.000000,-10265.679673
844.178503,2812.782580,740.205942,-10342.289223
844.178823,592.164754,1480.411884,-10189.070123
844.179143,-2590.720797,2738.761985,-10265.679673
844.179463,-1110.308913,1332.370696,-10801.946522
844.179783,-1036.288319,-1628.453072,-10955.165621
844.180103,-1110.308913,-2664.741391,-10495.508323
844.180423,-1480.411884,-1628.453072,-10495.508323
844.180743,0.000000,-1258.350101,-11184.994271
844.181063,1184.329507,0.000000,-10572.117872
844.181383,0.000000,1184.329507,-10495.508323
844.181703,2812.782580,1924.535449,-10418.898773
844.182022,3108.864956,1924.535449,-10878.556072
844.182342,3849.070898,444.123565,-10955.165621
844.182662,4515.256246,0.000000,-10495.508323
844.182982,3108.864956,1628.453072,-10955.165621
844.183302,1628.453072,2146.597232,-10495.508323
844.183622,-1406.391290,0.000000,-10035.851024
844.183942,-1776.494261,-1036.288319,-9346.365076
844.184262,-1702.473667,-592.164754,-9576.193725
844.184582,-888.247130,-1332.370696,-9806.022374
844.184902,1258.350101,-1110.308913,-9039.926876
844.185222,962.267725,-518.144159,-9576.193725
844.185542,1628.453072,74.020594,-9652.803275
844.185861,1332.370696,518.144159,-9499.584175
844.186181,1628.453072,666.185348,-9576.193725
844.186501,1702.473667,148.041188,-9116.536426
844.186821,2442.679609,1258.350101,-9806.022374
844.187141,2960.823768,1036.288319,-8503.660028
844.187461,2812.782580,666.185348,-10112.460574
844.187781,592.164754,592.164754,-9652.803275
844.188101,-2146.597232,0.000000,-9882.631924
844.188421,-2664.741391,0.000000,-9193.145976
844.188741,-1110.308913,-222.061783,-9576.193725
844.189061,148.041188,-1258.350101,-9806.022374
844.189381,1258.350101,-1332.370696,-9882.631924
844.189700,2220.617826,-370.102971,-10418.898773
844.190020,2072.576638,1776.494261,-10495.508323
844.190340,1554.432478,1850.514855,-10265.679673
844.190660,518.144159,3404.947333,-10955.165621
844.190980,592.164754,4071.132681,-10878.556072
844.191300,1258.350101,2072.576638,-11108.384721
844.191620,2516.700203,74.020594,-10418.898773
844.191940,2368.659014,-1850.514855,-10342.289223
844.192260,592.164754,-370.102971,-10648.727422
844.192580,-1628.453072,1776.494261,-10342.289223
844.192900,-962.267725,3627.009116,-9882.631924
844.193220,1480.411884,2590.720797,-10495.508323
844.193539,1628.453072,1036.288319,-9959.241474
844.193859,444.123565,-296.082377,-10189.070123
844.194179,1110.308913,-1998.556043,-9039.926876
844.194499,1702.473667,-444.123565,-10112.460574
844.194819,1850.514855,1554.432478,-9499.584175
844.195139,148.041188,2146.597232,-9576.193725
844.195459,444.123565,1184.329507,-9652.803275
844.195779,1258.350101,1258.350101,-9652.803275
844.196099,444.123565,-1184.329507,-9576.193725
844.196419,222.061783,-1850.514855,-9269.755526
844.196739,-888.247130,-1776.494261,-9422.974625
844.197059,-1110.308913,-518.144159,-9499.584175
844.197378,-518.144159,148.041188,-9422.974625
844.197698,888.247130,444.123565,-10035.851024
844.198018,2516.700203,370.102971,-10035.851024
844.198338,2072.576638,444.123565,-10648.727422
844.198658,1924.535449,222.061783,-10112.460574
844.198978,592.164754,1776.494261,-10112.460574
844.199298,-888.247130,1924.535449,-10801.946522
844.199618,-2294.638420,1332.370696,-10342.289223
844.199938,-2368.659014,148.041188,-9806.022374
844.200258,-296.082377,-2146.597232,-10112.460574
844.200578,814.226536,-2664.741391,-10495.508323
844.200898,592.164754,-1332.370696,-10495.508323
844.201217,222.061783,518.144159,-10878.556072
844.201537,-592.164754,2738.761985,-10495.508323
844.201857,-1332.370696,1850.514855,-10801.946522
844.202177,-740.205942,666.185348,-10189.070123
844.202497,-370.102971,592.164754,-10342.289223
844.202817,370.102971,740.205942,-10648.727422
844.203137,2072.576638,-888.247130,-10265.679673
844.203457,2886.803174,-1110.308913,-10648.727422
844.203777,666.185348,-592.164754,-10035.851024
844.204097,-2368.659014,-148.041188,-9959.241474
844.204417,-3108.864956,-888.247130,-9499.584175
844.204737,-592.164754,-296.082377,-9652.803275
844.205056,74.020594,-148.041188,-9729.412825
844.205376,592.164754,-1036.288319,-9806.022374
844.205696,1480.411884,-1924.535449,-9499.584175
844.206016,2368.659014,-1480.411884,-9959.241474
844.206336,1702.473667,-148.041188,-9576.193725
844.206656,1776.494261,962.267725,-9806.022374
844.206976,1480.411884,2664.741391,-10035.851024
844.207296,1480.411884,2072.576638,-10418.898773
844.207616,-222.061783,222.061783,-9959.241474
844.207936,74.020594,-1184.329507,-9882.631924
844.208256,-1258.350101,-1332.370696,-9576.193725
844.208576,-888.247130,-740.205942,-8733.488677
844.208895,1110.308913,592.164754,-10265.679673
844.209215,1480.411884,148.041188,-10112.460574
844.209535,2368.659014,-666.185348,-10265.679673
844.209855,1924.535449,-1036.288319,-9882.631924
844.210175,1258.350101,-592.164754,-9422.974625
844.210495,3627.009116,1998.556043,-10801.946522
844.210815,1332.370696,2886.803174,-10725.336972
844.211135,962.267725,2368.659014,-10648.727422
844.211455,1850.514855,444.123565,-9959.241474
844.211775,2294.638420,222.061783,-10495.508323
844.212095,1258.350101,1480.411884,-10648.727422
844.212415,1036.288319,1702.473667,-10725.336972
844.212734,370.102971,1702.473667,-9959.241474
844.213054,-2220.617826,1332.370696,-10189.070123
844.213374,-2664.741391,962.267725,-10189.070123
844.213694,-592.164754,592.164754,-9959.241474
844.214014,1554.432478,814.226536,-10725.336972
844.214334,1554.432478,1924.535449,-10572.117872
844.214654,1332.370696,2590.720797,-10035.851024
844.214974,1332.370696,3330.926739,-10572.117872
844.215294,-148.041188,2072.576638,-10189.070123
844.215614,-888.247130,2738.761985,-9882.631924
844.215934,-666.185348,1554.432478,-9652.803275
844.216254,-888.247130,-444.123565,-9729.412825
844.216573,-592.164754,-2146.597232,-9652.803275
844.216893,370.102971,-3034.844362,-9269.755526
844.217213,1628.453072,-2516.700203,-9729.412825
844.217533,740.205942,-1998.556043,-9576.193725
844.217853,0.000000,-148.041188,-9499.584175
844.218173,-518.144159,666.185348,-9652.803275
844.218493,-296.082377,888.247130,-9269.755526
844.218813,814.226536,1110.308913,-10342.289223
844.219133,1480.411884,-1036.288319,-9499.584175
844.219453,3330.926739,0.000000,-9806.022374
844.219773,2664.741391,-222.061783,-10035.851024
844.220093,666.185348,962.267725,-9959.241474
844.220412,-518.144159,1258.350101,-9269.755526
844.220732,-740.205942,444.123565,-10418.898773
844.221052,0.000000,-814.226536,-9806.022374
844.221372,592.164754,-740.205942,-11338.213370
844.221692,592.164754,-1406.391290,-10189.070123
844.222012,1036.288319,962.267725,-10265.679673
844.222332,1036.288319,2072.576638,-10189.070123
844.222652,1110.308913,2516.700203,-11261.603821
844.222972,1184.329507,1998.556043,-11108.384721
844.223292,888.247130,962.267725,-10572.117872
844.223612,1406.391290,1776.494261,-10725.336972
844.223932,444.123565,1924.535449,-10648.727422
844.224251,1036.288319,962.267725,-9959.241474
844.224571,-1628.453072,-592.164754,-9806.022374
844.224891,-888.247130,-1406.391290,-9346.365076
844.225211,-148.041188,-2442.679609,-9806.022374
844.225531,518.144159,-1850.514855,-10189.070123
844.225851,814.226536,-1406.391290,-9652.803275
844.226171,814.226536,-740.205942,-10112.460574
844.226491,1480.411884,1924.535449,-10265.679673
844.226811,0.000000,1702.473667,-10035.851024
844.227131,518.144159,1776.494261,-10495.508323
844.227451,-148.041188,1628.453072,-9652.803275
844.227771,222.061783,1406.391290,-10112.460574
844.228090,592.164754,962.267725,-10265.679673
844.228410,1554.432478,962.267725,-9269.755526
844.228730,0.000000,-1554.432478,-10035.851024
844.229050,-2368.659014,-2960.823768,-9729.412825
844.229370,-2072.576638,-1850.514855,-9269.755526
844.229690,-1554.432478,74.020594,-9576.193725
844.230010,0.000000,1480.411884,-9039.926876
844.230330,1628.453072,1702.473667,-10112.460574
844.230650,2146.597232,2368.659014,-10265.679673
844.230970,1332.370696,2220.617826,-10572.117872
844.231290,1406.391290,1776.494261,-10572.117872
844.231610,74.020594,-444.123565,-9806.022374
844.231929,370.102971,-666.185348,-9806.022374
844.232249,1406.391290,148.041188,-9806.022374
844.232569,0.000000,-592.164754,-10418.898773
844.232889,740.205942,-148.041188,-9806.022374
844.233209,1258.350101,0.000000,-9652.803275
844.233529,814.226536,1110.308913,-10265.679673
844.233849,666.185348,3108.864956,-10189.070123
844.234169,1776.494261,1110.308913,-10189.070123
844.234489,2516.700203,740.205942,-10035.851024
844.234809,962.267725,222.061783,-10265.679673
844.235129,1776.494261,-222.061783,-10418.898773
844.235449,2442.679609,296.082377,-9806.022374
844.235768,814.226536,1628.453072,-10265.679673
844.236088,-740.205942,2072.576638,-10265.679673
844.236408,-1332.370696,444.123565,-9959.241474
844.236728,0.000000,-1110.308913,-10112.460574
844.237048,666.185348,-222.061783,-9039.926876
844.237368,888.247130,1258.350101,-10189.070123
844.237688,1184.329507,962.267725,-10418.898773
844.238008,1110.308913,1110.308913,-10265.679673
844.238328,-740.205942,-444.123565,-9499.584175
844.238648,-222.061783,-888.247130,-9499.584175
844.238968,814.226536,222.061783,-9959.241474
844.239288,1036.288319,-370.102971,-10112.460574
844.239607,1110.308913,1110.308913,-10572.117872
844.239927,-444.123565,962.267725,-9806.022374
844.240247,-740.205942,962.267725,-10189.070123
844.240567,-1110.308913,-222.061783,-9729.412825
844.240887,-888.247130,-666.185348,-10112.460574
844.241207,0.000000,-1628.453072,-11414.822920
844.241527,74.020594,-1776.494261,-9959.241474
844.241847,74.020594,0.000000,-9806.022374
844.242167,518.144159,3552.988522,-10572.117872
844.242487,1332.370696,4293.194464,-10801.946522
844.242807,1998.556043,4071.132681,-11338.213370
844.243127,1036.288319,2294.638420,-10265.679673
844.243446,1258.350101,-1258.350101,-9959.241474
844.243766,1480.411884,-3552.988522,-9729.412825
844.244086,1258.350101,-2664.741391,-10112.460574
844.244406,962.267725,-1184.329507,-10189.070123
844.244726,1110.308913,1850.514855,-10342.289223
844.245046,222.061783,2664.741391,-10495.508323
844.245366,-444.123565,2220.617826,-10112.460574
844.245686,-1554.432478,0.000000,-9882.631924
844.246006,-888.247130,-2516.700203,-10035.851024
844.246326,0.000000,-3034.844362,-9729.412825
844.246646,1036.288319,-1924.535449,-10189.070123
844.246966,1184.329507,222.061783,-10112.460574
844.247285,888.247130,666.185348,-10572.117872
844.247605,0.000000,666.185348,-9959.241474
844.247925,444.123565,1036.288319,-10342.289223
844.248245,222.061783,1554.432478,-9882.631924
844.248539,0.000000,814.226536,-10495.508323
844.248859,1184.329507,-370.102971,-10495.508323
844.249179,370.102971,-1702.473667,-9806.022374
844.249499,-1924.535449,-1776.494261,-9346.365076
844.249819,-1776.494261,-1406.391290,-9499.584175
844.250139,0.000000,-222.061783,-9806.022374
844.250459,740.205942,1036.288319,-9882.631924
844.250779,0.000000,1406.391290,-10112.460574
844.251099,666.185348,888.247130,-9729.412825
844.251420,1776.494261,962.267725,-10725.336972
844.251740,444.123565,1258.350101,-10572.117872
844.252060,-296.082377,1480.411884,-9806.022374
844.252380,888.247130,370.102971,-10035.851024
844.252700,740.205942,962.267725,-9346.365076
844.253020,1258.350101,-370.102971,-10189.070123
844.253340,0.000000,-592.164754,-9882.631924
844.253660,0.000000,148.041188,-10189.070123
844.253980,-814.226536,1258.350101,-10342.289223
844.254301,-814.226536,1480.411884,-10342.289223
844.254621,296.082377,1406.391290,-10112.460574
844.254941,1628.453072,1036.288319,-10495.508323
844.255261,2738.761985,-444.123565,-10572.117872
844.255581,1850.514855,-444.123565,-10342.289223
844.255901,2442.679609,518.144159,-10878.556072
844.256221,1924.535449,1998.556043,-10342.289223
844.256541,1776.494261,3775.050304,-10801.946522
844.256861,740.205942,2146.597232,-10112.460574
844.257182,1184.329507,-518.144159,-10418.898773
844.257502,1406.391290,-2220.617826,-9652.803275
844.257822,1332.370696,-1036.288319,-9806.022374
844.258142,592.164754,1406.391290,-10189.070123
844.258462,0.000000,3478.967927,-10189.070123
844.258782,1036.288319,3108.864956,-10342.289223
844.259102,1332.370696,1184.329507,-10035.851024
844.259422,1480.411884,-296.082377,-9882.631924
844.259742,2072.576638,-296.082377,-9039.926876
844.260062,1258.350101,518.144159,-10418.898773
844.260383,1480.411884,1184.329507,-10035.851024
844.260703,148.041188,1702.473667,-10342.289223
844.261023,-1628.453072,0.000000,-10035.851024
844.261343,-1554.432478,-1258.350101,-9116.536426
844.261663,296.082377,-296.082377,-10418.898773
844.261983,222.061783,740.205942,-10112.460574
844.262303,888.247130,1850.514855,-10342.289223
844.262623,1184.329507,2294.638420,-10189.070123
844.262943,-296.082377,0.000000,-10418.898773
844.263264,-1924.535449,-1258.350101,-9729.412825
844.263584,-1110.308913,-2220.617826,-9959.241474
844.263904,592.164754,-2220.617826,-9806.022374
844.264224,1480.411884,-1110.308913,-9882.631924
844.264544,888.247130,-148.041188,-10418.898773
844.264864,-444.123565,0.000000,-10035.851024
844.265184,-370.102971,592.164754,-10572.117872
844.265504,-1406.391290,1406.391290,-10035.851024
844.265824,-1406.391290,444.123565,-9729.412825
844.266145,0.000000,-740.205942,-10342.289223
844.266465,222.061783,-1628.453072,-9576.193725
844.266785,222.061783,-2738.761985,-9882.631924
844.267105,1184.329507,-2368.659014,-10572.117872
844.267425,1702.473667,-222.061783,-10035.851024
844.267745,1332.370696,1480.411884,-10572.117872
844.268065,-222.061783,2146.597232,-9882.631924
844.268385,0.000000,1554.432478,-10495.508323
844.268705,-666.185348,814.226536,-10418.898773
844.269026,-222.061783,-1554.432478,-10035.851024
844.269346,962.267725,-2590.720797,-9959.241474
844.269666,1850.514855,-1850.514855,-10189.070123
844.269986,74.020594,-518.144159,-10342.289223
844.270306,-962.267725,740.205942,-9806.022374
844.270626,518.144159,1628.453072,-10035.851024
844.270946,1110.308913,1406.391290,-10418.898773
844.271266,740.205942,296.082377,-11184.994271
844.271586,-222.061783,-888.247130,-10265.679673
844.271906,0.000000,-1776.494261,-10112.460574
844.272227,444.123565,-1036.288319,-10035.851024
844.272547,-666.185348,-592.164754,-10265.679673
844.272867,444.123565,-888.247130,-10189.070123
844.273187,2294.638420,-740.205942,-10189.070123
844.273507,1332.370696,-222.061783,-10418.898773
844.273827,-592.164754,888.247130,-10495.508323
844.274147,-1110.308913,1554.432478,-10342.289223
844.274467,-1702.473667,1702.473667,-10189.070123
844.274787,-1110.308913,1702.473667,-10265.679673
844.275108,592.164754,-666.185348,-9882.631924
844.275428,1110.308913,-1924.535449,-9806.022374
844.275748,1258.350101,-1554.432478,-10035.851024
844.276068,1628.453072,-666.185348,-9959.241474
844.276388,1628.453072,814.226536,-10035.851024
844.276708,0.000000,2368.659014,-9959.241474
844.277028,0.000000,3552.988522,-10572.117872
844.277348,518.144159,2442.679609,-9959.241474
844.277668,1702.473667,370.102971,-10035.851024
844.277989,1628.453072,0.000000,-10112.460574
844.278309,1406.391290,148.041188,-10495.508323
844.278629,962.267725,1628.453072,-10035.851024
844.278949,1776.494261,2590.720797,-10495.508323
844.279269,1110.308913,3478.967927,-10648.727422
844.279589,0.000000,3034.844362,-10342.289223
844.279909,296.082377,1702.473667,-10418.898773
844.280229,1258.350101,-592.164754,-10112.460574
844.280549,1924.535449,-2294.638420,-10189.070123
844.280869,2368.659014,-2072.576638,-10035.851024
844.281190,2442.679609,-222.061783,-10495.508323
844.281510,518.144159,1480.411884,-10035.851024
844.281830,-592.164754,3108.864956,-9959.241474
844.282150,0.000000,2516.700203,-10418.898773
844.282470,592.164754,962.267725,-10418.898773
844.282790,296.082377,-1776.494261,-9576.193725
844.283110,1628.453072,-2960.823768,-9576.193725
844.283430,444.123565,-1776.494261,-9729.412825
844.283750,888.247130,370.102971,-10418.898773
844.284071,1628.453072,1628.453072,-8886.707777
844.284391,1332.370696,1702.473667,-10189.070123
844.284711,222.061783,1554.432478,-9882.631924
844.285031,-444.123565,148.041188,-9882.631924
844.285351,74.020594,-592.164754,-9499.584175
844.285671,296.082377,-666.185348,-10495.508323
844.285991,-666.185348,0.000000,-10265.679673
844.286311,-1258.350101,222.061783,-10035.851024
844.286631,-592.164754,222.061783,-10342.289223
844.286952,-444.123565,888.247130,-10648.727422
844.287272,74.020594,740.205942,-10955.165621
844.287592,592.164754,1480.411884,-10495.508323
844.287912,888.247130,1702.473667,-10265.679673
844.288232,814.226536,2442.679609,-9882.631924
844.288552,0.000000,1776.494261,-10725.336972
844.288872,0.000000,74.020594,-10495.508323
844.289192,962.267725,-1036.288319,-10418.898773
844.289512,740.205942,-1480.411884,-10342.289223
844.289833,296.082377,-1184.329507,-10112.460574
844.290153,740.205942,-592.164754,-10418.898773
844.290473,370.102971,370.102971,-10342.289223
844.290793,-1036.288319,666.185348,-9959.241474
844.291113,-518.144159,296.082377,-10265.679673
844.291433,0.000000,-888.247130,-9959.241474
844.291753,370.102971,-2368.659014,-9806.022374
844.292073,1036.288319,-2072.576638,-9729.412825
844.292393,740.205942,-1850.514855,-9652.803275
844.292713,592.164754,-1184.329507,-9499.584175
844.293034,296.082377,-444.123565,-9499.584175
844.293354,296.082377,0.000000,-9422.974625
844.293674,1776.494261,-592.164754,-9882.631924
844.293994,2368.659014,-296.082377,-9499.584175
844.294314,1406.391290,-1924.535449,-9652.803275
844.294634,1036.288319,-1036.288319,-9729.412825
844.294954,-444.123565,148.041188,-9959.241474
844.295274,-1184.329507,888.247130,-9576.193725
844.295594,-1184.329507,888.247130,-9806.022374
844.295915,740.205942,-666.185348,-9959.241474
844.296235,296.082377,-888.247130,-9806.022374
844.296555,-962.267725,-888.247130,-10418.898773
844.296875,-518.144159,814.226536,-10342.289223
844.297195,814.226536,1924.535449,-10725.336972
844.297515,444.123565,2294.638420,-11108.384721
844.297835,370.102971,1776.494261,-10189.070123
844.298155,1258.350101,1480.411884,-10801.946522
844.298475,1406.391290,666.185348,-10648.727422
844.298796,1110.308913,-370.102971,-10955.165621
844.299116,1776.494261,-740.205942,-10648.727422
844.299436,962.267725,0.000000,-10572.117872
844.299756,-814.226536,592.164754,-10725.336972
844.300076,-2294.638420,1554.432478,-10265.679673
844.300396,-1036.288319,1332.370696,-10189.070123
844.300716,1998.556043,1110.308913,-10265.679673
844.301036,3478.967927,1184.329507,-10418.898773
844.301356,3997.112087,296.082377,-10112.460574
844.301676,2368.659014,-148.041188,-9959.241474
844.301997,666.185348,-444.123565,-9806.022374
844.302317,0.000000,148.041188,-9652.803275
844.302637,592.164754,1332.370696,-9806.022374
844.302957,370.102971,1628.453072,-10035.851024
844.303277,-666.185348,1110.308913,-9806.022374
844.303597,-370.102971,0.000000,-9806.022374
844.303917,148.041188,222.061783,-10572.117872
844.304237,0.000000,444.123565,-9959.241474
844.304557,-148.041188,592.164754,-9422.974625
844.304878,1554.432478,-222.061783,-9422.974625
844.305198,2738.761985,-962.267725,-9576.193725
844.305518,1850.514855,-296.082377,-10189.070123
844.305838,740.205942,518.144159,-9806.022374
844.306158,592.164754,1702.473667,-9882.631924
844.306478,0.000000,2146.597232,-9959.241474
844.306798,0.000000,2664.741391,-10189.070123
844.307118,0.000000,1036.288319,-10342.289223
844.307438,296.082377,-888.247130,-10189.070123
844.307759,592.164754,-1776.494261,-10112.460574
844.308079,370.102971,-1998.556043,-10035.851024
844.308399,740.205942,222.061783,-11491.432470
844.308719,888.247130,1702.473667,-10495.508323
844.309039,296.082377,2220.617826,-10648.727422
844.309359,222.061783,2072.576638,-10495.508323
844.309679,814.226536,1480.411884,-9499.584175
844.309999,740.205942,-444.123565,-10495.508323
844.310319,740.205942,-666.185348,-10112.460574
844.310640,592.164754,-666.185348,-10265.679673
844.310960,-444.123565,0.000000,-10189.070123
844.311280,-962.267725,-444.123565,-9806.022374
844.311600,-1480.411884,74.020594,-9882.631924
844.311920,222.061783,666.185348,-10112.460574
844.312240,518.144159,740.205942,-10265.679673
844.312560,1406.391290,222.061783,-9499.584175
844.312880,2072.576638,-518.144159,-9729.412825
844.313200,1554.432478,-962.267725,-10418.898773
844.313520,888.247130,-370.102971,-9806.022374
844.313841,518.144159,-222.061783,-9652.803275
844.314161,74.020594,592.164754,-10189.070123
844.314481,0.000000,-148.041188,-10189.070123
844.314801,0.000000,-444.123565,-9806.022374
844.315121,-74.020594,-814.226536,-10035.851024
844.315441,370.102971,-1554.432478,-9882.631924
844.315761,0.000000,-666.185348,-10189.070123
844.316081,-296.082377,-1702.473667,-9806.022374
844.316401,444.123565,-2516.700203,-9729.412825
844.316722,888.247130,-2368.659014,-10112.460574
844.317042,370.102971,-592.164754,-10495.508323
844.317362,222.061783,518.144159,-10572.117872
844.317682,814.226536,2368.659014,-10801.946522
844.318002,592.164754,2590.720797,-10801.946522
844.318322,370.102971,1036.288319,-10189.070123
844.318642,740.205942,-1184.329507,-10572.117872
844.318962,666.185348,-2664.741391,-10035.851024
844.319282,-148.041188,-1850.514855,-10648.727422
844.319603,-296.082377,370.102971,-9882.631924
844.319923,-1332.370696,2368.659014,-10189.070123
844.320243,-1480.411884,2368.659014,-10725.336972
844.320563,-814.226536,1184.329507,-10418.898773
844.320883,1110.308913,0.000000,-10495.508323
844.321203,1924.535449,-740.205942,-9959.241474
844.321523,1258.350101,-518.144159,-10265.679673
844.321843,296.082377,-592.164754,-10265.679673
844.322163,222.061783,518.144159,-9882.631924
844.322483,740.205942,2368.659014,-9806.022374
844.322804,222.061783,1628.453072,-9422.974625
844.323124,740.205942,518.144159,-9729.412825
844.323444,1406.391290,148.041188,-9652.803275
844.323764,2368.659014,-518.144159,-9729.412825
844.324084,1776.494261,74.020594,-9576.193725
844.324404,1554.432478,370.102971,-9652.803275
844.324724,0.000000,74.020594,-9269.755526
844.325044,-370.102971,1036.288319,-9499.584175
844.325364,814.226536,1406.391290,-9729.412825
844.325685,2220.617826,1554.432478,-10035.851024
844.326005,2442.679609,888.247130,-9806.022374
844.326325,1480.411884,1184.329507,-9806.022374
844.326645,1702.473667,740.205942,-10035.851024
844.326965,1406.391290,0.000000,-10035.851024
844.327285,-296.082377,-222.061783,-10265.679673
844.327605,-370.102971,148.041188,-10035.851024
844.327925,0.000000,592.164754,-10265.679673
844.328245,1554.432478,1850.514855,-11031.775171
844.328566,1406.391290,2368.659014,-10265.679673
844.328886,1776.494261,3478.967927,-10878.556072
844.329206,1332.370696,2590.720797,-10725.336972
844.329526,1184.329507,1332.370696,-10035.851024
844.329846,814.226536,-444.123565,-10189.070123
844.330166,1258.350101,-888.247130,-10265.679673
844.330486,666.185348,-888.247130,-10112.460574
844.330806,370.102971,296.082377,-10189.070123
844.331126,0.000000,2516.700203,-10189.070123
844.331447,-888.247130,2368.659014,-10342.289223
844.331767,-2072.576638,2072.576638,-10342.289223
844.332087,-888.247130,148.041188,-10189.070123
844.332407,1702.473667,-1258.350101,-10648.727422
844.332727,1776.494261,-1702.473667,-10418.898773
844.333047,0.000000,-222.061783,-10418.898773
844.333367,74.020594,814.226536,-9806.022374
844.333687,74.020594,2368.659014,-9806.022374
844.334007,-1406.391290,2220.617826,-10112.460574
844.334327,74.020594,296.082377,-9882.631924
844.334648,1110.308913,-1924.535449,-9882.631924
844.334968,888.247130,-2664.741391,-9652.803275
844.335288,592.164754,-2220.617826,-9729.412825
844.335608,-296.082377,-1332.370696,-10189.070123
844.335928,592.164754,-296.082377,-9652.803275
844.336248,-1258.350101,888.247130,-10035.851024
844.336568,-2072.576638,1702.473667,-10035.851024
844.336888,296.082377,2812.782580,-10112.460574
844.337208,1110.308913,2590.720797,-10572.117872
844.337529,1702.473667,814.226536,-10648.727422
844.337849,1554.432478,-1258.350101,-10112.460574
844.338169,222.061783,-2960.823768,-9959.241474
844.338489,-1258.350101,-4145.153275,-9729.412825
844.338809,-1480.411884,-3182.885551,-9269.755526
844.339129,-1036.288319,-1110.308913,-10189.070123
844.339449,444.123565,888.247130,-10035.851024
844.339769,962.267725,2220.617826,-10725.336972
844.340089,370.102971,1554.432478,-10648.727422
844.340410,1332.370696,0.000000,-10342.289223
844.340730,296.082377,-888.247130,-10265.679673
844.341050,-518.144159,-2368.659014,-9806.022374
844.341370,74.020594,-2516.700203,-10112.460574
844.341690,-518.144159,-1702.473667,-9959.241474
844.342010,0.000000,-1258.350101,-9806.022374
844.342330,444.123565,740.205942,-10112.460574
844.342650,-444.123565,2146.597232,-10648.727422
844.342970,-962.267725,3256.906145,-10801.946522
844.343290,-1110.308913,1480.411884,-10035.851024
844.343611,370.102971,-148.041188,-9882.631924
844.343931,962.267725,-2664.741391,-9882.631924
844.344251,1406.391290,-2516.700203,-9652.803275
844.344571,962.267725,-1258.350101,-10112.460574
844.344891,2220.617826,148.041188,-10112.460574
844.345211,2220.617826,2738.761985,-10265.679673
844.345531,1406.391290,2664.741391,-10418.898773
844.345851,444.123565,2368.659014,-9882.631924
844.346171,222.061783,888.247130,-10112.460574
844.346492,888.247130,-592.164754,-9806.022374
844.346812,2368.659014,-740.205942,-9806.022374
844.347132,1924.535449,-592.164754,-10342.289223
844.347452,2220.617826,222.061783,-9882.631924
844.347772,1036.288319,1554.432478,-10035.851024
844.348092,666.185348,1776.494261,-10112.460574
844.348412,1850.514855,1184.329507,-10265.679673
844.348732,1258.350101,962.267725,-10265.679673
844.349052,148.041188,518.144159,-10342.289223
844.349373,814.226536,-148.041188,-9806.022374
844.349693,1776.494261,888.247130,-9499.584175
844.350013,592.164754,518.144159,-10035.851024
844.350333,1702.473667,1036.288319,-10265.679673
844.350653,2146.597232,444.123565,-10495.508323
844.350973,1924.535449,888.247130,-9806.022374
844.351293,296.082377,2072.576638,-10342.289223
844.351613,-148.041188,2442.679609,-10035.851024
844.351933,222.061783,2664.741391,-9959.241474
844.352253,-296.082377,2294.638420,-10189.070123
844.352573,1406.391290,1258.350101,-9499.584175
844.352893,2516.700203,0.000000,-10265.679673
844.353213,1998.556043,-222.061783,-10035.851024
844.353533,592.164754,-296.082377,-10265.679673
844.353853,222.061783,740.205942,-10265.679673
844.354173,-814.226536,1850.514855,-9806.022374
844.354494,-1110.308913,3108.864956,-10418.898773
844.354814,-1480.411884,1924.535449,-10035.851024
844.355134,-888.247130,444.123565,-10878.556072
844.355454,-740.205942,-962.267725,-10342.289223
844.355774,-444.123565,-2738.761985,-9499.584175
844.356094,740.205942,-2146.597232,-9806.022374
844.356414,0.000000,-296.082377,-9959.241474
844.356734,-814.226536,1036.288319,-9882.631924
844.357054,-1184.329507,1776.494261,-9729.412825
844.357374,-1036.288319,740.205942,-9806.022374
844.357694,1036.288319,518.144159,-10035.851024
844.358014,1258.350101,0.000000,-9882.631924
844.358334,1924.535449,-296.082377,-10495.508323
844.358654,2368.659014,-296.082377,-10342.289223
844.358974,0.000000,0.000000,-9729.412825
844.359294,-2442.679609,-222.061783,-9729.412825
844.359614,-2220.617826,-370.102971,-9882.631924
844.359934,-370.102971,-666.185348,-10112.460574
844.360254,1480.411884,518.144159,-10572.117872
844.360574,1258.350101,1184.329507,-10801.946522
844.360894,2220.617826,1702.473667,-10265.679673
844.361214,296.082377,1924.535449,-10265.679673
844.361535,0.000000,148.041188,-9882.631924
844.361855,222.061783,-1184.329507,-9882.631924
844.362175,444.123565,-2072.576638,-9806.022374
844.362495,1776.494261,-1258.350101,-10035.851024
844.362815,666.185348,444.123565,-10265.679673
844.363135,370.102971,1702.473667,-10801.946522
844.363455,296.082377,1554.432478,-10648.727422
844.363775,-740.205942,1480.411884,-10189.070123
844.364095,-296.082377,-222.061783,-9882.631924
844.364415,1036.288319,-962.267725,-10035.851024
844.364735,1184.329507,-1850.514855,-10418.898773
844.365055,1406.391290,-1702.473667,-10342.289223
844.365375,2516.700203,-888.247130,-9882.631924
844.365695,1776.494261,962.267725,-10418.898773
844.366015,-222.061783,1998.556043,-10035.851024
844.366335,-666.185348,2442.679609,-9882.631924
844.366655,-592.164754,0.000000,-9806.022374
844.366975,2516.700203,222.061783,-9959.241474
844.367295,1924.535449,-1924.535449,-9806.022374
844.367615,444.123565,-2516.700203,-10035.851024
844.367935,148.041188,-962.267725,-9882.631924
844.368256,-1480.411884,1258.350101,-10418.898773
844.368576,-1628.453072,2368.659014,-9806.022374
844.368896,74.020594,3775.050304,-10265.679673
844.369216,1480.411884,2368.659014,-10265.679673
844.369536,2294.638420,666.185348,-9576.193725
844.369856,2220.617826,-1332.370696,-9882.631924
844.370176,592.164754,-666.185348,-9959.241474
844.370496,-666.185348,148.041188,-9959.241474
844.370816,-962.267725,1036.288319,-9729.412825
844.371136,666.185348,592.164754,-9499.584175
844.371456,1332.370696,740.205942,-10035.851024
844.371776,666.185348,666.185348,-10112.460574
844.372096,1184.329507,444.123565,-10495.508323
844.372416,2072.576638,2442.679609,-9959.241474
844.372736,592.164754,2220.617826,-10035.851024
844.373056,-592.164754,1554.432478,-9882.631924
844.373376,-740.205942,-444.123565,-9959.241474
844.373696,-296.082377,-1628.453072,-9806.022374
844.374016,222.061783,-1258.350101,-10112.460574
844.374336,1036.288319,222.061783,-10112.460574
844.374656,962.267725,1554.432478,-10418.898773
844.374976,0.000000,2368.659014,-10035.851024
844.375297,-1332.370696,2294.638420,-10265.679673
844.375617,370.102971,0.000000,-10112.460574
844.375937,2368.659014,-740.205942,-9959.241474
844.376257,2072.576638,-666.185348,-10265.679673
844.376577,1628.453072,0.000000,-9806.022374
844.376897,1554.432478,814.226536,-10189.070123
844.377217,1110.308913,2146.597232,-10342.289223
844.377537,-740.205942,1480.411884,-9729.412825
844.377857,-814.226536,740.205942,-10112.460574
844.378177,814.226536,0.000000,-9806.022374
844.378497,1850.514855,-1554.432478,-10189.070123
844.378817,2368.659014,-1628.453072,-9882.631924
844.379137,1036.288319,-1406.391290,-10189.070123
844.379457,-666.185348,0.000000,-9882.631924
844.379777,-1776.494261,814.226536,-9806.022374
844.380097,0.000000,1850.514855,-10418.898773
844.380417,1406.391290,2590.720797,-10342.289223
844.380737,1924.535449,1406.391290,-10955.165621
844.381057,1258.350101,592.164754,-10265.679673
844.381377,1332.370696,-1554.432478,-10495.508323
844.381697,-592.164754,-1258.350101,-10035.851024
844.382017,-2886.803174,370.102971,-10112.460574
844.382338,-1998.556043,1628.453072,-11721.261119
844.382658,-222.061783,1776.494261,-10572.117872
844.382978,740.205942,2738.761985,-10418.898773
844.383298,1258.350101,2294.638420,-10342.289223
844.383618,2220.617826,1406.391290,-10342.289223
844.383938,1924.535449,296.082377,-11031.775171
844.384258,148.041188,-1554.432478,-9269.755526
844.384578,-444.123565,-1924.535449,-8963.317327
844.384898,222.061783,-2516.700203,-9652.803275
844.385218,1036.288319,-3330.926739,-9116.536426
844.385538,-518.144159,-888.247130,-9806.022374
844.385858,222.061783,1332.370696,-9882.631924
844.386178,444.123565,2886.803174,-10572.117872
844.386498,-444.123565,2812.782580,-10418.898773
844.386818,-1110.308913,888.247130,-10112.460574
844.387138,-1110.308913,-962.267725,-9652.803275
844.387458,1332.370696,-3182.885551,-9652.803275
844.387778,1184.329507,-4293.194464,-9806.022374
844.388098,1850.514855,-2368.659014,-9959.241474
844.388418,814.226536,1036.288319,-10342.289223
844.388738,-888.247130,3775.050304,-10189.070123
844.389058,-2368.659014,4885.359217,-10418.898773
844.389379,-1702.473667,3404.947333,-10342.289223
844.389699,0.000000,1184.329507,-10112.460574
844.390019,666.185348,-1998.556043,-10342.289223
844.390339,1628.453072,-3256.906145,-9806.022374
844.390659,1776.494261,-2368.659014,-9959.241474
844.390979,296.082377,-296.082377,-9806.022374
844.391299,-1036.288319,1332.370696,-9806.022374
844.391619,0.000000,2294.638420,-9882.631924
844.391939,444.123565,2738.761985,-10035.851024
844.392259,1184.329507,1850.514855,-10495.508323
844.392579,740.205942,592.164754,-10112.460574
844.392899,1332.370696,-296.082377,-10189.070123
844.393219,444.123565,-666.185348,-10112.460574
844.393539,-518.144159,-222.061783,-9882.631924
844.393859,962.267725,222.061783,-9882.631924
844.394179,2072.576638,1036.288319,-10189.070123
844.394499,2368.659014,2072.576638,-10418.898773
844.394819,3034.844362,1628.453072,-10112.460574
844.395139,1850.514855,1036.288319,-10189.070123
844.395459,1110.308913,0.000000,-9882.631924
844.395779,0.000000,-592.164754,-9806.022374
844.396100,1480.411884,-1110.308913,-9576.193725
844.396420,2812.782580,-962.267725,-9806.022374
844.396740,2294.638420,222.061783,-10189.070123
844.397060,1184.329507,740.205942,-10265.679673
844.397380,222.061783,1258.350101,-10112.460574
844.397700,-296.082377,2368.659014,-10035.851024
844.398020,-296.082377,2738.761985,-11261.603821
844.398340,-592.164754,1036.288319,-10265.679673
844.398660,148.041188,-814.226536,-10189.070123
844.398980,1110.308913,-1184.329507,-10495.508323
844.399300,2146.597232,-1554.432478,-10112.460574
844.399620,2368.659014,-222.061783,-11338.213370
844.399940,2220.617826,2220.617826,-10418.898773
844.400260,1036.288319,3478.967927,-10418.898773
844.400580,370.102971,3404.947333,-10648.727422
844.400900,666.185348,1332.370696,-10342.289223
844.401220,-1406.391290,-370.102971,-10265.679673
844.401540,-740.205942,-1480.411884,-9882.631924
844.401860,0.000000,-1850.514855,-9882.631924
844.402180,222.061783,-666.185348,-10112.460574
844.402500,0.000000,74.020594,-9729.412825
844.402820,-1554.432478,296.082377,-9806.022374
844.403141,-1258.350101,222.061783,-9729.412825
844.403461,-666.185348,518.144159,-9959.241474
844.403781,-370.102971,518.144159,-9882.631924
844.404101,1110.308913,148.041188,-9806.022374
844.404421,962.267725,222.061783,-9882.631924
844.404741,-148.041188,-370.102971,-9882.631924
844.405061,-296.082377,-962.267725,-9806.022374
844.405381,-296.082377,-592.164754,-9806.022374
844.405701,888.247130,-888.247130,-10112.460574
844.406021,1258.350101,-370.102971,-10112.460574
844.406341,740.205942,222.061783,-10342.289223
844.406661,0.000000,370.102971,-10342.289223
844.406981,-1332.370696,962.267725,-10112.460574
844.407301,-2368.659014,740.205942,-10112.460574
844.407621,-1036.288319,-370.102971,-10035.851024
844.407941,444.123565,-1628.453072,-10342.289223
844.408261,1332.370696,-1480.411884,-10418.898773
844.408581,1480.411884,0.000000,-10418.898773
844.408901,888.247130,1776.494261,-10342.289223
844.409221,-518.144159,2960.823768,-10342.289223
844.409541,-1332.370696,3182.885551,-10112.460574
844.409861,-814.226536,1036.288319,-10112.460574
844.410182,518.144159,-1184.329507,-10035.851024
844.410502,1480.411884,-2886.803174,-10189.070123
844.410822,1776.494261,-1702.473667,-9882.631924
844.411142,962.267725,0.000000,-10342.289223
844.411462,-296.082377,2220.617826,-10265.679673
844.411782,-592.164754,2516.700203,-10418.898773
844.412102,0.000000,1924.535449,-10342.289223
844.412422,1924.535449,74.020594,-9729.412825
844.412742,2664.741391,-1036.288319,-10112.460574
844.413062,2886.803174,-1702.473667,-9959.241474
844.413382,2516.700203,-814.226536,-9882.631924
844.413702,888.247130,1258.350101,-10572.117872
844.414022,-888.247130,2368.659014,-10265.679673
844.414342,-1554.432478,2368.659014,-10112.460574
844.414662,-814.226536,1776.494261,-10418.898773
844.414982,444.123565,296.082377,-9959.241474
844.415302,1184.329507,0.000000,-9882.631924
844.415622,2368.659014,-296.082377,-10035.851024
844.415942,2368.659014,-444.123565,-9882.631924
844.416262,1258.350101,-222.061783,-9806.022374
844.416582,1110.308913,518.144159,-9499.584175
844.416902,1702.473667,74.020594,-9806.022374
844.417223,2146.597232,0.000000,-10112.460574
844.417543,1258.350101,0.000000,-9806.022374
844.417863,1332.370696,518.144159,-10035.851024
844.418183,1258.350101,74.020594,-10342.289223
844.418503,0.000000,-148.041188,-9806.022374
844.418823,-370.102971,0.000000,-9959.241474
844.419143,148.041188,74.020594,-9652.803275
844.419463,592.164754,148.041188,-9959.241474
844.419783,1480.411884,-296.082377,-10725.336972
844.420103,1998.556043,-222.061783,-10035.851024
844.420423,888.247130,888.247130,-10572.117872
844.420743,-666.185348,888.247130,-9882.631924
844.421063,-962.267725,518.144159,-10265.679673
844.421383,296.082377,518.144159,-10878.556072
844.421703,1184.329507,148.041188,-10495.508323
844.422023,0.000000,-370.102971,-11031.775171
844.422343,148.041188,74.020594,-9806.022374
844.422663,-1480.411884,222.061783,-9959.241474
844.422983,-1480.411884,2220.617826,-10189.070123
844.423303,-1924.535449,1924.535449,-10189.070123
844.423623,-888.247130,0.000000,-10342.289223
844.423944,592.164754,-2146.597232,-9806.022374
844.424264,2072.576638,-3034.844362,-10035.851024
844.424584,3108.864956,-1924.535449,-9959.241474
844.424904,2072.576638,962.267725,-10112.460574
844.425224,-148.041188,3256.906145,-10342.289223
844.425544,-740.205942,3404.947333,-10265.679673
844.425864,0.000000,1702.473667,-9806.022374
844.426184,0.000000,0.000000,-10342.289223
844.426504,74.020594,-2146.597232,-9959.241474
844.426824,666.185348,-3478.967927,-9806.022374
844.427144,1628.453072,-1998.556043,-9806.022374
844.427464,666.185348,-592.164754,-10035.851024
844.427784,-1110.308913,666.185348,-9959.241474
844.428104,-1406.391290,1406.391290,-10035.851024
844.428424,-962.267725,1924.535449,-10572.117872
844.428744,666.185348,2368.659014,-10572.117872
844.429064,1554.432478,2072.576638,-10418.898773
844.429384,1628.453072,1850.514855,-9806.022374
844.429704,1184.329507,1628.453072,-10342.289223
844.430024,1850.514855,2368.659014,-10648.727422
844.430344,2442.679609,1258.350101,-10035.851024
844.430664,2664.741391,222.061783,-9959.241474
844.430985,1406.391290,-2146.597232,-9499.584175
844.431305,888.247130,-2368.659014,-9269.755526
844.431625,1480.411884,-1628.453072,-9576.193725
844.431945,-592.164754,0.000000,-9959.241474
844.432265,-962.267725,1480.411884,-9806.022374
844.432585,-1332.370696,2442.679609,-9806.022374
844.432905,0.000000,1998.556043,-9882.631924
844.433225,814.226536,444.123565,-9729.412825
844.433545,-370.102971,-1184.329507,-9806.022374
844.433865,-370.102971,-1998.556043,-9882.631924
844.434185,-222.061783,-1406.391290,-9422.974625
844.434505,148.041188,-148.041188,-9882.631924
844.434825,1110.308913,740.205942,-10342.289223
844.435145,1480.411884,592.164754,-10342.289223
844.435465,1406.391290,962.267725,-10418.898773
844.435785,518.144159,962.267725,-10342.289223
844.436105,222.061783,1924.535449,-10495.508323
844.436425,-1184.329507,1406.391290,-10495.508323
844.436745,-1036.288319,0.000000,-10035.851024
844.437065,-518.144159,-888.247130,-10265.679673
844.437385,666.185348,-814.226536,-10189.070123
844.437705,222.061783,518.144159,-10265.679673
844.438026,-296.082377,2220.617826,-10801.946522
844.438346,1184.329507,3478.967927,-10495.508323
844.438666,1702.473667,3478.967927,-10495.508323
844.438986,74.020594,1332.370696,-10035.851024
844.439306,-1628.453072,-1554.432478,-8350.440928
844.439626,-1110.308913,-3108.864956,-9882.631924
844.439946,1406.391290,-2146.597232,-9652.803275
844.440266,2812.782580,-962.267725,-9806.022374
844.440586,4663.297435,962.267725,-10035.851024
844.440906,2960.823768,2294.638420,-9806.022374
844.441226,740.205942,2072.576638,-9882.631924
844.441546,222.061783,1332.370696,-9806.022374
844.441866,370.102971,814.226536,-10189.070123
844.442186,962.267725,370.102971,-10955.165621
844.442506,666.185348,-1036.288319,-9806.022374
844.442826,1924.535449,-2072.576638,-9729.412825
844.443146,740.205942,-1702.473667,-9806.022374
844.443466,-962.267725,-1110.308913,-9269.755526
844.443786,-1776.494261,740.205942,-9806.022374
844.444106,-370.102971,1332.370696,-10112.460574
844.444426,962.267725,1850.514855,-10342.289223
844.444746,962.267725,296.082377,-10572.117872
844.445067,1480.411884,-740.205942,-9422.974625
844.445387,1480.411884,-518.144159,-10265.679673
844.445707,518.144159,0.000000,-10418.898773
844.446027,444.123565,666.185348,-10342.289223
844.446347,814.226536,814.226536,-10572.117872
844.446667,666.185348,370.102971,-10572.117872
844.446987,148.041188,-370.102971,-10189.070123
844.447307,-814.226536,-296.082377,-10495.508323
844.447627,0.000000,444.123565,-10495.508323
844.447947,444.123565,1628.453072,-10418.898773
844.448267,518.144159,1258.350101,-10495.508323
844.448587,740.205942,74.020594,-10418.898773
844.448907,222.061783,148.041188,-10035.851024
844.449227,-148.041188,-444.123565,-10495.508323
844.449547,-370.102971,-370.102971,-9422.974625
844.449867,-148.041188,740.205942,-10112.460574
844.450187,-444.123565,1110.308913,-9576.193725
844.450507,-148.041188,370.102971,-9576.193725
844.450827,-444.123565,-1776.494261,-9499.584175
844.451147,888.247130,-2368.659014,-9116.536426
844.451467,1554.432478,-1110.308913,-9576.193725
844.451787,2590.720797,-444.123565,-9959.241474
844.452107,3182.885551,888.247130,-10342.289223
844.452427,1184.329507,1628.453072,-10495.508323
844.452747,-740.205942,592.164754,-9806.022374
844.453067,-444.123565,0.000000,-9729.412825
844.453387,962.267725,-222.061783,-9959.241474
844.453707,1702.473667,-296.082377,-9806.022374
844.454027,1480.411884,962.267725,-10035.851024
844.454347,740.205942,1480.411884,-10572.117872
844.454667,1184.329507,1702.473667,-10112.460574
844.454987,0.000000,1036.288319,-10342.289223
844.455307,740.205942,296.082377,-10189.070123
844.455627,888.247130,888.247130,-10112.460574
844.455947,1554.432478,2072.576638,-10342.289223
844.456267,2368.659014,2886.803174,-10495.508323
844.456587,2664.741391,2886.803174,-10725.336972
844.456907,2442.679609,2220.617826,-11031.775171
844.457227,1184.329507,1480.411884,-10418.898773
844.457547,0.000000,148.041188,-10189.070123
844.457867,74.020594,888.247130,-10112.460574
844.458187,-666.185348,1332.370696,-10648.727422
844.458507,-666.185348,1406.391290,-10112.460574
844.458827,148.041188,1036.288319,-10265.679673
844.459147,444.123565,1036.288319,-10112.460574
844.459467,-222.061783,740.205942,-9729.412825
844.459787,-1332.370696,518.144159,-9806.022374
844.460107,-666.185348,-148.041188,-9806.022374
844.460427,592.164754,0.000000,-9499.584175
844.460747,-148.041188,-1184.329507,-9652.803275
844.461067,-296.082377,-1110.308913,-9652.803275
844.461387,-888.247130,0.000000,-9346.365076
844.461707,-1036.288319,962.267725,-9729.412825
844.462027,-1554.432478,1776.494261,-9959.241474
844.462347,-1184.329507,1332.370696,-9499.584175
844.462667,-1036.288319,0.000000,-9652.803275
844.462987,-814.226536,-1332.370696,-9652.803275
844.463307,-148.041188,-1554.432478,-9806.022374
844.463627,444.123565,-1776.494261,-9729.412825
844.463947,-888.247130,-592.164754,-9576.193725
844.464267,-962.267725,-296.082377,-10035.851024
844.464587,222.061783,74.020594,-10112.460574
844.464907,1776.494261,-148.041188,-9959.241474
844.465227,2516.700203,-148.041188,-10495.508323
844.465547,1850.514855,-666.185348,-10572.117872
844.465867,1406.391290,-740.205942,-10801.946522
844.466187,666.185348,-444.123565,-10418.898773
844.466507,-148.041188,-370.102971,-9959.241474
844.466827,592.164754,-962.267725,-10495.508323
844.467147,1110.308913,-962.267725,-10572.117872
844.467467,2516.700203,-1332.370696,-11184.994271
844.467787,1998.556043,-1110.308913,-9729.412825
844.468107,666.185348,-962.267725,-10801.946522
844.468427,0.000000,222.061783,-10725.336972
844.468747,-2146.597232,-296.082377,-10035.851024
844.469067,962.267725,888.247130,-10418.898773
844.469387,2812.782580,-148.041188,-10495.508323
844.469707,4441.235652,-1554.432478,-10495.508323
844.470027,2886.803174,-1998.556043,-9806.022374
844.470347,2516.700203,-1924.535449,-10418.898773
844.470667,1776.494261,-1258.350101,-9116.536426
844.470987,1036.288319,296.082377,-9576.193725
844.471307,222.061783,296.082377,-9806.022374
844.471627,74.020594,370.102971,-9806.022374
844.471946,444.123565,0.000000,-10035.851024
844.472266,0.000000,-888.247130,-9652.803275
844.472586,-296.082377,-1036.288319,-10112.460574
844.472906,-888.247130,0.000000,-9959.241474
844.473226,-1554.432478,740.205942,-10035.851024
844.473546,-962.267725,1110.308913,-9422.974625
844.473866,444.123565,444.123565,-10189.070123
844.474186,888.247130,-444.123565,-10265.679673
844.474506,-222.061783,-1480.411884,-10112.460574
844.474826,-592.164754,-518.144159,-9882.631924
844.475146,-1554.432478,2072.576638,-9806.022374
844.475466,-1406.391290,3923.091493,-10418.898773
844.475786,-1480.411884,3775.050304,-10725.336972
844.476106,-296.082377,2146.597232,-10342.289223
844.476426,0.000000,-1184.329507,-9959.241474
844.476746,518.144159,-2886.803174,-9959.241474
844.477066,740.205942,-1554.432478,-9882.631924
844.477386,296.082377,518.144159,-10572.117872
844.477706,-666.185348,2812.782580,-10112.460574
844.478026,74.020594,3997.112087,-10648.727422
844.478346,148.041188,2442.679609,-10572.117872
844.478666,666.185348,74.020594,-10265.679673
844.478986,666.185348,-148.041188,-10572.117872
844.479306,1776.494261,1110.308913,-10878.556072
844.479626,1036.288319,2812.782580,-10572.117872
844.479946,-370.102971,4145.153275,-10801.946522
844.480266,148.041188,3627.009116,-9652.803275
844.480586,296.082377,592.164754,-11031.775171
844.480906,2368.659014,-666.185348,-9806.022374
844.481226,1776.494261,-666.185348,-9422.974625
844.481546,3034.844362,1406.391290,-10265.679673
844.481866,3404.947333,2960.823768,-10342.289223
844.482186,2516.700203,3478.967927,-10495.508323
844.482506,740.205942,2442.679609,-9422.974625
844.482826,0.000000,296.082377,-9652.803275
844.483146,1184.329507,-222.061783,-9499.584175
844.483466,1628.453072,-740.205942,-9959.241474
844.483786,2368.659014,-962.267725,-9652.803275
844.484106,1554.432478,-666.185348,-9576.193725
844.484426,0.000000,518.144159,-9652.803275
844.484746,-592.164754,1702.473667,-9652.803275
844.485066,148.041188,2738.761985,-9806.022374
844.485386,2220.617826,3034.844362,-10572.117872
844.485706,2442.679609,1924.535449,-10342.289223
844.486026,2146.597232,-814.226536,-9959.241474
844.486346,1110.308913,-1924.535449,-10112.460574
844.486666,-740.205942,-1776.494261,-10035.851024
844.486986,-1036.288319,148.041188,-10342.289223
844.487306,-1332.370696,1036.288319,-10495.508323
844.487626,222.061783,2442.679609,-10495.508323
844.487946,-222.061783,2072.576638,-10801.946522
844.488266,-444.123565,1776.494261,-10495.508323
844.488586,0.000000,888.247130,-10572.117872
844.488906,0.000000,-222.061783,-10725.336972
844.489226,-370.102971,-1332.370696,-10035.851024
844.489546,-1998.556043,-2590.720797,-9806.022374
844.489866,-1258.350101,-2590.720797,-9499.584175
844.490186,-148.041188,-1998.556043,-10035.851024
844.490506,1480.411884,-370.102971,-10648.727422
844.490826,2664.741391,1702.473667,-10495.508323
844.491146,1036.288319,2146.597232,-10342.289223
844.491466,-1110.308913,1110.308913,-10112.460574
844.491786,-370.102971,-1332.370696,-9729.412825
844.492106,1184.329507,-3627.009116,-9806.022374
844.492426,1850.514855,-3701.029710,-9499.584175
844.492746,1258.350101,-2812.782580,-10035.851024
844.493066,444.123565,-1702.473667,-9882.631924
844.493386,-444.123565,-296.082377,-9806.022374
844.493706,-1554.432478,1554.432478,-9882.631924
844.494026,-962.267725,1702.473667,-9882.631924
844.494346,518.144159,1332.370696,-10495.508323
844.494666,1702.473667,-370.102971,-10342.289223
844.494986,2442.679609,-2368.659014,-10265.679673
844.495306,3034.844362,-2960.823768,-10189.070123
844.495626,1924.535449,-1850.514855,-10265.679673
844.495946,0.000000,666.185348,-9882.631924
844.496266,-1110.308913,1998.556043,-9959.241474
844.496586,370.102971,2368.659014,-10342.289223
844.496906,2220.617826,740.205942,-10572.117872
844.497226,2294.638420,-888.247130,-10495.508323
844.497546,1406.391290,-2220.617826,-10189.070123
844.497866,148.041188,-2294.638420,-10495.508323
844.498186,-888.247130,-222.061783,-10265.679673
844.498506,-1554.432478,1850.514855,-9806.022374
844.498826,-518.144159,2886.803174,-10495.508323
844.499146,148.041188,3552.988522,-10648.727422
844.499466,-148.041188,2368.659014,-10572.117872
844.499786,-814.226536,592.164754,-10189.070123
844.500106,666.185348,888.247130,-10418.898773
844.500426,962.267725,592.164754,-10342.289223
844.500746,148.041188,-148.041188,-9193.145976
844.501066,-666.185348,-740.205942,-9729.412825
844.501386,-1332.370696,-1036.288319,-9422.974625
844.501705,-1258.350101,0.000000,-9652.803275
844.502025,1184.329507,1184.329507,-9806.022374
844.502345,2368.659014,2960.823768,-10265.679673
844.502665,2072.576638,2886.803174,-10418.898773
844.502985,1110.308913,2368.659014,-9576.193725
844.503305,148.041188,0.000000,-9729.412825
844.503625,0.000000,0.000000,-9729.412825
844.503945,74.020594,-666.185348,-9882.631924
844.504265,1110.308913,74.020594,-9806.022374
844.504585,2072.576638,666.185348,-9882.631924
844.504905,2072.576638,3108.864956,-11338.213370
844.505225,-370.102971,3997.112087,-10265.679673
844.505545,-592.164754,3552.988522,-10112.460574
844.505865,888.247130,2516.700203,-9959.241474
844.506185,1480.411884,1110.308913,-9729.412825
844.506505,2368.659014,-1406.391290,-9346.365076
844.506825,3256.906145,-2072.576638,-9882.631924
844.507145,2516.700203,-444.123565,-9806.022374
844.507465,888.247130,1924.535449,-9882.631924
844.507785,518.144159,3627.009116,-9652.803275
844.508105,888.247130,3701.029710,-10418.898773
844.508425,2072.576638,2886.803174,-10495.508323
844.508745,1702.473667,740.205942,-10495.508323
844.509065,1332.370696,-1480.411884,-10342.289223
844.509385,370.102971,-2664.741391,-9806.022374
844.509705,-814.226536,-1850.514855,-9806.022374
844.510025,-962.267725,-444.123565,-10035.851024
844.510345,0.000000,1480.411884,-10495.508323
844.510665,148.041188,2220.617826,-10801.946522
844.510985,592.164754,2146.597232,-10648.727422
844.511305,1628.453072,518.144159,-10878.556072
844.511625,2146.597232,-1332.370696,-10572.117872
844.511945,0.000000,-1998.556043,-9882.631924
844.512265,-3775.050304,-1924.535449,-9959.241474
844.512585,-2368.659014,-1184.329507,-9959.241474
844.512905,0.000000,-740.205942,-10265.679673
844.513225,814.226536,444.123565,-10418.898773
844.513545,-962.267725,666.185348,-10342.289223
844.513865,0.000000,592.164754,-10418.898773
844.514185,370.102971,0.000000,-10189.070123
844.514505,-1184.329507,-1628.453072,-9806.022374
844.514825,1036.288319,-2442.679609,-9806.022374
844.515145,1628.453072,-2146.597232,-9269.755526
844.515465,1184.329507,-1998.556043,-10189.070123
844.515785,1258.350101,-1036.288319,-9806.022374
844.516105,2294.638420,0.000000,-9882.631924
844.516425,222.061783,814.226536,-9959.241474
844.516745,-518.144159,888.247130,-9806.022374
844.517065,0.000000,-518.144159,-10418.898773
844.517385,0.000000,-1480.411884,-10265.679673
844.517705,148.041188,-2960.823768,-9806.022374
844.518025,666.185348,-2960.823768,-9729.412825
844.518345,148.041188,-1924.535449,-10112.460574
844.518665,888.247130,1110.308913,-10572.117872
844.518985,-148.041188,2368.659014,-10418.898773
844.519305,370.102971,2738.761985,-9806.022374
844.519625,1702.473667,888.247130,-10495.508323
844.519945,1554.432478,-592.164754,-10878.556072
844.520265,296.082377,-2294.638420,-10572.117872
844.520585,74.020594,-1702.473667,-9269.755526
844.520905,74.020594,-148.041188,-10112.460574
844.521225,-222.061783,2368.659014,-10495.508323
844.521545,370.102971,2368.659014,-10572.117872
844.521865,740.205942,1480.411884,-10418.898773
844.522185,518.144159,-370.102971,-10342.289223
844.522505,-296.082377,-1850.514855,-9422.974625
844.522825,-296.082377,-2146.597232,-9806.022374
844.523145,-518.144159,-592.164754,-9269.755526
844.523465,-222.061783,444.123565,-9806.022374
844.523785,222.061783,1184.329507,-9806.022374
844.524105,444.123565,2368.659014,-10112.460574
844.524425,0.000000,2294.638420,-10035.851024
844.524745,296.082377,1924.535449,-9422.974625
844.525065,1554.432478,1110.308913,-9959.241474
844.525385,1110.308913,444.123565,-10035.851024
844.525705,0.000000,222.061783,-9806.022374
844.526025,-888.247130,-148.041188,-9729.412825
844.526345,888.247130,518.144159,-9959.241474
844.526665,962.267725,2072.576638,-10112.460574
844.526985,148.041188,3182.885551,-10418.898773
844.527305,-814.226536,3775.050304,-10189.070123
844.527625,-370.102971,3701.029710,-10495.508323
844.527945,296.082377,2146.597232,-10648.727422
844.528265,1258.350101,148.041188,-10342.289223
844.528585,1406.391290,-296.082377,-10035.851024
844.528905,1998.556043,-444.123565,-9882.631924
844.529225,1924.535449,1184.329507,-9729.412825
844.529545,2960.823768,1998.556043,-10418.898773
844.529865,2738.761985,3701.029710,-10265.679673
844.530185,1850.514855,3923.091493,-10418.898773
844.530505,444.123565,2664.741391,-10035.851024
844.530825,370.102971,666.185348,-10189.070123
844.531145,592.164754,-1110.308913,-9806.022374
844.531464,1480.411884,-1332.370696,-9729.412825
844.531784,1628.453072,-518.144159,-9729.412825
844.532104,-444.123565,1554.432478,-11108.384721
844.532424,-1258.350101,2516.700203,-10418.898773
844.532744,0.000000,2886.803174,-9882.631924
844.533064,962.267725,1628.453072,-9806.022374
844.533384,1998.556043,518.144159,-9116.536426
844.533704,1480.411884,-1036.288319,-9806.022374
844.534024,1554.432478,-2294.638420,-9729.412825
844.534344,2220.617826,-1258.350101,-9806.022374
844.534664,1628.453072,0.000000,-9576.193725
844.534984,222.061783,1702.473667,-9499.584175
844.535304,740.205942,1554.432478,-9806.022374
844.535624,1258.350101,0.000000,-10418.898773
844.535944,1110.308913,-740.205942,-9959.241474
844.536264,444.123565,-888.247130,-10955.165621
844.536584,-148.041188,-1184.329507,-10112.460574
844.536904,-814.226536,-740.205942,-10112.460574
844.537224,-1480.411884,0.000000,-10035.851024
844.537544,-370.102971,370.102971,-10342.289223
844.537864,-370.102971,-370.102971,-10418.898773
844.538184,-222.061783,-518.144159,-10342.289223
844.538504,888.247130,-518.144159,-10342.289223
844.538824,2220.617826,0.000000,-10878.556072
844.539144,2294.638420,814.226536,-10648.727422
844.539464,740.205942,518.144159,-10495.508323
844.539784,-962.267725,-222.061783,-10572.117872
844.540104,-592.164754,-666.185348,-10265.679673
844.540424,-222.061783,-740.205942,-10801.946522
844.540744,-962.267725,-592.164754,-10112.460574
844.541064,-1628.453072,-444.123565,-10112.460574
844.541384,-1036.288319,-888.247130,-10035.851024
844.541704,-222.061783,-740.205942,-9959.241474
844.542024,370.102971,-1332.370696,-9422.974625
844.542344,444.123565,-1554.432478,-9806.022374
844.542664,222.061783,-666.185348,-9729.412825
844.542984,370.102971,-592.164754,-9959.241474
844.543304,1998.556043,-1036.288319,-9882.631924
844.543624,666.185348,-1554.432478,-9806.022374
844.543944,-1332.370696,-1332.370696,-9499.584175
844.544264,-1924.535449,-1554.432478,-9499.584175
844.544584,592.164754,-666.185348,-9882.631924
844.544904,814.226536,444.123565,-10035.851024
844.545224,-666.185348,1184.329507,-10112.460574
844.545544,-1554.432478,1258.350101,-10112.460574
844.545864,-1110.308913,740.205942,-9959.241474
844.546184,-888.247130,592.164754,-11644.651570
844.546504,-1406.391290,-518.144159,-10265.679673
844.546824,-1184.329507,-1258.350101,-9729.412825
844.547144,222.061783,-1110.308913,-10035.851024
844.547464,592.164754,-666.185348,-10265.679673
844.547784,1110.308913,-666.185348,-10495.508323
844.548104,1998.556043,814.226536,-10572.117872
844.548424,1998.556043,2368.659014,-10572.117872
844.548744,444.123565,2368.659014,-10342.289223
844.549064,1406.391290,2146.597232,-10112.460574
844.549384,2368.659014,592.164754,-10725.336972
844.549704,2812.782580,0.000000,-11108.384721
844.550024,2294.638420,-222.061783,-9882.631924
844.550344,962.267725,1184.329507,-10725.336972
844.550664,370.102971,1924.535449,-9882.631924
844.550984,148.041188,2368.659014,-10035.851024
844.551304,888.247130,1554.432478,-10112.460574
844.551624,1628.453072,962.267725,-9576.193725
844.551944,962.267725,814.226536,-9806.022374
844.552264,1406.391290,518.144159,-9806.022374
844.552584,1998.556043,1924.535449,-9959.241474
844.552904,1702.473667,2886.803174,-9806.022374
844.553224,1110.308913,2294.638420,-9116.536426
844.553543,1702.473667,1110.308913,-9729.412825
844.553863,2072.576638,-296.082377,-9576.193725
844.554183,1998.556043,-444.123565,-9499.584175
844.554503,1628.453072,148.041188,-9652.803275
844.554823,1998.556043,888.247130,-10725.336972
844.555143,962.267725,1628.453072,-9499.584175
844.555463,296.082377,1924.535449,-9806.022374
844.555783,370.102971,1258.350101,-9806.022374
844.556103,444.123565,888.247130,-8963.317327
844.556423,444.123565,1110.308913,-9959.241474
844.556743,-296.082377,666.185348,-10035.851024
844.557062,222.061783,-296.082377,-10572.117872
844.557382,592.164754,-222.061783,-10189.070123
844.557702,-296.082377,444.123565,-9499.584175
844.558022,-962.267725,0.000000,-10112.460574
844.558342,-370.102971,592.164754,-10648.727422
844.558662,-370.102971,1554.432478,-10418.898773
844.558982,148.041188,2220.617826,-10801.946522
844.559302,0.000000,1924.535449,-10572.117872
844.559622,0.000000,1702.473667,-11031.775171
844.559942,296.082377,1258.350101,-10265.679673
844.560262,370.102971,148.041188,-11108.384721
844.560582,1480.411884,-592.164754,-10342.289223
844.560901,148.041188,-444.123565,-10648.727422
844.561221,0.000000,-370.102971,-9806.022374
844.561541,148.041188,370.102971,-10342.289223
844.561861,1332.370696,962.267725,-9959.241474
844.562181,-814.226536,1924.535449,-10189.070123
844.562501,-1406.391290,370.102971,-9652.803275
844.562821,-148.041188,-740.205942,-9729.412825
844.563141,370.102971,-2146.597232,-9346.365076
844.563461,1998.556043,-2146.597232,-9193.145976
844.563781,1776.494261,-1110.308913,-9806.022374
844.564101,1998.556043,-148.041188,-9499.584175
844.564420,74.020594,592.164754,-9882.631924
844.564740,518.144159,74.020594,-9806.022374
844.565060,1554.432478,-1036.288319,-9729.412825
844.565380,962.267725,-1258.350101,-9652.803275
844.565700,-74.020594,-2072.576638,-9959.241474
844.566020,74.020594,-888.247130,-10035.851024
844.566340,444.123565,518.144159,-10418.898773
844.566660,74.020594,1184.329507,-10801.946522
844.566980,0.000000,1036.288319,-10189.070123
844.567300,74.020594,0.000000,-10418.898773
844.567620,1480.411884,-1332.370696,-10342.289223
844.567940,1258.350101,-2368.659014,-10495.508323
844.568259,1110.308913,-2220.617826,-10265.679673
844.568579,-370.102971,-518.144159,-10342.289223
844.568899,-1628.453072,1332.370696,-10418.898773
844.569219,-1258.350101,2516.700203,-11108.384721
844.569539,74.020594,740.205942,-10418.898773
844.569859,1110.308913,-518.144159,-10801.946522
844.570179,1258.350101,-1850.514855,-10265.679673
844.570499,1184.329507,-2368.659014,-10572.117872
844.570819,1998.556043,-444.123565,-10495.508323
844.571139,666.185348,1332.370696,-9806.022374
844.571459,-1184.329507,2442.679609,-10112.460574
844.571778,0.000000,1924.535449,-9116.536426
844.572098,962.267725,148.041188,-9882.631924
844.572418,2072.576638,-962.267725,-9882.631924
844.572738,1406.391290,-1480.411884,-9806.022374
844.573058,740.205942,-296.082377,-9652.803275
844.573378,-592.164754,1184.329507,-10035.851024
844.573698,-1554.432478,2442.679609,-9806.022374
844.574018,-814.226536,2812.782580,-10495.508323
844.574338,74.020594,1776.494261,-10035.851024
844.574658,1480.411884,-370.102971,-11338.213370
844.574978,2220.617826,-888.247130,-10035.851024
844.575297,2368.659014,-444.123565,-9959.241474
844.575617,444.123565,962.267725,-9882.631924
844.575937,-1184.329507,2294.638420,-9346.365076
844.576257,-1036.288319,1702.473667,-9806.022374
844.576577,740.205942,592.164754,-10342.289223
844.576897,1406.391290,-370.102971,-10035.851024
844.577217,888.247130,0.000000,-9959.241474
844.577537,1406.391290,740.205942,-10265.679673
844.577857,1184.329507,2072.576638,-10342.289223
844.578177,444.123565,1628.453072,-10112.460574
844.578497,370.102971,518.144159,-9882.631924
844.578817,666.185348,-370.102971,-10112.460574
844.579136,814.226536,-592.164754,-10418.898773
844.579456,148.041188,0.000000,-10035.851024
844.579776,-518.144159,1554.432478,-9959.241474
844.580096,-666.185348,2738.761985,-10342.289223
844.580416,0.000000,3034.844362,-9039.926876
844.580736,888.247130,814.226536,-10189.070123
844.581056,1332.370696,-962.267725,-10112.460574
844.581376,1184.329507,-1258.350101,-10189.070123
844.581696,148.041188,-222.061783,-9959.241474
844.582016,1480.411884,518.144159,-10112.460574
844.582336,2220.617826,2220.617826,-9959.241474
844.582655,814.226536,1998.556043,-10112.460574
844.582975,296.082377,296.082377,-10112.460574
844.583295,1184.329507,-296.082377,-9193.145976
844.583615,2368.659014,-1628.453072,-10648.727422
844.583935,1998.556043,-518.144159,-9806.022374
844.584255,1332.370696,1258.350101,-10418.898773
844.584575,888.247130,2368.659014,-11338.213370
844.584895,518.144159,1406.391290,-9882.631924
844.585215,-74.020594,-222.061783,-9576.193725
844.585535,74.020594,-2220.617826,-9806.022374
844.585855,1702.473667,-3478.967927,-9422.974625
844.586175,2072.576638,-2590.720797,-10035.851024
844.586494,296.082377,-518.144159,-9729.412825
844.586814,444.123565,1998.556043,-10418.898773
844.587134,-592.164754,2516.700203,-10035.851024
844.587454,-1110.308913,1998.556043,-9959.241474
844.587774,296.082377,592.164754,-10112.460574
844.588094,2220.617826,-1628.453072,-10418.898773
844.588414,2368.659014,-2516.700203,-10112.460574
844.588734,1924.535449,-1480.411884,-10265.679673
844.589054,592.164754,0.000000,-9882.631924
844.589374,-1554.432478,592.164754,-10189.070123
844.589694,-3552.988522,1406.391290,-9959.241474
844.590013,-4219.173869,0.000000,-10189.070123
844.590333,-2738.761985,-962.267725,-9806.022374
844.590653,-1184.329507,-1184.329507,-10725.336972
844.590973,-1110.308913,-148.041188,-10189.070123
844.591293,-1110.308913,1628.453072,-10801.946522
844.591613,-2146.597232,2442.679609,-10418.898773
844.591933,-2072.576638,1628.453072,-10035.851024
844.592253,666.185348,-1036.288319,-10112.460574
844.592573,2812.782580,-3034.844362,-9806.022374
844.592893,2516.700203,-3034.844362,-9806.022374
844.593213,1406.391290,-1110.308913,-10112.460574
844.593532,666.185348,444.123565,-9882.631924
844.593852,0.000000,1998.556043,-10189.070123
844.594172,-962.267725,2442.679609,-10572.117872
844.594492,-1480.411884,1036.288319,-9806.022374
844.594812,-518.144159,0.000000,-10112.460574
844.595132,1110.308913,-592.164754,-10112.460574
844.595452,1998.556043,0.000000,-10189.070123
844.595772,2368.659014,0.000000,-10342.289223
844.596092,1998.556043,0.000000,-10418.898773
844.596412,814.226536,1036.288319,-10112.460574
844.596732,0.000000,1924.535449,-9882.631924
844.597052,962.267725,1776.494261,-10418.898773
844.597371,2442.679609,2220.617826,-9806.022374
844.597691,2294.638420,1110.308913,-10265.679673
844.598011,1998.556043,444.123565,-10342.289223
844.598331,1110.308913,1184.329507,-9806.022374
844.598651,888.247130,1184.329507,-10035.851024
844.598971,2220.617826,2220.617826,-9806.022374
844.599291,3997.112087,1480.411884,-9959.241474
844.599611,4071.132681,444.123565,-10112.460574
844.599931,1924.535449,0.000000,-9806.022374
844.600251,592.164754,814.226536,-11874.480219
844.600571,222.061783,2220.617826,-10112.460574
844.600890,-666.185348,2146.597232,-9882.631924
844.601210,-1628.453072,1850.514855,-9729.412825
844.601530,148.041188,740.205942,-10189.070123
844.601850,1924.535449,0.000000,-9959.241474
844.602170,2294.638420,-592.164754,-10112.460574
844.602490,1480.411884,148.041188,-9729.412825
844.602810,1406.391290,1406.391290,-10189.070123
844.603130,74.020594,1628.453072,-10418.898773
844.603450,-740.205942,1036.288319,-9882.631924
844.603770,-666.185348,-148.041188,-10189.070123
844.604090,1110.308913,0.000000,-10189.070123
844.604410,1628.453072,370.102971,-10648.727422
844.604729,1406.391290,888.247130,-10801.946522
844.605049,444.123565,1850.514855,-10418.898773
844.605369,-1924.535449,2368.659014,-10495.508323
844.605689,-2294.638420,1406.391290,-10035.851024
844.606009,222.061783,0.000000,-9039.926876
844.606329,1184.329507,-148.041188,-9882.631924
844.606649,1110.308913,-1184.329507,-10342.289223
844.606969,1406.391290,-1628.453072,-9729.412825
844.607289,444.123565,-962.267725,-9959.241474
844.607609,-1258.350101,1332.370696,-9269.755526
844.607929,-2442.679609,2146.597232,-9882.631924
844.608248,-1110.308913,2146.597232,-10342.289223
844.608568,888.247130,888.247130,-10265.679673
844.608888,962.267725,-222.061783,-9882.631924
844.609208,296.082377,-2294.638420,-9882.631924
844.609528,1702.473667,-1924.535449,-10035.851024
844.609848,0.000000,-518.144159,-9959.241474
844.610168,-1554.432478,1110.308913,-9576.193725
844.610488,-1776.494261,1480.411884,-9882.631924
844.610808,518.144159,370.102971,-9959.241474
844.611128,1332.370696,-1924.535449,-10035.851024
844.611448,370.102971,-2664.741391,-9959.241474
844.611768,666.185348,-3034.844362,-10035.851024
844.612087,962.267725,-962.267725,-10265.679673
844.612407,74.020594,1480.411884,-10265.679673
844.612727,-1184.329507,1924.535449,-10495.508323
844.613047,962.267725,1406.391290,-9959.241474
844.613367,1554.432478,0.000000,-10265.679673
844.613687,888.247130,-1554.432478,-10342.289223
844.614007,1554.432478,-2146.597232,-10112.460574
844.614327,-888.247130,-962.267725,-10112.460574
844.614647,-1850.514855,814.226536,-10035.851024
844.614967,-666.185348,222.061783,-9806.022374
844.615287,2072.576638,0.000000,-10035.851024
844.615606,2590.720797,74.020594,-10189.070123
844.615926,2146.597232,-444.123565,-10035.851024
844.616246,2664.741391,518.144159,-10035.851024
844.616566,2368.659014,1480.411884,-10265.679673
844.616886,1406.391290,1036.288319,-9729.412825
844.617206,0.000000,-444.123565,-9806.022374
844.617526,1110.308913,-1184.329507,-9806.022374
844.617846,1554.432478,-1110.308913,-9806.022374
844.618166,1628.453072,0.000000,-10189.070123
844.618486,2812.782580,1406.391290,-9652.803275
844.618806,2590.720797,2368.659014,-11568.042020
844.619125,-148.041188,2664.741391,-10112.460574
844.619445,-2368.659014,2220.617826,-9959.241474
844.619765,-2590.720797,0.000000,-9882.631924
844.620085,-962.267725,-1776.494261,-9806.022374
844.620405,1702.473667,-2146.597232,-10648.727422
844.620725,1998.556043,-1406.391290,-9959.241474
844.621045,1258.350101,1258.350101,-10189.070123
844.621365,-296.082377,3330.926739,-10342.289223
844.621685,222.061783,4515.256246,-10725.336972
844.622005,-370.102971,3997.112087,-10189.070123
844.622325,296.082377,1332.370696,-10342.289223
844.622645,1184.329507,-1258.350101,-10112.460574
844.622964,1406.391290,-3034.844362,-9806.022374
844.623284,1776.494261,-3034.844362,-10342.289223
844.623604,888.247130,-296.082377,-10112.460574
844.623924,-518.144159,2590.720797,-9959.241474
844.624244,0.000000,3849.070898,-10572.117872
844.624564,0.000000,4219.173869,-10112.460574
844.624884,-518.144159,2368.659014,-10648.727422
844.625204,0.000000,370.102971,-9959.241474
844.625524,-370.102971,-444.123565,-10035.851024
844.625844,-962.267725,-592.164754,-10035.851024
844.626164,-2368.659014,-370.102971,-9729.412825
844.626483,-1332.370696,-1332.370696,-9729.412825
844.626803,74.020594,-518.144159,-9576.193725
844.627123,1184.329507,888.247130,-9806.022374
844.627443,2294.638420,2072.576638,-11031.775171
844.627763,2294.638420,2442.679609,-10495.508323
844.628083,1480.411884,1702.473667,-10112.460574
844.628403,-740.205942,370.102971,-9576.193725
844.628723,-444.123565,-2220.617826,-8733.488677
844.629043,1258.350101,-2368.659014,-9729.412825
844.629363,2368.659014,-1554.432478,-9806.022374
844.629683,2368.659014,-148.041188,-9959.241474
844.630003,3034.844362,1554.432478,-10878.556072
844.630322,1332.370696,2442.679609,-9729.412825
844.630642,-1036.288319,1628.453072,-9806.022374
844.630962,-1554.432478,740.205942,-9882.631924
844.631282,148.041188,-1036.288319,-10112.460574
844.631602,1776.494261,-1184.329507,-9729.412825
844.631922,2294.638420,-2072.576638,-9806.022374
844.632242,2886.803174,-1184.329507,-10572.117872
844.632562,1628.453072,1258.350101,-10572.117872
844.632882,74.020594,2886.803174,-10725.336972
844.633202,-1406.391290,2960.823768,-9882.631924
844.633522,-814.226536,1110.308913,-10725.336972
844.633841,-222.061783,-1332.370696,-10342.289223
844.634161,592.164754,-2368.659014,-10725.336972
844.634481,1406.391290,-2220.617826,-10342.289223
844.634801,1480.411884,518.144159,-10878.556072
844.635121,-222.061783,2886.803174,-10342.289223
844.635441,-370.102971,3478.967927,-10725.336972
844.635761,-222.061783,1628.453072,-10112.460574
844.636081,-888.247130,-962.267725,-10112.460574
844.636401,-592.164754,-2590.720797,-9499.584175
844.636721,-296.082377,-2442.679609,-9882.631924
844.637041,370.102971,-1036.288319,-10112.460574
844.637361,296.082377,740.205942,-9576.193725
844.637680,-370.102971,1776.494261,-9729.412825
844.638000,-592.164754,962.267725,-9499.584175
844.638320,148.041188,-814.226536,-9576.193725
844.638640,0.000000,-1036.288319,-9729.412825
844.638960,1480.411884,-1110.308913,-9576.193725
844.639280,2294.638420,-444.123565,-9729.412825
844.639600,962.267725,370.102971,-10112.460574
844.639920,-740.205942,888.247130,-9576.193725
844.640240,-1110.308913,370.102971,-9806.022374
844.640560,222.061783,-370.102971,-9806.022374
844.640880,74.020594,296.082377,-9576.193725
844.641199,-888.247130,1036.288319,-9806.022374
844.641519,-444.123565,1702.473667,-10265.679673
844.641839,444.123565,518.144159,-9959.241474
844.642159,222.061783,0.000000,-9882.631924
844.642479,-444.123565,0.000000,-10189.070123
844.642799,666.185348,740.205942,-10035.851024
844.643119,2516.700203,1406.391290,-10495.508323
844.643439,4663.297435,1702.473667,-10878.556072
844.643759,4219.173869,2146.597232,-10878.556072
844.644079,2072.576638,2220.617826,-10801.946522
844.644399,148.041188,2294.638420,-10418.898773
844.644718,740.205942,1258.350101,-10648.727422
844.645038,888.247130,814.226536,-10342.289223
844.645358,444.123565,0.000000,-10189.070123
844.645678,1036.288319,-370.102971,-10035.851024
844.645998,1776.494261,222.061783,-10112.460574
844.646318,1184.329507,444.123565,-10342.289223
844.646638,-592.164754,2368.659014,-10035.851024
844.646958,-1406.391290,2590.720797,-10035.851024
844.647278,0.000000,1850.514855,-9959.241474
844.647598,222.061783,-444.123565,-10189.070123
844.647918,814.226536,-1628.453072,-10112.460574
844.648238,1554.432478,-962.267725,-10189.070123
844.648557,370.102971,296.082377,-10112.460574
844.648877,74.020594,1406.391290,-9806.022374
844.649197,0.000000,1702.473667,-9806.022374
844.649517,888.247130,518.144159,-9806.022374
844.649837,592.164754,-814.226536,-9882.631924
844.650157,74.020594,-2220.617826,-9576.193725
844.650477,0.000000,-1554.432478,-9652.803275
844.650797,370.102971,0.000000,-9806.022374
844.651117,-222.061783,1184.329507,-10342.289223
844.651437,0.000000,444.123565,-9576.193725
844.651757,0.000000,0.000000,-9882.631924
844.652076,222.061783,-962.267725,-9959.241474
844.652396,148.041188,-1036.288319,-9882.631924
844.652716,740.205942,-1406.391290,-10112.460574
844.653036,2442.679609,370.102971,-10955.165621
844.653356,888.247130,1776.494261,-10265.679673
844.653676,74.020594,1850.514855,-10342.289223
844.653996,444.123565,370.102971,-10189.070123
844.654316,444.123565,-222.061783,-9193.145976
844.654636,0.000000,0.000000,-9806.022374
844.654955,962.267725,-296.082377,-10418.898773
844.655275,1480.411884,518.144159,-10572.117872
844.655595,74.020594,1036.288319,-10189.070123
844.655915,-1258.350101,444.123565,-10572.117872
844.656235,-740.205942,-370.102971,-9959.241474
844.656555,-962.267725,-1184.329507,-10265.679673
844.656875,74.020594,-1258.350101,-9806.022374
844.657195,1850.514855,-962.267725,-9806.022374
844.657515,1776.494261,-222.061783,-10648.727422
844.657834,-296.082377,814.226536,-10112.460574
844.658154,-1776.494261,888.247130,-9806.022374
844.658474,-740.205942,296.082377,-10189.070123
844.658794,-370.102971,-370.102971,-9729.412825
844.659114,1184.329507,-1924.535449,-10418.898773
844.659434,1850.514855,-1332.370696,-10035.851024
844.659754,814.226536,518.144159,-10572.117872
844.660074,74.020594,962.267725,-11721.261119
844.660394,0.000000,1628.453072,-10418.898773
844.660714,-740.205942,1702.473667,-10495.508323
844.661033,-962.267725,444.123565,-9729.412825
844.661353,-666.185348,-814.226536,-10112.460574
844.661673,296.082377,-518.144159,-10801.946522
844.661993,1628.453072,0.000000,-10572.117872
844.662313,962.267725,740.205942,-9806.022374
844.662633,-1184.329507,962.267725,-9806.022374
844.662953,-518.144159,592.164754,-9499.584175
844.663273,740.205942,444.123565,-9959.241474
844.663593,1258.350101,0.000000,-9806.022374
844.663912,814.226536,666.185348,-10189.070123
844.664232,888.247130,2294.638420,-10189.070123
844.664552,1184.329507,1776.494261,-10265.679673
844.664872,1110.308913,2368.659014,-9729.412825
844.665192,2146.597232,296.082377,-9652.803275
844.665512,3182.885551,296.082377,-10265.679673
844.665832,2442.679609,-370.102971,-11644.651570
844.666152,2220.617826,0.000000,-10572.117872
844.666472,1850.514855,740.205942,-9806.022374
844.666791,888.247130,2442.679609,-9806.022374
844.667111,0.000000,3404.947333,-10112.460574
844.667431,-444.123565,2516.700203,-10342.289223
844.667751,2072.576638,1332.370696,-10342.289223
844.668071,3256.906145,-148.041188,-10342.289223
844.668391,3182.885551,-888.247130,-9729.412825
844.668711,2886.803174,-222.061783,-10342.289223
844.669031,296.082377,1036.288319,-9959.241474
844.669351,-1776.494261,2146.597232,-10189.070123
844.669670,-1406.391290,1036.288319,-10035.851024
844.669990,888.247130,1480.411884,-10572.117872
844.670310,592.164754,1036.288319,-10112.460574
844.670630,1628.453072,2072.576638,-10342.289223
844.670950,1480.411884,2072.576638,-10572.117872
844.671270,888.247130,592.164754,-9806.022374
844.671590,-370.102971,222.061783,-10035.851024
844.671910,-2072.576638,-1628.453072,-9422.974625
844.672230,-1036.288319,-1628.453072,-9346.365076
844.672549,222.061783,-1036.288319,-9882.631924
844.672869,1480.411884,740.205942,-9729.412825
844.673189,1702.473667,1924.535449,-9959.241474
844.673509,1184.329507,1406.391290,-10265.679673
844.673829,370.102971,1036.288319,-9882.631924
844.674149,-666.185348,444.123565,-10035.851024
844.674469,-444.123565,0.000000,-9499.584175
844.674789,74.020594,-1184.329507,-10035.851024
844.675109,296.082377,-1480.411884,-9882.631924
844.675429,0.000000,-1184.329507,-10112.460574
844.675748,-444.123565,-370.102971,-10189.070123
844.676068,-1036.288319,370.102971,-10112.460574
844.676388,-1036.288319,1480.411884,-9806.022374
844.676708,148.041188,1258.350101,-10725.336972
844.677028,1628.453072,1036.288319,-9422.974625
844.677348,1406.391290,-296.082377,-10725.336972
844.677668,-444.123565,-1776.494261,-10495.508323
844.677988,0.000000,-1776.494261,-10418.898773
844.678308,-518.144159,-592.164754,-10342.289223
844.678627,222.061783,0.000000,-10112.460574
844.678947,518.144159,518.144159,-10648.727422
844.679267,444.123565,-148.041188,-10878.556072
844.679587,814.226536,-1406.391290,-10495.508323
844.679907,888.247130,-1258.350101,-10648.727422
844.680227,0.000000,-1702.473667,-10418.898773
844.680547,-740.205942,74.020594,-10572.117872
844.680867,-1480.411884,1776.494261,-9959.241474
844.681187,-518.144159,962.267725,-10725.336972
844.681506,444.123565,-74.020594,-9882.631924
844.681826,296.082377,-2146.597232,-10189.070123
844.682146,-296.082377,-3034.844362,-9652.803275
844.682466,0.000000,-1184.329507,-9806.022374
844.682786,592.164754,370.102971,-9499.584175
844.683106,0.000000,740.205942,-9652.803275
844.683426,-666.185348,222.061783,-9499.584175
844.683746,962.267725,-148.041188,-9959.241474
844.684066,1110.308913,-1184.329507,-9422.974625
844.684385,666.185348,-1332.370696,-9729.412825
844.684705,666.185348,-1184.329507,-9806.022374
844.685025,740.205942,0.000000,-9346.365076
844.685345,0.000000,1036.288319,-9806.022374
844.685665,0.000000,1998.556043,-9499.584175
844.685985,1036.288319,1406.391290,-10572.117872
844.686305,2812.782580,814.226536,-10572.117872
844.686625,1702.473667,666.185348,-9806.022374
844.686945,1332.370696,-666.185348,-10342.289223
844.687264,888.247130,-888.247130,-9959.241474
844.687584,370.102971,-518.144159,-9882.631924
844.687904,296.082377,2220.617826,-10189.070123
844.688224,1702.473667,2812.782580,-10572.117872
844.688544,2294.638420,2664.741391,-10955.165621
844.688864,1702.473667,2516.700203,-10495.508323
844.689184,1554.432478,962.267725,-10495.508323
844.689504,1554.432478,1406.391290,-10265.679673
844.689824,296.082377,1406.391290,-10955.165621
844.690144,592.164754,1702.473667,-10189.070123
844.690463,2368.659014,1776.494261,-10648.727422
844.690783,2368.659014,962.267725,-9729.412825
844.691103,444.123565,1184.329507,-10189.070123
844.691423,-666.185348,1776.494261,-9806.022374
844.691743,148.041188,2368.659014,-10572.117872
844.692063,148.041188,1998.556043,-9959.241474
844.692383,-518.144159,1776.494261,-9806.022374
844.692703,-666.185348,0.000000,-9652.803275
844.693023,1406.391290,-740.205942,-9652.803275
844.693342,1850.514855,-666.185348,-10035.851024
844.693662,2146.597232,-296.082377,-9959.241474
844.693982,814.226536,1850.514855,-9959.241474
844.694302,-888.247130,2146.597232,-9806.022374
844.694622,-888.247130,2072.576638,-9499.584175
844.694942,-296.082377,444.123565,-9806.022374
844.695262,888.247130,-1110.308913,-10189.070123
844.695582,74.020594,-1850.514855,-9269.755526
844.695902,888.247130,-1924.535449,-10035.851024
844.696221,962.267725,0.000000,-10265.679673
844.696541,-1110.308913,1554.432478,-10265.679673
844.696861,-1924.535449,3108.864956,-10572.117872
844.697181,-1110.308913,2442.679609,-9346.365076
844.697501,518.144159,370.102971,-10495.508323
844.697821,2072.576638,-1258.350101,-10418.898773
844.698141,1184.329507,-2664.741391,-10189.070123
844.698461,740.205942,-1332.370696,-10112.460574
844.698781,74.020594,296.082377,-10342.289223
844.699100,-814.226536,1554.432478,-10265.679673
844.699420,-740.205942,1628.453072,-10572.117872
844.699740,444.123565,296.082377,-10418.898773
844.700060,1184.329507,-148.041188,-10342.289223
844.700380,1554.432478,-1554.432478,-10265.679673
844.700700,2590.720797,-814.226536,-10189.070123
844.701020,1998.556043,-296.082377,-9959.241474
844.701340,666.185348,-222.061783,-10265.679673
844.701660,-1184.329507,-518.144159,-9806.022374
844.701979,296.082377,-370.102971,-9346.365076
844.702299,1258.350101,-1110.308913,-10035.851024
844.702619,1184.329507,-1702.473667,-9652.803275
844.702939,1554.432478,-1850.514855,-9882.631924
844.703259,-296.082377,-888.247130,-9499.584175
844.703579,-666.185348,-222.061783,-9729.412825
844.703899,-74.020594,-148.041188,-9729.412825
844.704219,740.205942,740.205942,-9806.022374
844.704539,518.144159,-370.102971,-10112.460574
844.704859,962.267725,444.123565,-10265.679673
844.705178,1258.350101,-222.061783,-10265.679673
844.705498,370.102971,148.041188,-10112.460574
844.705818,-814.226536,1036.288319,-9959.241474
844.706138,-1480.411884,962.267725,-10112.460574
844.706458,-148.041188,74.020594,-10495.508323
844.706778,740.205942,-888.247130,-10648.727422
844.707098,0.000000,-888.247130,-10112.460574
844.707418,0.000000,-592.164754,-10265.679673
844.707738,1110.308913,518.144159,-10572.117872
844.708057,444.123565,2294.638420,-10342.289223
844.708377,-148.041188,1850.514855,-10265.679673
844.708697,1258.350101,814.226536,-10572.117872
844.709017,1998.556043,-1036.288319,-10342.289223
844.709337,1184.329507,-814.226536,-10418.898773
844.709657,74.020594,74.020594,-9959.241474
844.709977,-888.247130,1776.494261,-10189.070123
844.710297,-888.247130,2146.597232,-10189.070123
844.710617,-222.061783,1332.370696,-9959.241474
844.710936,0.000000,-740.205942,-9576.193725
844.711256,1776.494261,-1850.514855,-9806.022374
844.711576,1554.432478,-888.247130,-9576.193725
844.711896,1628.453072,962.267725,-10189.070123
844.712216,1628.453072,3256.906145,-9882.631924
844.712536,-518.144159,4145.153275,-9882.631924
844.712856,-518.144159,3552.988522,-9806.022374
844.713176,1702.473667,740.205942,-10035.851024
844.713496,2072.576638,-1036.288319,-9269.755526
844.713815,962.267725,-1110.308913,-10265.679673
844.714135,148.041188,-888.247130,-9576.193725
844.714455,1850.514855,296.082377,-10342.289223
844.714775,666.185348,1110.308913,-9959.241474
844.715095,-370.102971,1258.350101,-9806.022374
844.715415,-592.164754,444.123565,-9882.631924
844.715735,-296.082377,518.144159,-10189.070123
844.716055,0.000000,1332.370696,-10495.508323
844.716375,814.226536,1924.535449,-10418.898773
844.716694,2220.617826,1258.350101,-10878.556072
844.717014,1702.473667,1406.391290,-10495.508323
844.717334,-814.226536,1036.288319,-10495.508323
844.717654,-296.082377,962.267725,-10495.508323
844.717974,814.226536,1332.370696,-10801.946522
844.718294,1480.411884,592.164754,-10572.117872
844.718614,296.082377,592.164754,-10035.851024
844.718934,370.102971,-296.082377,-10265.679673
844.719254,962.267725,370.102971,-10342.289223
844.719574,1110.308913,1184.329507,-10035.851024
844.719893,1258.350101,1406.391290,-10572.117872
844.720213,2072.576638,666.185348,-9806.022374
844.720533,2220.617826,0.000000,-10418.898773
844.720853,148.041188,-1036.288319,-9806.022374
844.721173,222.061783,-444.123565,-9959.241474
844.721493,-1110.308913,296.082377,-10035.851024
844.721813,-1110.308913,814.226536,-9652.803275
844.722133,-148.041188,-148.041188,-9422.974625
844.722453,1258.350101,-1184.329507,-9499.584175
844.722772,592.164754,-2294.638420,-9422.974625
844.723092,-370.102971,-2146.597232,-9346.365076
844.723412,1110.308913,-1258.350101,-9576.193725
844.723732,2294.638420,0.000000,-9959.241474
844.724052,1258.350101,1702.473667,-9882.631924
844.724372,-518.144159,1480.411884,-9959.241474
844.724692,-222.061783,592.164754,-10418.898773
844.725012,888.247130,-1332.370696,-9959.241474
844.725332,962.267725,-1776.494261,-10572.117872
844.725651,1924.535449,-2886.803174,-10342.289223
844.725971,148.041188,-296.082377,-11031.775171
844.726291,-1924.535449,1036.288319,-10495.508323
844.726611,-2812.782580,1480.411884,-10495.508323
844.726931,-1628.453072,666.185348,-10801.946522
844.727251,-370.102971,-518.144159,-10572.117872
844.727571,148.041188,-518.144159,-10725.336972
844.727891,814.226536,296.082377,-10801.946522
844.728211,1924.535449,2220.617826,-11338.213370
844.728530,-296.082377,2516.700203,-10572.117872
844.728850,-1850.514855,1184.329507,-10035.851024
844.729170,-1628.453072,-370.102971,-10418.898773
844.729490,-370.102971,-1110.308913,-9806.022374
844.729810,962.267725,-1998.556043,-9959.241474
844.730130,1332.370696,-888.247130,-10189.070123
844.730450,-444.123565,296.082377,-9806.022374
844.730770,-1110.308913,1258.350101,-9652.803275
844.731090,-518.144159,1628.453072,-9422.974625
844.731409,888.247130,296.082377,-10265.679673
844.731729,1628.453072,-740.205942,-9576.193725
844.732049,888.247130,222.061783,-9882.631924
844.732369,1184.329507,-74.020594,-9652.803275
844.732689,3034.844362,370.102971,-9193.145976
844.733009,1554.432478,962.267725,-9269.755526
844.733329,222.061783,2368.659014,-9806.022374
844.733649,-222.061783,2072.576638,-9729.412825
844.733969,1776.494261,1110.308913,-9806.022374
844.734289,1184.329507,-148.041188,-10035.851024
844.734608,0.000000,-370.102971,-9652.803275
844.734928,1184.329507,1332.370696,-10495.508323
844.735248,888.247130,518.144159,-9729.412825
844.735568,1924.535449,2886.803174,-10035.851024
844.735888,296.082377,2516.700203,-10418.898773
844.736208,1998.556043,2146.597232,-10418.898773
844.736528,3404.947333,1924.535449,-10648.727422
844.736848,4071.132681,962.267725,-10495.508323
844.737168,3330.926739,444.123565,-10725.336972
844.737487,1110.308913,740.205942,-10189.070123
844.737807,0.000000,2886.803174,-10955.165621
844.738127,-740.205942,2516.700203,-10265.679673
844.738447,148.041188,2516.700203,-10189.070123
844.738767,1702.473667,-666.185348,-9959.241474
844.739087,1850.514855,-2146.597232,-9882.631924
844.739407,2294.638420,-2368.659014,-10112.460574
844.739727,1332.370696,-296.082377,-9882.631924
844.740047,74.020594,2516.700203,-9729.412825
844.740366,444.123565,2368.659014,-10265.679673
844.740686,888.247130,296.082377,-9806.022374
844.741006,666.185348,-1036.288319,-9806.022374
844.741326,74.020594,-1998.556043,-9193.145976
844.741646,1110.308913,-1850.514855,-9959.241474
844.741966,1036.288319,-1110.308913,-9422.974625
844.742286,148.041188,592.164754,-9959.241474
844.742606,-2516.700203,148.041188,-9039.926876
844.742926,-1110.308913,-518.144159,-9729.412825
844.743245,-740.205942,-1332.370696,-9882.631924
844.743565,-888.247130,-2368.659014,-9729.412825
844.743885,444.123565,-1258.350101,-10112.460574
844.744205,0.000000,0.000000,-9806.022374
844.744525,-370.102971,-296.082377,-9959.241474
844.744845,-1258.350101,444.123565,-9959.241474
844.745165,-1036.288319,-370.102971,-10801.946522
844.745485,222.061783,-1036.288319,-11184.994271
844.745805,222.061783,0.000000,-10342.289223
844.746124,1406.391290,296.082377,-10648.727422
844.746444,1776.494261,888.247130,-11108.384721
844.746764,370.102971,-1258.350101,-10801.946522
844.747084,-666.185348,-2146.597232,-10342.289223
844.747404,-1110.308913,-2738.761985,-10189.070123
844.747724,-814.226536,-888.247130,-10495.508323
844.748044,-1110.308913,1036.288319,-10648.727422
844.748364,0.000000,2368.659014,-10418.898773
844.748684,1110.308913,2294.638420,-11184.994271
844.749004,0.000000,-888.247130,-10265.679673
844.749323,-518.144159,-2146.597232,-9729.412825
844.749643,-1036.288319,-1110.308913,-9806.022374
844.749963,222.061783,-148.041188,-11184.994271
844.750283,296.082377,-296.082377,-10342.289223
844.750603,-1480.411884,-1332.370696,-9193.145976
844.750923,-592.164754,0.000000,-9729.412825
844.751243,1184.329507,666.185348,-9729.412825
844.751563,2294.638420,666.185348,-9959.241474
844.751883,2294.638420,592.164754,-9882.631924
844.752202,1554.432478,148.041188,-9806.022374
844.752522,0.000000,-370.102971,-9652.803275
844.752842,962.267725,-2368.659014,-9116.536426
844.753162,2146.597232,-1406.391290,-9652.803275
844.753482,592.164754,370.102971,-9422.974625
844.753802,-370.102971,222.061783,-9576.193725
844.754122,0.000000,1184.329507,-9652.803275
844.754442,518.144159,2442.679609,-9959.241474
844.754762,1406.391290,2590.720797,-10265.679673
844.755082,1628.453072,814.226536,-9806.022374
844.755402,1184.329507,-296.082377,-10418.898773
844.755722,888.247130,-666.185348,-9959.241474
844.756042,0.000000,370.102971,-10265.679673
844.756362,1110.308913,1036.288319,-10189.070123
844.756682,2516.700203,3034.844362,-10189.070123
844.757002,3627.009116,2516.700203,-11031.775171
844.757322,2590.720797,3182.885551,-11184.994271
844.757642,1628.453072,2516.700203,-11108.384721
844.757962,1776.494261,3775.050304,-10955.165621
844.758282,0.000000,2368.659014,-10035.851024
844.758602,814.226536,296.082377,-10112.460574
844.758922,1628.453072,-592.164754,-10342.289223
844.759242,148.041188,-1184.329507,-9959.241474
844.759562,0.000000,0.000000,-10035.851024
844.759882,592.164754,2368.659014,-9959.241474
844.760202,666.185348,4441.235652,-10801.946522
844.760522,1036.288319,4293.194464,-10112.460574
844.760842,666.185348,1998.556043,-9959.241474
844.761162,666.185348,814.226536,-9882.631924
844.761482,518.144159,-888.247130,-9269.755526
844.761802,148.041188,-1184.329507,-9652.803275
844.762122,296.082377,-666.185348,-9269.755526
844.762442,0.000000,0.000000,-9806.022374
844.762762,148.041188,222.061783,-10418.898773
844.763082,296.082377,518.144159,-9499.584175
844.763402,444.123565,1184.329507,-9882.631924
844.763722,0.000000,1554.432478,-9959.241474
844.764042,-814.226536,1258.350101,-10878.556072
844.764362,-1554.432478,-1036.288319,-10035.851024
844.764682,0.000000,-1998.556043,-9882.631924
844.765002,444.123565,-1850.514855,-9499.584175
844.765322,370.102971,-370.102971,-9806.022374
844.765642,888.247130,0.000000,-10112.460574
844.765962,0.000000,74.020594,-9882.631924
844.766282,-1258.350101,444.123565,-10572.117872
844.766602,-1258.350101,222.061783,-10342.289223
844.766922,148.041188,74.020594,-10725.336972
844.767242,-222.061783,148.041188,-9959.241474
844.767562,74.020594,518.144159,-10265.679673
844.767882,888.247130,-592.164754,-10418.898773
844.768202,1406.391290,-1998.556043,-10112.460574
844.768522,1258.350101,-1998.556043,-10112.460574
844.768842,1924.535449,-1480.411884,-10189.070123
844.769162,1480.411884,148.041188,-10495.508323
844.769482,1036.288319,1110.308913,-10342.289223
844.769802,-1184.329507,1998.556043,-10801.946522
844.770122,-2146.597232,222.061783,-9806.022374
844.770442,-1184.329507,-1332.370696,-9806.022374
844.770762,296.082377,-2812.782580,-10035.851024
844.771082,814.226536,-4441.235652,-9729.412825
844.771402,1332.370696,-2220.617826,-10495.508323
844.771722,962.267725,0.000000,-9882.631924
844.772042,1184.329507,1628.453072,-10112.460574
844.772362,888.247130,1776.494261,-10725.336972
844.772682,888.247130,592.164754,-11414.822920
844.773001,592.164754,-296.082377,-10495.508323
844.773321,666.185348,-296.082377,-10112.460574
844.773641,2146.597232,370.102971,-10725.336972
844.773961,1258.350101,592.164754,-9499.584175
844.774281,-518.144159,666.185348,-10035.851024
844.774601,-888.247130,814.226536,-10035.851024
844.774921,0.000000,148.041188,-10265.679673
844.775241,74.020594,370.102971,-10495.508323
844.775561,296.082377,148.041188,-10035.851024
844.775881,888.247130,1036.288319,-10418.898773
844.776201,1258.350101,1406.391290,-10035.851024
844.776521,1258.350101,1332.370696,-10189.070123
844.776841,518.144159,888.247130,-9806.022374
844.777161,1850.514855,148.041188,-10035.851024
844.777481,1850.514855,666.185348,-10189.070123
844.777801,666.185348,1776.494261,-9652.803275
844.778121,0.000000,1480.411884,-9806.022374
844.778441,0.000000,1924.535449,-9806.022374
844.778761,370.102971,1184.329507,-9806.022374
844.779081,962.267725,888.247130,-9499.584175
844.779401,1480.411884,222.061783,-9499.584175
844.779721,1480.411884,-518.144159,-9576.193725
844.780041,1850.514855,-296.082377,-9576.193725
844.780361,1702.473667,592.164754,-9422.974625
844.780681,888.247130,1554.432478,-9652.803275
844.781001,-222.061783,2294.638420,-10112.460574
844.781321,-962.267725,1924.535449,-9422.974625
844.781641,962.267725,740.205942,-9806.022374
844.781961,1332.370696,-222.061783,-9959.241474
844.782281,148.041188,-444.123565,-9729.412825
844.782601,74.020594,148.041188,-9729.412825
844.782921,814.226536,1554.432478,-10342.289223
844.783241,444.123565,2516.700203,-10112.460574
844.783561,-1184.329507,2442.679609,-10265.679673
844.783881,-592.164754,962.267725,-10418.898773
844.784201,1406.391290,-1184.329507,-10878.556072
844.784521,1628.453072,-1850.514855,-10112.460574
844.784841,1184.329507,-740.205942,-10648.727422
844.785161,0.000000,1480.411884,-10801.946522
844.785481,-444.123565,3182.885551,-11491.432470
844.785801,-592.164754,2442.679609,-10725.336972
844.786121,888.247130,592.164754,-10648.727422
844.786441,1184.329507,-1406.391290,-10495.508323
844.786761,74.020594,-2146.597232,-10342.289223
844.787081,-444.123565,-1628.453072,-9806.022374
844.787401,0.000000,-222.061783,-10265.679673
844.787721,0.000000,888.247130,-10189.070123
844.788041,-666.185348,888.247130,-9729.412825
844.788361,518.144159,-666.185348,-9499.584175
844.788681,1332.370696,0.000000,-9806.022374
844.789001,1850.514855,-296.082377,-10189.070123
844.789321,1554.432478,-888.247130,-9499.584175
844.789641,1332.370696,-1332.370696,-9576.193725
844.789961,1110.308913,-1480.411884,-9499.584175
844.790281,0.000000,-1110.308913,-9806.022374
844.790601,0.000000,-1258.350101,-9346.365076
844.790921,740.205942,-666.185348,-9959.241474
844.791241,888.247130,74.020594,-9882.631924
844.791561,1406.391290,814.226536,-9882.631924
844.791881,1924.535449,0.000000,-10112.460574
844.792201,740.205942,-518.144159,-9652.803275
844.792521,-666.185348,-962.267725,-9806.022374
844.792841,-296.082377,-1036.288319,-9576.193725
844.793161,1036.288319,-1258.350101,-10342.289223
844.793481,1776.494261,-1110.308913,-10342.289223
844.793801,1406.391290,-814.226536,-10495.508323
844.794121,592.164754,-444.123565,-10648.727422
844.794441,296.082377,1036.288319,-11031.775171
844.794761,-370.102971,1406.391290,-10725.336972
844.795081,-814.226536,814.226536,-10648.727422
844.795401,-962.267725,666.185348,-10725.336972
844.795721,-1332.370696,-1036.288319,-10572.117872
844.796041,-1702.473667,-1184.329507,-10265.679673
844.796361,-666.185348,-740.205942,-10035.851024
844.796681,-592.164754,740.205942,-10265.679673
844.797001,-1110.308913,1998.556043,-10112.460574
844.797321,-1702.473667,1702.473667,-10112.460574
844.797641,74.020594,370.102971,-10265.679673
844.797961,2220.617826,-444.123565,-9806.022374
844.798281,1480.411884,74.020594,-8503.660028
844.798601,1924.535449,666.185348,-10112.460574
844.798921,2072.576638,1332.370696,-9806.022374
844.799241,592.164754,1628.453072,-9806.022374
844.799561,-518.144159,1110.308913,-9729.412825
844.799881,-1258.350101,1184.329507,-9576.193725
844.800201,-666.185348,666.185348,-10112.460574
844.800521,444.123565,814.226536,-9806.022374
844.800841,1036.288319,666.185348,-10189.070123
844.801161,1258.350101,1628.453072,-10495.508323
844.801481,0.000000,888.247130,-10035.851024
844.801801,0.000000,1258.350101,-9882.631924
844.802121,1036.288319,1110.308913,-10342.289223
844.802441,2072.576638,666.185348,-10112.460574
844.802761,2220.617826,1036.288319,-10725.336972
844.803081,2146.597232,1184.329507,-10495.508323
844.803401,2368.659014,1702.473667,-10495.508323
844.803721,2368.659014,2516.700203,-10572.117872
844.804041,1110.308913,2590.720797,-10342.289223
844.804361,592.164754,1554.432478,-10418.898773
844.804681,1406.391290,1258.350101,-10725.336972
844.805001,2294.638420,296.082377,-10418.898773
844.805321,1998.556043,592.164754,-10418.898773
844.805641,888.247130,1110.308913,-10801.946522
844.805961,-444.123565,2368.659014,-9959.241474
844.806281,-1924.535449,1554.432478,-9806.022374
844.806601,-370.102971,666.185348,-9576.193725
844.806921,1628.453072,-296.082377,-9882.631924
844.807241,1776.494261,-1702.473667,-10495.508323
844.807561,1110.308913,-444.123565,-9499.584175
844.807881,666.185348,1110.308913,-10035.851024
844.808201,222.061783,2516.700203,-10112.460574
844.808521,-592.164754,2516.700203,-9652.803275
844.808841,-1258.350101,-888.247130,-9806.022374
844.809161,148.041188,-1554.432478,-9729.412825
844.809481,1184.329507,-1480.411884,-9806.022374
844.809801,1406.391290,0.000000,-9576.193725
844.810121,1554.432478,-148.041188,-10035.851024
844.810441,-518.144159,1406.391290,-10265.679673
844.810761,-2960.823768,1776.494261,-10189.070123
844.811081,-3404.947333,2146.597232,-11184.994271
844.811401,888.247130,-1850.514855,-10112.460574
844.811721,2812.782580,-2664.741391,-10418.898773
844.812041,1702.473667,-2146.597232,-10342.289223
844.812361,370.102971,-1480.411884,-10725.336972
844.812681,-740.205942,1776.494261,-11721.261119
844.813001,-1184.329507,2294.638420,-10725.336972
844.813321,0.000000,2738.761985,-10572.117872
844.813641,296.082377,1998.556043,-10878.556072
844.813961,1628.453072,-1258.350101,-10572.117872
844.814281,1036.288319,-3552.988522,-9959.241474
844.814601,1332.370696,-3701.029710,-10112.460574
844.814921,814.226536,-1258.350101,-10189.070123
844.815241,-370.102971,0.000000,-9576.193725
844.815561,1480.411884,962.267725,-10035.851024
844.815881,-518.144159,370.102971,-9959.241474
844.816201,0.000000,-518.144159,-10725.336972
844.816521,-888.247130,-1480.411884,-10035.851024
844.816841,888.247130,-1036.288319,-10265.679673
844.817161,1036.288319,-444.123565,-9806.022374
844.817481,296.082377,0.000000,-9882.631924
844.817801,-740.205942,-296.082377,-9576.193725
844.818121,-518.144159,-1258.350101,-9806.022374
844.818441,1850.514855,-740.205942,-10035.851024
844.818761,74.020594,-3404.947333,-9346.365076
844.819081,1184.329507,-740.205942,-9806.022374
844.819401,-666.185348,-740.205942,-9193.145976
844.819721,-148.041188,1998.556043,-9959.241474
844.820041,-518.144159,2368.659014,-9806.022374
844.820361,370.102971,0.000000,-10112.460574
844.820681,1110.308913,-814.226536,-9806.022374
844.821001,1776.494261,-444.123565,-10189.070123
844.821321,2146.597232,-592.164754,-9806.022374
844.821641,1628.453072,-296.082377,-10265.679673
844.821961,592.164754,962.267725,-10342.289223
844.822281,-1924.535449,518.144159,-10035.851024
844.822601,-1480.411884,370.102971,-10189.070123
844.822921,-666.185348,1036.288319,-10725.336972
844.823241,296.082377,888.247130,-10265.679673
844.823560,1110.308913,1702.473667,-10572.117872
844.823880,1332.370696,1776.494261,-10189.070123
844.824200,1850.514855,2664.741391,-10265.679673
844.824520,-222.061783,2812.782580,-10495.508323
844.824840,148.041188,2368.659014,-10189.070123
844.825160,2590.720797,962.267725,-10189.070123
844.825480,2886.803174,-444.123565,-9652.803275
844.825800,1998.556043,888.247130,-10189.070123
844.826120,1554.432478,0.000000,-10112.460574
844.826440,1036.288319,1332.370696,-10035.851024
844.826760,-518.144159,3404.947333,-9806.022374
844.827080,-666.185348,3034.844362,-9806.022374
844.827400,1036.288319,1406.391290,-9422.974625
844.827720,2590.720797,-444.123565,-9882.631924
844.828040,2516.700203,-370.102971,-9499.584175
844.828360,1776.494261,-444.123565,-9806.022374
844.828680,1110.308913,148.041188,-9576.193725
844.829000,1110.308913,740.205942,-9269.755526
844.829320,592.164754,962.267725,-9039.926876
844.829640,-444.123565,-296.082377,-9652.803275
844.829960,1110.308913,-592.164754,-9729.412825
844.830280,888.247130,-740.205942,-9882.631924
844.830600,962.267725,-444.123565,-10189.070123
844.830920,518.144159,1480.411884,-10035.851024
844.831240,-1258.350101,2516.700203,-10265.679673
844.831560,-592.164754,2072.576638,-10035.851024
844.831880,518.144159,370.102971,-10725.336972
844.832200,1184.329507,-1110.308913,-10648.727422
844.832520,2220.617826,-1776.494261,-9652.803275
844.832840,1702.473667,-1258.350101,-10342.289223
844.833160,-148.041188,74.020594,-10801.946522
844.833480,-2294.638420,518.144159,-10035.851024
844.833800,-2220.617826,1110.308913,-10648.727422
844.834120,-740.205942,444.123565,-10648.727422
844.834440,1110.308913,-1110.308913,-10495.508323
844.834760,296.082377,-1480.411884,-10342.289223
844.835080,222.061783,-1258.350101,-10572.117872
844.835400,888.247130,666.185348,-10955.165621
844.835720,888.247130,370.102971,-10189.070123
844.836040,370.102971,518.144159,-9806.022374
844.836360,0.000000,-740.205942,-10265.679673
844.836680,740.205942,-1702.473667,-10035.851024
844.837000,666.185348,-2294.638420,-9882.631924
844.837320,666.185348,-1406.391290,-10035.851024
844.837640,888.247130,-222.061783,-10342.289223
844.837960,-222.061783,296.082377,-9882.631924
844.838280,-1628.453072,1332.370696,-9269.755526
844.838600,-1036.288319,370.102971,-10035.851024
844.838920,888.247130,-592.164754,-9882.631924
844.839240,592.164754,-2146.597232,-9806.022374
844.839560,2886.803174,-3108.864956,-9576.193725
844.839880,3775.050304,-1702.473667,-10189.070123
844.840200,2368.659014,74.020594,-9882.631924
844.840520,-444.123565,888.247130,-9729.412825
844.840840,-1776.494261,1702.473667,-9959.241474
844.841160,222.061783,1036.288319,-10035.851024
844.841480,1480.411884,-814.226536,-10189.070123
844.841800,1184.329507,-1628.453072,-9806.022374
844.842120,592.164754,-1110.308913,-10189.070123
844.842440,-888.247130,0.000000,-10035.851024
844.842760,-1628.453072,1480.411884,-10495.508323
844.843080,-1184.329507,1628.453072,-10265.679673
844.843400,0.000000,666.185348,-10189.070123
844.843720,740.205942,222.061783,-10342.289223
844.844040,740.205942,740.205942,-10955.165621
844.844360,222.061783,444.123565,-10648.727422
844.844680,0.000000,1332.370696,-10265.679673
844.845000,-666.185348,2146.597232,-10189.070123
844.845320,-666.185348,2368.659014,-9959.241474
844.845640,740.205942,592.164754,-10265.679673
844.845960,888.247130,592.164754,-10265.679673
844.846280,592.164754,370.102971,-10418.898773
844.846600,-222.061783,1258.350101,-11338.213370
844.846920,-1184.329507,1998.556043,-10035.851024
844.847240,-1332.370696,1776.494261,-9882.631924
844.847560,-2294.638420,1924.535449,-9959.241474
844.847880,-740.205942,74.020594,-9959.241474
844.848200,666.185348,-814.226536,-10572.117872
844.848520,2368.659014,0.000000,-10342.289223
844.848840,3849.070898,1110.308913,-10035.851024
844.849160,3404.947333,2590.720797,-10112.460574
844.849480,1998.556043,3775.050304,-9882.631924
844.849800,518.144159,3627.009116,-9729.412825
844.850120,814.226536,1776.494261,-10035.851024
844.850440,1776.494261,-888.247130,-9576.193725
844.850760,2072.576638,-1850.514855,-9882.631924
844.851080,2146.597232,-1924.535449,-9652.803275
844.851400,2516.700203,666.185348,-9959.241474
844.851720,1554.432478,2442.679609,-9806.022374
844.852040,444.123565,3849.070898,-10112.460574
844.852360,666.185348,3775.050304,-10112.460574
844.852680,592.164754,1554.432478,-10265.679673
844.853000,888.247130,-962.267725,-10035.851024
844.853320,518.144159,-1332.370696,-10112.460574
844.853640,814.226536,-1406.391290,-9882.631924
844.853960,1924.535449,-74.020594,-10035.851024
844.854280,888.247130,1110.308913,-9959.241474
844.854600,-148.041188,1036.288319,-10418.898773
844.854920,296.082377,1184.329507,-10189.070123
844.855240,814.226536,740.205942,-9882.631924
844.855560,1850.514855,-148.041188,-10035.851024
844.855880,2590.720797,0.000000,-10342.289223
844.856201,888.247130,-888.247130,-10189.070123
844.856521,-222.061783,-296.082377,-10112.460574
844.856841,-370.102971,-592.164754,-10418.898773
844.857161,1332.370696,-1258.350101,-9959.241474
844.857481,222.061783,-962.267725,-10342.289223
844.857801,-888.247130,-814.226536,-10112.460574
844.858121,-1184.329507,-518.144159,-10189.070123
844.858441,-2294.638420,296.082377,-10112.460574
844.858761,-2664.741391,666.185348,-10265.679673
844.859081,-1850.514855,-592.164754,-9806.022374
844.859401,962.267725,-1850.514855,-9959.241474
844.859721,2664.741391,-3034.844362,-10035.851024
844.860041,2590.720797,-2368.659014,-9729.412825
844.860361,2368.659014,-296.082377,-10342.289223
844.860681,1184.329507,888.247130,-10035.851024
844.861001,-444.123565,1480.411884,-9652.803275
844.861321,-1702.473667,74.020594,-10112.460574
844.861641,-962.267725,-1184.329507,-9652.803275
844.861962,-592.164754,-2664.741391,-9729.412825
844.862282,0.000000,-2368.659014,-10342.289223
844.862602,296.082377,-1628.453072,-10112.460574
844.862922,-370.102971,-370.102971,-10189.070123
844.863242,-1850.514855,1332.370696,-9959.241474
844.863562,-2738.761985,1924.535449,-10572.117872
844.863882,-1406.391290,2294.638420,-10878.556072
844.864202,-148.041188,444.123565,-10265.679673
844.864522,1776.494261,-370.102971,-10418.898773
844.864842,2516.700203,-740.205942,-10801.946522
844.865162,2368.659014,0.000000,-10955.165621
844.865482,962.267725,962.267725,-10418.898773
844.865802,-296.082377,1702.473667,-10572.117872
844.866122,148.041188,2294.638420,-10418.898773
844.866442,-222.061783,1332.370696,-10189.070123
844.866762,-592.164754,296.082377,-10112.460574
844.867082,814.226536,-370.102971,-10189.070123
844.867403,1406.391290,-148.041188,-10418.898773
844.867723,222.061783,592.164754,-9959.241474
844.868043,-222.061783,1406.391290,-10265.679673
844.868363,0.000000,1406.391290,-9806.022374
844.868683,1480.411884,1480.411884,-9959.241474
844.869003,1628.453072,1480.411884,-9882.631924
844.869323,1258.350101,1776.494261,-10112.460574
844.869643,1036.288319,2664.741391,-9882.631924
844.869963,814.226536,1406.391290,-10112.460574
844.870283,518.144159,888.247130,-9499.584175
844.870603,592.164754,-296.082377,-9576.193725
844.870923,1184.329507,0.000000,-9576.193725
844.871243,1110.308913,888.247130,-9346.365076
844.871563,3404.947333,2368.659014,-9959.241474
844.871883,3404.947333,3108.864956,-10265.679673
844.872203,1776.494261,2368.659014,-9882.631924
844.872523,370.102971,1628.453072,-9576.193725
844.872844,740.205942,518.144159,-9806.022374
844.873164,1258.350101,666.185348,-9806.022374
844.873484,1036.288319,1406.391290,-10035.851024
844.873804,1702.473667,2146.597232,-10342.289223
844.874124,1924.535449,2294.638420,-10265.679673
844.874444,1332.370696,2220.617826,-10112.460574
844.874764,-148.041188,1702.473667,-9806.022374
844.875084,-444.123565,888.247130,-10035.851024
844.875404,1332.370696,74.020594,-10495.508323
844.875724,1702.473667,-592.164754,-10189.070123
844.876044,2146.597232,148.041188,-10265.679673
844.876364,962.267725,740.205942,-10189.070123
844.876684,0.000000,1554.432478,-8886.707777
844.877004,-1110.308913,1332.370696,-9806.022374
844.877324,740.205942,148.041188,-10035.851024
844.877644,1480.411884,-888.247130,-9959.241474
844.877964,1110.308913,-2072.576638,-9806.022374
844.878285,74.020594,-2294.638420,-9882.631924
844.878605,222.061783,-1184.329507,-10112.460574
844.878925,-148.041188,518.144159,-10035.851024
844.879245,-1036.288319,888.247130,-10342.289223
844.879565,-814.226536,1110.308913,-10035.851024
844.879885,-296.082377,-888.247130,-10495.508323
844.880205,-592.164754,-1702.473667,-10112.460574
844.880525,-148.041188,-1628.453072,-10035.851024
844.880845,962.267725,-1110.308913,-10801.946522
844.881165,1332.370696,-518.144159,-10189.070123
844.881485,-444.123565,296.082377,-9959.241474
844.881805,-1628.453072,444.123565,-10418.898773
844.882125,-962.267725,-740.205942,-10418.898773
844.882445,0.000000,-1850.514855,-10572.117872
844.882765,0.000000,-2368.659014,-10035.851024
844.883085,0.000000,-2220.617826,-10112.460574
844.883405,0.000000,-1258.350101,-10572.117872
844.883726,-148.041188,-518.144159,-9806.022374
844.884046,-518.144159,-148.041188,-10189.070123
844.884366,148.041188,0.000000,-10342.289223
844.884686,1258.350101,-1332.370696,-10342.289223
844.885006,740.205942,-2738.761985,-9806.022374
844.885326,814.226536,-2664.741391,-10035.851024
844.885646,222.061783,-2294.638420,-9882.631924
844.885966,-592.164754,-1258.350101,-9806.022374
844.886286,-1406.391290,-814.226536,-9959.241474
844.886606,-1258.350101,0.000000,-10342.289223
844.886926,0.000000,-370.102971,-10495.508323
844.887246,444.123565,-1036.288319,-10572.117872
844.887566,0.000000,-518.144159,-10035.851024
844.887886,-962.267725,370.102971,-9959.241474
844.888206,-444.123565,1036.288319,-10112.460574
844.888526,-444.123565,740.205942,-10189.070123
844.888846,1184.329507,-740.205942,-10112.460574
844.889167,888.247130,-962.267725,-9959.241474
844.889487,222.061783,0.000000,-10035.851024
844.889807,888.247130,1184.329507,-10265.679673
