#time,accel_x,accel_y,accel_z
810.400332,-3330.926739,-4811.338623,-9269.755526
810.400652,-4071.132681,-4737.318029,-9806.022374
810.400972,-4441.235652,-3849.070898,-9193.145976
810.401292,-3256.906145,-3034.844362,-9652.803275
810.401612,-592.164754,-1776.494261,-9422.974625
810.401933,740.205942,-370.102971,-10112.460574
810.402253,2368.659014,518.144159,-10265.679673
810.402573,2812.782580,814.226536,-10648.727422
810.402893,1850.514855,1406.391290,-10418.898773
810.403213,0.000000,370.102971,-10495.508323
810.403533,-1480.411884,0.000000,-10495.508323
810.403854,-1924.535449,-666.185348,-10189.070123
810.404174,-1332.370696,-1110.308913,-10265.679673
810.404494,-888.247130,-1924.535449,-10189.070123
810.404814,-592.164754,-1998.556043,-10035.851024
810.405134,-518.144159,-1184.329507,-10035.851024
810.405454,-518.144159,0.000000,-10035.851024
810.405775,-296.082377,1850.514855,-10189.070123
810.406095,1110.308913,1776.494261,-10572.117872
810.406415,1554.432478,1332.370696,-10265.679673
810.406735,814.226536,148.041188,-10189.070123
810.407055,-296.082377,-1554.432478,-9806.022374
810.407375,-1332.370696,-2738.761985,-9422.974625
810.407695,-2294.638420,-3256.906145,-9806.022374
810.408016,-2516.700203,-2812.782580,-9652.803275
810.408336,-2886.803174,-2368.659014,-9576.193725
810.408656,-2664.741391,-2146.597232,-8503.660028
810.408976,-1998.556043,-2220.617826,-9422.974625
810.409296,-1406.391290,-1998.556043,-9806.022374
810.409616,-962.267725,-1406.391290,-9806.022374
810.409937,-1628.453072,-1406.391290,-9806.022374
810.410257,-1998.556043,-1332.370696,-9576.193725
810.410577,-2146.597232,-1184.329507,-9959.241474
810.410897,-1924.535449,-1628.453072,-10189.070123
810.411217,-2146.597232,-1776.494261,-9959.241474
810.411537,-2368.659014,-2368.659014,-9652.803275
810.411858,-3775.050304,-3034.844362,-10112.460574
810.412178,-3923.091493,-3034.844362,-9959.241474
810.412498,-4071.132681,-3478.967927,-10189.070123
810.412818,-4293.194464,-2590.720797,-9806.022374
810.413138,-4219.173869,-3330.926739,-9806.022374
810.413458,-3997.112087,-3627.009116,-9652.803275
810.413779,-2146.597232,-4663.297435,-9959.241474
810.414099,-370.102971,-4589.276840,-10035.851024
810.414419,1036.288319,-3330.926739,-10112.460574
810.414739,592.164754,-1628.453072,-10572.117872
810.415059,-370.102971,-148.041188,-10725.336972
810.415379,-814.226536,74.020594,-10495.508323
810.415700,-962.267725,-666.185348,-10265.679673
810.416020,-962.267725,-2368.659014,-10342.289223
810.416340,-1258.350101,-4367.215058,-10801.946522
810.416660,-1924.535449,-5403.503377,-10265.679673
810.416980,-2886.803174,-5255.462188,-10265.679673
810.417300,-3701.029710,-4515.256246,-9116.536426
810.417621,-2886.803174,-4145.153275,-9499.584175
810.417941,-518.144159,-3849.070898,-10035.851024
810.418261,1480.411884,-3256.906145,-10342.289223
810.418581,2590.720797,-2960.823768,-9499.584175
810.418901,2442.679609,-1258.350101,-10572.117872
810.419221,2664.741391,222.061783,-10342.289223
810.419541,2960.823768,666.185348,-10572.117872
810.419862,1184.329507,518.144159,-10495.508323
810.420182,-2146.597232,-444.123565,-10035.851024
810.420502,-5551.544565,-2664.741391,-9882.631924
810.420822,-5773.606348,-4885.359217,-9652.803275
810.421142,-3701.029710,-6217.729913,-9576.193725
810.421462,-1332.370696,-6661.853478,-9346.365076
810.421783,-1332.370696,-5699.585753,-9499.584175
810.422103,-592.164754,-3108.864956,-9806.022374
810.422423,814.226536,296.082377,-10265.679673
810.422743,1850.514855,3330.926739,-10418.898773
810.423063,1924.535449,3849.070898,-10878.556072
810.423383,1998.556043,2220.617826,-10342.289223
810.423704,1406.391290,-1184.329507,-10418.898773
810.424024,74.020594,-3034.844362,-10112.460574
810.424344,-2368.659014,-3552.988522,-9652.803275
810.424664,-4367.215058,-3034.844362,-9806.022374
810.424984,-5699.585753,-2590.720797,-9729.412825
810.425304,-6809.894666,-1924.535449,-9882.631924
810.425625,-5699.585753,0.000000,-8963.317327
810.425945,-3404.947333,-2590.720797,-10418.898773
810.426265,-2220.617826,-4959.379811,-9269.755526
810.426585,814.226536,-3330.926739,-9729.412825
810.426905,1628.453072,-444.123565,-10265.679673
810.427225,2294.638420,2812.782580,-10648.727422
810.427546,1628.453072,4441.235652,-10265.679673
810.427866,0.000000,4219.173869,-10878.556072
810.428186,-296.082377,1702.473667,-10418.898773
810.428506,-1406.391290,-1924.535449,-10189.070123
810.428826,-3182.885551,-4589.276840,-9882.631924
810.429146,-5403.503377,-4367.215058,-9652.803275
810.429466,-7105.977043,-4367.215058,-9193.145976
810.429787,-6143.709319,-3701.029710,-9346.365076
810.430107,-3108.864956,-2960.823768,-9422.974625
810.430427,0.000000,-2442.679609,-10112.460574
810.430747,2146.597232,-296.082377,-10801.946522
810.431067,1998.556043,1480.411884,-10418.898773
810.431387,2368.659014,2812.782580,-10878.556072
810.431708,1776.494261,3923.091493,-10955.165621
810.432028,2220.617826,3552.988522,-10495.508323
810.432348,666.185348,1332.370696,-11031.775171
810.432668,-2294.638420,-888.247130,-10418.898773
810.432988,-5995.668130,-2590.720797,-9882.631924
810.433308,-6069.688724,-4589.276840,-9882.631924
810.433628,-3552.988522,-5847.626942,-9346.365076
810.433948,-2368.659014,-6291.750507,-9729.412825
810.434269,-2590.720797,-4811.338623,-8810.098227
810.434589,-1554.432478,-2294.638420,-9499.584175
810.434909,1776.494261,666.185348,-10035.851024
810.435229,4293.194464,3182.885551,-9959.241474
810.435549,5403.503377,3256.906145,-10955.165621
810.435869,4145.153275,2368.659014,-11031.775171
810.436189,148.041188,0.000000,-10342.289223
810.436509,-3256.906145,-1554.432478,-9729.412825
810.436830,-4145.153275,-2590.720797,-9806.022374
810.437150,-2886.803174,-4441.235652,-9422.974625
810.437470,-2294.638420,-6143.709319,-9652.803275
810.437790,-4145.153275,-6883.915261,-9116.536426
810.438110,-3404.947333,-7105.977043,-8656.879127
810.438430,518.144159,-3552.988522,-9882.631924
810.438750,3552.988522,370.102971,-9959.241474
810.439071,2886.803174,3404.947333,-11261.603821
810.439391,296.082377,4071.132681,-9882.631924
810.439711,518.144159,1628.453072,-10955.165621
810.440031,4071.132681,0.000000,-9269.755526
810.440351,3478.967927,-666.185348,-11031.775171
810.440671,-1110.308913,-2072.576638,-10878.556072
810.440991,-4737.318029,-3775.050304,-9882.631924
810.441311,-4515.256246,-3627.009116,-9729.412825
810.441632,-1554.432478,-2664.741391,-9882.631924
810.441952,-296.082377,-814.226536,-10801.946522
810.442272,-370.102971,-1480.411884,-10342.289223
810.442592,740.205942,-1406.391290,-10035.851024
810.442912,4367.215058,444.123565,-11031.775171
810.443232,6587.832884,1850.514855,-11338.213370
810.443552,5995.668130,1628.453072,-11184.994271
810.443872,2664.741391,1924.535449,-10801.946522
810.444193,592.164754,2960.823768,-9729.412825
810.444513,1110.308913,3478.967927,-10878.556072
810.444833,592.164754,3182.885551,-10572.117872
810.445153,-1998.556043,0.000000,-10648.727422
810.445473,-4219.173869,-3552.988522,-8503.660028
810.445793,-4441.235652,-6957.935855,-8886.707777
810.446113,-814.226536,-6365.771101,-8580.269578
810.446433,814.226536,-3182.885551,-9269.755526
810.446754,2294.638420,592.164754,-9882.631924
810.447074,3923.091493,3997.112087,-9576.193725
810.447394,4811.338623,5181.441594,-10648.727422
810.447714,4885.359217,4811.338623,-9806.022374
810.448034,2960.823768,3701.029710,-10878.556072
810.448354,2960.823768,2220.617826,-9806.022374
810.448674,1184.329507,-666.185348,-9959.241474
810.448994,-740.205942,-3182.885551,-9422.974625
810.449315,-4959.379811,-2812.782580,-8963.317327
810.449635,-6365.771101,-2516.700203,-8810.098227
810.449955,-4219.173869,-666.185348,-7814.174080
810.450275,-1480.411884,666.185348,-9806.022374
810.450595,518.144159,1702.473667,-9729.412825
810.450915,518.144159,1184.329507,-10342.289223
810.451235,3330.926739,1184.329507,-9576.193725
810.451555,5477.523971,1184.329507,-10878.556072
810.451876,5181.441594,1702.473667,-10725.336972
810.452196,1480.411884,3034.844362,-10648.727422
810.452516,-592.164754,3182.885551,-10648.727422
810.452836,-814.226536,3849.070898,-11031.775171
810.453156,-1036.288319,1554.432478,-10801.946522
810.453476,-3256.906145,888.247130,-10495.508323
810.453796,-4367.215058,-1628.453072,-10112.460574
810.454116,-2368.659014,-2368.659014,-10878.556072
810.454437,518.144159,-2590.720797,-10265.679673
810.454757,1628.453072,-1480.411884,-10189.070123
810.455077,148.041188,1036.288319,-10189.070123
810.455397,888.247130,1258.350101,-10035.851024
810.455717,3923.091493,2960.823768,-10495.508323
810.456037,3701.029710,4071.132681,-10878.556072
810.456357,1628.453072,3701.029710,-10418.898773
810.456677,1628.453072,740.205942,-10112.460574
810.456998,2072.576638,148.041188,-9039.926876
810.457318,1332.370696,-2072.576638,-9576.193725
810.457638,-666.185348,-3256.906145,-9269.755526
810.457958,-1924.535449,-2442.679609,-9499.584175
810.458278,-370.102971,-1850.514855,-8810.098227
810.458598,1258.350101,-888.247130,-9806.022374
810.458918,1332.370696,74.020594,-10265.679673
810.459238,-370.102971,1850.514855,-10112.460574
810.459559,0.000000,1554.432478,-10265.679673
810.459879,2738.761985,1480.411884,-9806.022374
810.460199,4663.297435,1110.308913,-10572.117872
810.460519,2442.679609,296.082377,-10189.070123
810.460839,-222.061783,-814.226536,-10418.898773
810.461159,-814.226536,-666.185348,-10189.070123
810.461479,-1258.350101,-1110.308913,-10725.336972
810.461799,-592.164754,-1036.288319,-10342.289223
810.462120,-2664.741391,-1480.411884,-10495.508323
810.462440,-2146.597232,-1924.535449,-10189.070123
810.462760,0.000000,-1406.391290,-11261.603821
810.463080,2368.659014,-1850.514855,-11184.994271
810.463400,1406.391290,-592.164754,-10189.070123
810.463720,0.000000,0.000000,-10495.508323
810.464040,444.123565,1406.391290,-10112.460574
810.464360,2072.576638,1628.453072,-11491.432470
810.464681,814.226536,1258.350101,-10955.165621
810.465001,-1036.288319,296.082377,-10189.070123
810.465321,-1628.453072,-1036.288319,-9882.631924
810.465641,-666.185348,-2294.638420,-9806.022374
810.465961,-962.267725,-3552.988522,-9959.241474
810.466281,-1776.494261,-3108.864956,-9346.365076
810.466601,-1702.473667,-2960.823768,-9346.365076
810.466921,740.205942,-592.164754,-9193.145976
810.467242,1776.494261,74.020594,-10725.336972
810.467562,814.226536,1480.411884,-10035.851024
810.467882,148.041188,814.226536,-9959.241474
810.468202,592.164754,148.041188,-9806.022374
810.468522,3034.844362,-148.041188,-9882.631924
810.468842,1924.535449,666.185348,-10572.117872
810.469162,-296.082377,1332.370696,-10035.851024
810.469483,-1776.494261,-814.226536,-10189.070123
810.469803,-518.144159,-592.164754,-9499.584175
810.470123,-370.102971,0.000000,-10418.898773
810.470443,-888.247130,518.144159,-10495.508323
810.470763,-592.164754,518.144159,-9806.022374
810.471083,1036.288319,1776.494261,-10801.946522
810.471403,1184.329507,2442.679609,-10495.508323
810.471723,1924.535449,2590.720797,-10572.117872
810.472044,1036.288319,1998.556043,-10265.679673
810.472364,2664.741391,888.247130,-10572.117872
810.472684,3478.967927,1184.329507,-10189.070123
810.473004,2368.659014,1776.494261,-11108.384721
810.473324,-444.123565,2812.782580,-10418.898773
810.473644,-1628.453072,962.267725,-10495.508323
810.473964,296.082377,370.102971,-9806.022374
810.474284,814.226536,-666.185348,-10189.070123
810.474605,0.000000,-1036.288319,-9806.022374
810.474925,-222.061783,-444.123565,-10035.851024
810.475245,1776.494261,296.082377,-9806.022374
810.475565,3034.844362,1850.514855,-9806.022374
810.475885,1850.514855,1998.556043,-10342.289223
810.476205,0.000000,2368.659014,-9959.241474
810.476525,222.061783,1924.535449,-9959.241474
810.476845,1554.432478,2516.700203,-10265.679673
810.477166,1924.535449,222.061783,-9806.022374
810.477486,518.144159,-1184.329507,-9652.803275
810.477806,-666.185348,-2886.803174,-8963.317327
810.478126,-518.144159,-3108.864956,-8810.098227
810.478446,0.000000,-740.205942,-9193.145976
810.478766,-666.185348,518.144159,-9576.193725
810.479086,-888.247130,2146.597232,-9729.412825
810.479406,-666.185348,1480.411884,-9806.022374
810.479727,740.205942,888.247130,-9269.755526
810.480047,2146.597232,-444.123565,-9806.022374
810.480367,2294.638420,-814.226536,-9959.241474
810.480687,1554.432478,-370.102971,-10112.460574
810.481007,1850.514855,0.000000,-10035.851024
810.481327,1110.308913,-1480.411884,-10572.117872
810.481647,-370.102971,74.020594,-9959.241474
810.481967,-3182.885551,1036.288319,-10648.727422
810.482288,-2664.741391,962.267725,-10189.070123
810.482608,148.041188,-370.102971,-9882.631924
810.482928,1480.411884,-518.144159,-10648.727422
810.483248,1628.453072,-592.164754,-9959.241474
810.483568,740.205942,-1406.391290,-10572.117872
810.483888,2072.576638,-666.185348,-9882.631924
810.484208,2886.803174,-296.082377,-10801.946522
810.484528,1258.350101,1406.391290,-10418.898773
810.484849,-1184.329507,2368.659014,-10725.336972
810.485169,-518.144159,2442.679609,-10495.508323
810.485489,592.164754,888.247130,-8963.317327
810.485809,1406.391290,-1702.473667,-10265.679673
810.486129,370.102971,-3034.844362,-9652.803275
810.486449,1036.288319,-3182.885551,-9882.631924
810.486769,962.267725,-1258.350101,-9806.022374
810.487089,444.123565,-1184.329507,-9499.584175
810.487410,-962.267725,222.061783,-9652.803275
810.487730,-2738.761985,296.082377,-9882.631924
810.488050,0.000000,1184.329507,-9576.193725
810.488370,2590.720797,2072.576638,-10112.460574
810.488690,2886.803174,444.123565,-10265.679673
810.489010,1480.411884,-296.082377,-10189.070123
810.489330,444.123565,-1332.370696,-9576.193725
810.489650,148.041188,-814.226536,-9729.412825
810.489971,740.205942,-296.082377,-9882.631924
810.490291,-222.061783,-222.061783,-9882.631924
810.490611,-1850.514855,-148.041188,-9882.631924
810.490931,-518.144159,-370.102971,-9729.412825
810.491251,740.205942,0.000000,-10189.070123
810.491571,1406.391290,370.102971,-9959.241474
810.491891,296.082377,0.000000,-10418.898773
810.492211,1480.411884,666.185348,-9806.022374
810.492532,888.247130,1850.514855,-10418.898773
810.492852,-148.041188,2220.617826,-11031.775171
810.493172,-2368.659014,1850.514855,-10112.460574
810.493492,-2960.823768,0.000000,-10265.679673
810.493812,-666.185348,-1036.288319,-9806.022374
810.494132,888.247130,-1480.411884,-10418.898773
810.494452,814.226536,0.000000,-10342.289223
810.494772,-296.082377,-296.082377,-10418.898773
810.495093,592.164754,1184.329507,-10342.289223
810.495413,1332.370696,2146.597232,-10342.289223
810.495733,1036.288319,1406.391290,-10572.117872
810.496053,-444.123565,1776.494261,-10035.851024
810.496373,0.000000,1332.370696,-10112.460574
810.496693,2072.576638,592.164754,-9729.412825
810.497013,2220.617826,370.102971,-9882.631924
810.497334,1406.391290,888.247130,-9882.631924
810.497654,-518.144159,0.000000,-9576.193725
810.497974,370.102971,666.185348,-9269.755526
810.498294,518.144159,518.144159,-9806.022374
810.498614,592.164754,1258.350101,-9576.193725
810.498934,-370.102971,740.205942,-9499.584175
810.499254,296.082377,370.102971,-9499.584175
810.499574,1998.556043,370.102971,-9422.974625
810.499895,2590.720797,222.061783,-9959.241474
810.500215,1998.556043,1628.453072,-9806.022374
810.500535,2590.720797,1850.514855,-10342.289223
810.500855,3330.926739,2442.679609,-10035.851024
810.501175,2812.782580,2294.638420,-12104.308868
810.501495,1406.391290,2442.679609,-10189.070123
810.501815,-740.205942,1036.288319,-10495.508323
810.502135,-370.102971,666.185348,-10035.851024
810.502456,592.164754,814.226536,-10572.117872
810.502776,222.061783,-74.020594,-11261.603821
810.503096,-888.247130,518.144159,-9806.022374
810.503416,0.000000,1332.370696,-10342.289223
810.503736,2220.617826,2146.597232,-10035.851024
810.504056,3256.906145,962.267725,-10495.508323
810.504376,1184.329507,2294.638420,-10112.460574
810.504696,-444.123565,814.226536,-10035.851024
810.505017,1110.308913,296.082377,-9806.022374
810.505337,2738.761985,-296.082377,-10189.070123
810.505657,2516.700203,-518.144159,-10342.289223
810.505977,-296.082377,-370.102971,-9576.193725
810.506297,-370.102971,-148.041188,-9806.022374
810.506617,0.000000,1554.432478,-9806.022374
810.506937,-1036.288319,1406.391290,-10342.289223
810.507257,-1998.556043,1258.350101,-9422.974625
810.507578,-2072.576638,0.000000,-9806.022374
810.507898,222.061783,-222.061783,-9652.803275
810.508218,1554.432478,-296.082377,-10112.460574
810.508538,888.247130,74.020594,-10035.851024
810.508858,-740.205942,222.061783,-10342.289223
810.509178,-518.144159,1184.329507,-9959.241474
810.509498,518.144159,1110.308913,-10035.851024
810.509818,1258.350101,740.205942,-10878.556072
810.510139,-1554.432478,0.000000,-9806.022374
810.510459,-1924.535449,-444.123565,-10189.070123
810.510779,518.144159,-814.226536,-9806.022374
810.511099,1702.473667,-1258.350101,-10418.898773
810.511419,1480.411884,-1036.288319,-10035.851024
810.511739,-148.041188,-518.144159,-10342.289223
810.512059,1110.308913,1406.391290,-9729.412825
810.512379,2220.617826,1628.453072,-10572.117872
810.512700,2664.741391,962.267725,-10035.851024
810.513020,1184.329507,370.102971,-10189.070123
810.513340,1036.288319,-962.267725,-10265.679673
810.513660,814.226536,-1924.535449,-9576.193725
810.513980,1184.329507,-1702.473667,-10035.851024
810.514300,0.000000,-148.041188,-9729.412825
810.514620,-962.267725,148.041188,-10495.508323
810.514940,444.123565,296.082377,-9576.193725
810.515261,2072.576638,-296.082377,-10725.336972
810.515581,2590.720797,-888.247130,-9729.412825
810.515901,74.020594,-1776.494261,-9882.631924
810.516221,148.041188,-2220.617826,-9576.193725
810.516541,740.205942,-370.102971,-9576.193725
810.516861,740.205942,666.185348,-10189.070123
810.517181,666.185348,888.247130,-9959.241474
810.517501,0.000000,148.041188,-9806.022374
810.517822,666.185348,518.144159,-9882.631924
810.518142,962.267725,-962.267725,-10189.070123
810.518462,592.164754,-814.226536,-9806.022374
810.518782,-740.205942,-1332.370696,-9959.241474
810.519102,-518.144159,-1036.288319,-9882.631924
810.519422,-148.041188,-814.226536,-9652.803275
810.519742,148.041188,0.000000,-10572.117872
810.520062,-962.267725,148.041188,-9959.241474
810.520383,-444.123565,-222.061783,-10265.679673
810.520703,1110.308913,666.185348,-9959.241474
810.521023,1184.329507,-740.205942,-10418.898773
810.521343,222.061783,222.061783,-10495.508323
810.521663,-1850.514855,-296.082377,-10189.070123
810.521983,-1184.329507,74.020594,-10112.460574
810.522303,-296.082377,0.000000,-10418.898773
810.522623,-370.102971,444.123565,-10572.117872
810.522944,-2146.597232,1554.432478,-10418.898773
810.523264,-1332.370696,1110.308913,-9959.241474
810.523584,1480.411884,2368.659014,-10265.679673
810.523904,2516.700203,2738.761985,-10878.556072
810.524224,740.205942,518.144159,-9959.241474
810.524544,-444.123565,-370.102971,-10189.070123
810.524864,740.205942,-370.102971,-9806.022374
810.525184,2368.659014,-222.061783,-10495.508323
810.525505,962.267725,1332.370696,-9576.193725
810.525825,-740.205942,2368.659014,-9882.631924
810.526145,592.164754,2368.659014,-10035.851024
810.526465,1924.535449,3552.988522,-10265.679673
810.526785,1924.535449,2664.741391,-10035.851024
810.527105,0.000000,1110.308913,-10112.460574
810.527425,74.020594,-888.247130,-9499.584175
810.527746,1924.535449,-962.267725,-9499.584175
810.528066,2812.782580,-814.226536,-9882.631924
810.528386,1258.350101,1332.370696,-9806.022374
810.528706,1036.288319,3552.988522,-10342.289223
810.529026,1628.453072,4589.276840,-9806.022374
810.529346,3108.864956,4589.276840,-10572.117872
810.529666,2368.659014,4737.318029,-10342.289223
810.529986,-370.102971,2368.659014,-9806.022374
810.530307,-222.061783,-222.061783,-9729.412825
810.530627,1184.329507,-962.267725,-9729.412825
810.530947,2220.617826,-888.247130,-10035.851024
810.531267,740.205942,0.000000,-9806.022374
810.531587,592.164754,1184.329507,-10035.851024
810.531907,1628.453072,2220.617826,-10035.851024
810.532227,1702.473667,2886.803174,-10418.898773
810.532547,0.000000,2146.597232,-9269.755526
810.532868,-1184.329507,1332.370696,-10112.460574
810.533188,740.205942,-222.061783,-9806.022374
810.533508,2294.638420,-814.226536,-9806.022374
810.533828,2294.638420,-2294.638420,-10189.070123
810.534148,0.000000,-1406.391290,-9806.022374
810.534468,-2220.617826,0.000000,-9806.022374
810.534788,-1480.411884,1332.370696,-10035.851024
810.535108,444.123565,2220.617826,-10418.898773
810.535428,-518.144159,1850.514855,-10189.070123
810.535748,-1998.556043,-592.164754,-10035.851024
810.536067,-1480.411884,-1406.391290,-9959.241474
810.536387,444.123565,-1184.329507,-10035.851024
810.536707,2738.761985,0.000000,-11108.384721
810.537027,888.247130,1036.288319,-10189.070123
810.537347,-222.061783,518.144159,-10418.898773
810.537667,370.102971,888.247130,-9959.241474
810.537987,444.123565,296.082377,-10342.289223
810.538307,-814.226536,370.102971,-11874.480219
810.538627,-2146.597232,-814.226536,-10265.679673
810.538947,-1554.432478,-2072.576638,-9729.412825
810.539267,444.123565,-1258.350101,-9959.241474
810.539587,1554.432478,-1776.494261,-9806.022374
810.539907,0.000000,-1480.411884,-10342.289223
810.540227,0.000000,-1184.329507,-9959.241474
810.540547,1776.494261,592.164754,-10265.679673
810.540867,1850.514855,2146.597232,-10878.556072
810.541187,1554.432478,1332.370696,-10418.898773
810.541507,-444.123565,-518.144159,-10495.508323
810.541826,444.123565,-2072.576638,-9806.022374
810.542146,2294.638420,-2886.803174,-10112.460574
810.542466,1776.494261,-2590.720797,-9806.022374
810.542786,370.102971,-962.267725,-10035.851024
810.543106,1036.288319,-222.061783,-10189.070123
810.543426,2442.679609,1110.308913,-10342.289223
810.543746,2294.638420,666.185348,-10648.727422
810.544066,740.205942,888.247130,-10265.679673
810.544386,0.000000,-148.041188,-10495.508323
810.544706,1110.308913,-518.144159,-10342.289223
810.545026,2220.617826,-222.061783,-10725.336972
810.545346,1554.432478,740.205942,-9806.022374
810.545666,666.185348,2368.659014,-10648.727422
810.545986,740.205942,3330.926739,-10342.289223
810.546306,1480.411884,2442.679609,-10495.508323
810.546626,1184.329507,1628.453072,-10265.679673
810.546946,-1924.535449,814.226536,-9422.974625
810.547265,-2220.617826,-1850.514855,-9422.974625
810.547585,0.000000,-3404.947333,-8886.707777
810.547905,888.247130,-2220.617826,-9882.631924
810.548225,296.082377,-814.226536,-9499.584175
810.548545,-666.185348,518.144159,-10112.460574
810.548865,370.102971,1184.329507,-9422.974625
810.549185,1480.411884,1406.391290,-9806.022374
810.549505,888.247130,1924.535449,-9959.241474
810.549825,-888.247130,0.000000,-9806.022374
810.550145,-1480.411884,-1332.370696,-9576.193725
810.550465,-296.082377,-1554.432478,-9882.631924
810.550785,-814.226536,-2220.617826,-9652.803275
810.551105,-1184.329507,-296.082377,-9806.022374
810.551425,-1406.391290,0.000000,-9806.022374
810.551745,370.102971,4515.256246,-9959.241474
810.552065,2442.679609,4663.297435,-11031.775171
810.552385,1924.535449,4219.173869,-11031.775171
810.552704,0.000000,740.205942,-10189.070123
810.553024,-592.164754,-888.247130,-9499.584175
810.553344,-592.164754,-518.144159,-9729.412825
810.553664,1184.329507,0.000000,-10725.336972
810.553984,962.267725,1924.535449,-9806.022374
810.554304,1036.288319,2442.679609,-10189.070123
810.554624,1776.494261,4293.194464,-10265.679673
810.554944,888.247130,3478.967927,-10801.946522
810.555264,0.000000,2590.720797,-10572.117872
810.555584,0.000000,1332.370696,-9959.241474
810.555904,592.164754,-592.164754,-9729.412825
810.556224,3552.988522,-962.267725,-10035.851024
810.556544,2368.659014,-222.061783,-9729.412825
810.556864,592.164754,740.205942,-10495.508323
810.557184,1702.473667,2812.782580,-10035.851024
810.557504,1258.350101,2442.679609,-10189.070123
810.557824,2220.617826,2812.782580,-10648.727422
810.558143,370.102971,2072.576638,-8733.488677
810.558463,-1776.494261,-592.164754,-10265.679673
810.558783,-296.082377,-1036.288319,-9576.193725
810.559103,888.247130,-2590.720797,-9882.631924
810.559423,518.144159,-1702.473667,-9806.022374
810.559743,518.144159,592.164754,-9652.803275
810.560063,1702.473667,1776.494261,-10035.851024
810.560383,1554.432478,2590.720797,-10265.679673
810.560703,1258.350101,2368.659014,-10342.289223
810.561023,-370.102971,1184.329507,-9806.022374
810.561343,-1776.494261,-222.061783,-9729.412825
810.561663,-592.164754,-444.123565,-9499.584175
810.561983,1258.350101,-1406.391290,-10035.851024
810.562303,888.247130,-1554.432478,-9576.193725
810.562623,-370.102971,-1480.411884,-9729.412825
810.562943,296.082377,-518.144159,-9422.974625
810.563263,1702.473667,814.226536,-10342.289223
810.563582,1184.329507,1776.494261,-10265.679673
810.563902,-1702.473667,1998.556043,-10265.679673
810.564222,-2220.617826,-444.123565,-10189.070123
810.564542,296.082377,-2220.617826,-9959.241474
810.564862,1776.494261,-3478.967927,-10418.898773
810.565182,222.061783,-1776.494261,-10265.679673
810.565502,-1776.494261,-148.041188,-10342.289223
810.565822,0.000000,1628.453072,-10801.946522
810.566142,1776.494261,2590.720797,-10878.556072
810.566462,2072.576638,1998.556043,-10955.165621
810.566782,-1036.288319,370.102971,-10572.117872
810.567102,-962.267725,-2368.659014,-9806.022374
810.567422,-444.123565,-3256.906145,-9959.241474
810.567742,666.185348,-3849.070898,-10342.289223
810.568062,1110.308913,-1406.391290,-9576.193725
810.568382,370.102971,-740.205942,-10418.898773
810.568702,1554.432478,1258.350101,-10112.460574
810.569021,1332.370696,2072.576638,-10495.508323
810.569341,-296.082377,1258.350101,-10189.070123
810.569661,-592.164754,222.061783,-10189.070123
810.569981,74.020594,-2516.700203,-9499.584175
810.570301,444.123565,-2664.741391,-9576.193725
810.570621,3108.864956,-2368.659014,-9652.803275
810.570941,1628.453072,-296.082377,-10572.117872
810.571261,814.226536,-518.144159,-9269.755526
810.571581,148.041188,1998.556043,-9959.241474
810.571901,1406.391290,1702.473667,-9882.631924
810.572221,1258.350101,592.164754,-9882.631924
810.572541,-1110.308913,-1776.494261,-9806.022374
810.572861,-222.061783,-3182.885551,-9576.193725
810.573181,222.061783,-2738.761985,-9652.803275
810.573501,962.267725,-1776.494261,-10265.679673
810.573821,-444.123565,148.041188,-11568.042020
810.574141,0.000000,1258.350101,-10725.336972
810.574460,1480.411884,3552.988522,-10648.727422
810.574780,1332.370696,2664.741391,-11338.213370
810.575100,-148.041188,1776.494261,-10725.336972
810.575420,-1554.432478,-518.144159,-10418.898773
810.575740,148.041188,-2072.576638,-10418.898773
810.576060,2516.700203,-1998.556043,-10342.289223
810.576380,1850.514855,0.000000,-10878.556072
810.576700,-74.020594,592.164754,-10495.508323
810.577020,-740.205942,1776.494261,-10495.508323
810.577340,0.000000,2368.659014,-10878.556072
810.577660,74.020594,1850.514855,-10878.556072
810.577980,-1998.556043,814.226536,-10035.851024
810.578300,-2294.638420,-518.144159,-10112.460574
810.578620,-1480.411884,148.041188,-9576.193725
810.578940,-222.061783,-222.061783,-10112.460574
810.579260,518.144159,74.020594,-9806.022374
810.579580,-814.226536,74.020594,-8963.317327
810.579899,1702.473667,888.247130,-9652.803275
810.580219,2220.617826,1998.556043,-9806.022374
810.580539,1480.411884,2516.700203,-10035.851024
810.580859,-1258.350101,2664.741391,-9499.584175
810.581179,-1184.329507,1924.535449,-9729.412825
810.581499,814.226536,1036.288319,-9729.412825
810.581819,3034.844362,-740.205942,-9806.022374
810.582139,1628.453072,-1036.288319,-9652.803275
810.582459,0.000000,-1258.350101,-9346.365076
810.582779,444.123565,1702.473667,-9806.022374
810.583099,1406.391290,2294.638420,-10265.679673
810.583419,2220.617826,2960.823768,-10572.117872
810.583739,74.020594,1480.411884,-9806.022374
810.584059,-592.164754,222.061783,-10265.679673
810.584379,1998.556043,-740.205942,-10189.070123
810.584699,3108.864956,-740.205942,-10112.460574
810.585019,1036.288319,148.041188,-10342.289223
810.585338,740.205942,592.164754,-11031.775171
810.585658,2442.679609,1332.370696,-10189.070123
810.585978,2220.617826,2146.597232,-11108.384721
810.586298,1184.329507,2886.803174,-10878.556072
810.586618,-518.144159,3997.112087,-10572.117872
810.586938,-888.247130,3923.091493,-10878.556072
810.587258,1850.514855,3330.926739,-10878.556072
810.587578,2442.679609,1480.411884,-10189.070123
810.587898,296.082377,-296.082377,-10342.289223
810.588218,-370.102971,-2368.659014,-9652.803275
810.588538,1924.535449,-1702.473667,-9576.193725
810.588858,2146.597232,0.000000,-9882.631924
810.589178,962.267725,2368.659014,-9959.241474
810.589498,-888.247130,2146.597232,-8886.707777
810.589818,-370.102971,444.123565,-9346.365076
810.590138,1850.514855,-1184.329507,-9422.974625
810.590458,1776.494261,-2220.617826,-9576.193725
810.590777,-296.082377,-1406.391290,-9729.412825
810.591097,74.020594,-1554.432478,-9116.536426
810.591417,444.123565,-1554.432478,-9576.193725
810.591737,888.247130,-666.185348,-9806.022374
810.592057,-370.102971,370.102971,-9422.974625
810.592377,-2368.659014,-148.041188,-9882.631924
810.592697,-1036.288319,-592.164754,-9269.755526
810.593017,1258.350101,-1406.391290,-10265.679673
810.593337,1406.391290,-2146.597232,-9422.974625
810.593657,-370.102971,-1332.370696,-10189.070123
810.593977,-444.123565,-1184.329507,-9882.631924
810.594297,962.267725,592.164754,-10725.336972
810.594617,444.123565,1554.432478,-10955.165621
810.594937,-1480.411884,2146.597232,-10495.508323
810.595257,-2664.741391,888.247130,-10648.727422
810.595577,74.020594,-1036.288319,-10342.289223
810.595897,1924.535449,-2072.576638,-10495.508323
810.596216,888.247130,-2072.576638,-10418.898773
810.596536,-666.185348,-962.267725,-9806.022374
810.596856,74.020594,-666.185348,-10418.898773
810.597176,1554.432478,592.164754,-10648.727422
810.597496,1924.535449,1110.308913,-10725.336972
810.597816,-148.041188,1924.535449,-10801.946522
810.598136,-592.164754,0.000000,-10035.851024
810.598456,1258.350101,-148.041188,-10265.679673
810.598776,1110.308913,-1184.329507,-10265.679673
810.599096,666.185348,-1406.391290,-9729.412825
810.599416,-962.267725,-888.247130,-9806.022374
810.599736,0.000000,-1850.514855,-9346.365076
810.600056,2146.597232,-592.164754,-10035.851024
810.600376,2072.576638,148.041188,-9959.241474
810.600696,296.082377,0.000000,-9499.584175
810.601016,74.020594,-518.144159,-9882.631924
810.601336,1776.494261,-1258.350101,-9116.536426
810.601655,1702.473667,-1480.411884,-9729.412825
810.601975,444.123565,-1110.308913,-9729.412825
810.602295,-740.205942,0.000000,-9576.193725
810.602615,222.061783,148.041188,-9499.584175
810.602935,2294.638420,370.102971,-10418.898773
810.603255,1480.411884,1406.391290,-10189.070123
810.603575,-1332.370696,740.205942,-9806.022374
810.603895,-814.226536,666.185348,-10342.289223
810.604215,888.247130,-888.247130,-10035.851024
810.604535,2072.576638,-592.164754,-10878.556072
810.604855,-888.247130,222.061783,-11338.213370
810.605175,-1702.473667,1702.473667,-11951.089769
810.605495,0.000000,2146.597232,-11184.994271
810.605815,1480.411884,3108.864956,-11491.432470
810.606135,1036.288319,3775.050304,-11031.775171
810.606455,-1924.535449,4145.153275,-11261.603821
810.606775,-1554.432478,2886.803174,-10418.898773
810.607094,740.205942,-1406.391290,-10189.070123
810.607414,2072.576638,-2886.803174,-10265.679673
810.607734,-888.247130,-2516.700203,-9499.584175
810.608054,0.000000,-1776.494261,-9806.022374
810.608374,74.020594,2220.617826,-10342.289223
810.608694,1702.473667,3256.906145,-10878.556072
810.609014,-296.082377,3256.906145,-9806.022374
810.609334,-2368.659014,2072.576638,-9806.022374
810.609654,0.000000,1036.288319,-9729.412825
810.609974,2368.659014,-1702.473667,-9499.584175
810.610294,1702.473667,-2590.720797,-9499.584175
810.610614,-1554.432478,-2368.659014,-8656.879127
810.610934,-148.041188,-222.061783,-9652.803275
810.611254,2368.659014,1554.432478,-9346.365076
810.611574,1702.473667,2590.720797,-9959.241474
810.611894,296.082377,3627.009116,-9576.193725
810.612214,1258.350101,2812.782580,-9652.803275
810.612533,1554.432478,740.205942,-9576.193725
810.612853,2294.638420,-1850.514855,-9806.022374
810.613173,1702.473667,-1702.473667,-9193.145976
810.613493,296.082377,-888.247130,-9959.241474
810.613813,1628.453072,1110.308913,-10878.556072
810.614133,1702.473667,3108.864956,-10725.336972
810.614453,592.164754,4071.132681,-10801.946522
810.614773,-1554.432478,3627.009116,-10265.679673
810.615093,-962.267725,2220.617826,-10648.727422
810.615413,1850.514855,962.267725,-10418.898773
810.615733,3182.885551,-1036.288319,-11031.775171
810.616053,1850.514855,-1406.391290,-10572.117872
810.616373,666.185348,-1406.391290,-10572.117872
810.616693,2294.638420,-222.061783,-10495.508323
810.617013,2294.638420,2072.576638,-11031.775171
810.617333,1258.350101,3256.906145,-10955.165621
810.617653,-222.061783,3552.988522,-10648.727422
810.617972,296.082377,1480.411884,-10418.898773
810.618292,1406.391290,0.000000,-10035.851024
810.618612,1110.308913,-2516.700203,-10418.898773
810.618932,-444.123565,-3849.070898,-9499.584175
810.619252,-814.226536,-3034.844362,-9422.974625
810.619572,0.000000,0.000000,-9116.536426
810.619892,444.123565,1332.370696,-10418.898773
810.620212,-222.061783,2146.597232,-9959.241474
810.620532,-1554.432478,1998.556043,-9652.803275
810.620852,0.000000,-1258.350101,-8427.050478
810.621172,2368.659014,-2886.803174,-9116.536426
810.621492,2516.700203,-3478.967927,-9576.193725
810.621812,370.102971,-2516.700203,-9422.974625
810.622132,-666.185348,-1702.473667,-9729.412825
810.622452,74.020594,1184.329507,-9576.193725
810.622772,74.020594,1554.432478,-10342.289223
810.623092,-888.247130,2368.659014,-10189.070123
810.623411,-2664.741391,1258.350101,-9806.022374
810.623731,-666.185348,740.205942,-10035.851024
810.624051,962.267725,-1480.411884,-10418.898773
810.624371,1332.370696,-2516.700203,-10342.289223
810.624691,0.000000,-2812.782580,-9806.022374
810.625011,-962.267725,-1332.370696,-10189.070123
810.625331,518.144159,-148.041188,-10418.898773
810.625651,2072.576638,2590.720797,-11108.384721
810.625971,-666.185348,3923.091493,-10342.289223
810.626291,-444.123565,2590.720797,-11261.603821
810.626611,1480.411884,-296.082377,-10112.460574
810.626931,2590.720797,-1702.473667,-10572.117872
810.627251,2294.638420,-2146.597232,-10572.117872
810.627571,148.041188,-1924.535449,-9959.241474
810.627891,370.102971,-592.164754,-9269.755526
810.628211,2368.659014,740.205942,-10189.070123
810.628531,1554.432478,1480.411884,-10418.898773
810.628850,-1702.473667,3108.864956,-10189.070123
810.629170,-2294.638420,2146.597232,-10189.070123
810.629490,1332.370696,222.061783,-8886.707777
810.629810,2812.782580,-1036.288319,-10112.460574
810.630130,2220.617826,-2368.659014,-9806.022374
810.630450,0.000000,-1184.329507,-9882.631924
810.630770,0.000000,592.164754,-9806.022374
810.631090,1036.288319,2590.720797,-10112.460574
810.631410,1480.411884,3478.967927,-10648.727422
810.631730,-592.164754,4293.194464,-10112.460574
810.632050,-222.061783,2442.679609,-10189.070123
810.632370,1924.535449,962.267725,-9652.803275
810.632690,1702.473667,-2442.679609,-10189.070123
810.633010,518.144159,-3108.864956,-9882.631924
810.633330,-962.267725,-1924.535449,-9729.412825
810.633650,-962.267725,666.185348,-10955.165621
810.633970,222.061783,2516.700203,-11031.775171
810.634290,296.082377,3330.926739,-10801.946522
810.634610,-1480.411884,2664.741391,-10035.851024
810.634930,-1332.370696,1258.350101,-9882.631924
810.635250,-296.082377,-666.185348,-9806.022374
810.635570,2220.617826,-3330.926739,-10112.460574
810.635890,-222.061783,-2886.803174,-9422.974625
810.636210,-1850.514855,-1332.370696,-9729.412825
810.636530,0.000000,1258.350101,-8963.317327
810.636850,592.164754,2516.700203,-10418.898773
810.637170,1036.288319,3256.906145,-10189.070123
810.637490,-1850.514855,3552.988522,-10035.851024
810.637810,-888.247130,2146.597232,-10035.851024
810.638130,1850.514855,1702.473667,-10112.460574
810.638450,1998.556043,-740.205942,-10112.460574
810.638770,148.041188,-1184.329507,-9269.755526
810.639091,-518.144159,-1554.432478,-9806.022374
810.639411,1998.556043,0.000000,-10265.679673
810.639731,2664.741391,1850.514855,-10342.289223
810.640051,814.226536,3552.988522,-10035.851024
810.640371,0.000000,3330.926739,-10342.289223
810.640691,888.247130,1998.556043,-10418.898773
810.641011,2442.679609,-962.267725,-9806.022374
810.641331,1184.329507,-2590.720797,-10189.070123
810.641651,-370.102971,-2442.679609,-9806.022374
810.641971,148.041188,-1184.329507,-9806.022374
810.642291,1332.370696,518.144159,-10112.460574
810.642611,2294.638420,2368.659014,-11031.775171
810.642931,1554.432478,4293.194464,-10725.336972
810.643251,-1258.350101,3997.112087,-10801.946522
810.643571,518.144159,2812.782580,-10495.508323
810.643891,2590.720797,148.041188,-10189.070123
810.644211,2294.638420,-1184.329507,-10725.336972
810.644531,-296.082377,-1554.432478,-9729.412825
810.644851,296.082377,-1258.350101,-9959.241474
810.645171,1036.288319,296.082377,-9576.193725
810.645491,888.247130,962.267725,-10189.070123
810.645811,666.185348,1628.453072,-9806.022374
810.646131,-1480.411884,1554.432478,-9959.241474
810.646451,1702.473667,1036.288319,-8197.221829
810.646772,2886.803174,-148.041188,-10035.851024
810.647092,1406.391290,-1998.556043,-9729.412825
810.647412,-592.164754,-2146.597232,-9193.145976
810.647732,-888.247130,-1480.411884,-9346.365076
810.648052,2294.638420,-222.061783,-9499.584175
810.648372,1702.473667,888.247130,-10112.460574
810.648692,-444.123565,2368.659014,-9806.022374
810.649012,-1184.329507,1480.411884,-9882.631924
810.649332,1184.329507,740.205942,-9576.193725
810.649652,1776.494261,-1406.391290,-10418.898773
810.649972,-296.082377,-1998.556043,-9806.022374
810.650292,-2886.803174,-1702.473667,-9882.631924
810.650612,-1554.432478,-592.164754,-9806.022374
810.650932,1110.308913,666.185348,-10418.898773
810.651252,1332.370696,1036.288319,-11031.775171
810.651572,-1332.370696,1554.432478,-10189.070123
810.651892,-1110.308913,666.185348,-10112.460574
810.652212,2368.659014,-1628.453072,-10112.460574
810.652532,2590.720797,-962.267725,-11108.384721
810.652852,1480.411884,-518.144159,-10342.289223
810.653172,-888.247130,-222.061783,-10572.117872
810.653492,-222.061783,592.164754,-9806.022374
810.653812,1110.308913,592.164754,-10572.117872
810.654132,444.123565,666.185348,-10801.946522
810.654453,-1480.411884,1628.453072,-10342.289223
810.654773,-1924.535449,1036.288319,-10189.070123
810.655093,1258.350101,1036.288319,-9269.755526
810.655413,2738.761985,-1406.391290,-10265.679673
810.655733,2072.576638,-1332.370696,-9806.022374
810.656053,-296.082377,-1406.391290,-9422.974625
810.656373,1480.411884,0.000000,-9576.193725
810.656693,2738.761985,1184.329507,-9882.631924
810.657013,1924.535449,1850.514855,-10265.679673
810.657333,-666.185348,1258.350101,-9729.412825
810.657653,-1332.370696,1110.308913,-9882.631924
810.657973,740.205942,1258.350101,-9729.412825
810.658293,1184.329507,296.082377,-10572.117872
810.658613,-1110.308913,-148.041188,-9806.022374
810.658933,-1332.370696,-740.205942,-9806.022374
810.659253,1924.535449,-666.185348,-10572.117872
810.659573,2886.803174,-148.041188,-10801.946522
810.659893,1406.391290,1406.391290,-10112.460574
810.660213,-1258.350101,1554.432478,-9882.631924
810.660533,74.020594,1554.432478,-10572.117872
810.660853,296.082377,1702.473667,-10265.679673
810.661173,1776.494261,1480.411884,-10878.556072
810.661493,-1480.411884,-740.205942,-9806.022374
810.661813,-740.205942,-740.205942,-10725.336972
810.662134,1110.308913,0.000000,-10035.851024
810.662454,1776.494261,814.226536,-10955.165621
810.662774,-444.123565,3330.926739,-10801.946522
810.663094,-3182.885551,2368.659014,-10495.508323
810.663414,-962.267725,3330.926739,-10265.679673
810.663734,370.102971,3108.864956,-10955.165621
810.664054,962.267725,1554.432478,-10189.070123
810.664374,-2220.617826,-1702.473667,-9576.193725
810.664694,-666.185348,-3034.844362,-9499.584175
810.665014,814.226536,-2664.741391,-8963.317327
810.665334,1850.514855,-1258.350101,-9882.631924
810.665654,-296.082377,2886.803174,-10418.898773
810.665974,-1628.453072,3256.906145,-9806.022374
810.666294,888.247130,3849.070898,-9806.022374
810.666614,1924.535449,1776.494261,-10112.460574
810.666934,1406.391290,-740.205942,-9116.536426
810.667254,-1480.411884,-3034.844362,-9039.926876
810.667574,1110.308913,-4219.173869,-8656.879127
810.667894,3923.091493,-2294.638420,-11108.384721
810.668214,3478.967927,444.123565,-10495.508323
810.668534,888.247130,2886.803174,-9729.412825
810.668854,-296.082377,4071.132681,-9959.241474
810.669174,2220.617826,4145.153275,-10648.727422
810.669495,4515.256246,1850.514855,-10878.556072
810.669815,2220.617826,-222.061783,-10035.851024
810.670135,-370.102971,-2072.576638,-9882.631924
810.670455,1036.288319,-1258.350101,-9652.803275
810.670775,2516.700203,-962.267725,-10801.946522
810.671095,814.226536,1184.329507,-10495.508323
810.671415,-2368.659014,3034.844362,-10265.679673
810.671735,-2294.638420,3034.844362,-10495.508323
810.672055,222.061783,3034.844362,-9806.022374
810.672375,2368.659014,74.020594,-10801.946522
810.672695,962.267725,-814.226536,-9959.241474
810.673015,0.000000,-1998.556043,-10418.898773
810.673335,1628.453072,-1406.391290,-10189.070123
810.673655,3330.926739,296.082377,-10725.336972
810.673975,962.267725,1184.329507,-10189.070123
810.674295,-1628.453072,2590.720797,-10189.070123
810.674615,-666.185348,1702.473667,-9959.241474
810.674935,1924.535449,962.267725,-10112.460574
810.675255,2368.659014,-1776.494261,-10342.289223
810.675575,-222.061783,-2294.638420,-9652.803275
810.675895,-1998.556043,-2960.823768,-9576.193725
810.676215,0.000000,-592.164754,-9422.974625
810.676535,962.267725,814.226536,-10265.679673
810.676855,-222.061783,1702.473667,-9806.022374
810.677176,-2368.659014,1850.514855,-9652.803275
810.677496,-1258.350101,518.144159,-9576.193725
810.677816,1184.329507,-1036.288319,-9959.241474
810.678136,1258.350101,-2738.761985,-9882.631924
810.678456,-1332.370696,-2442.679609,-9422.974625
810.678776,-1110.308913,-2220.617826,-9882.631924
810.679096,1406.391290,74.020594,-10112.460574
810.679416,1850.514855,1628.453072,-10648.727422
810.679736,-1184.329507,2738.761985,-10035.851024
810.680056,-2072.576638,1628.453072,-10342.289223
810.680376,518.144159,444.123565,-10112.460574
810.680696,3108.864956,-1110.308913,-10035.851024
810.681016,2294.638420,-814.226536,-10189.070123
810.681336,-1406.391290,-2220.617826,-9959.241474
810.681656,370.102971,-1554.432478,-10112.460574
810.681976,1776.494261,296.082377,-10035.851024
810.682296,1406.391290,1776.494261,-10725.336972
810.682616,-296.082377,2072.576638,-10189.070123
810.682936,-666.185348,2220.617826,-10495.508323
810.683256,740.205942,0.000000,-10265.679673
810.683576,4071.132681,-296.082377,-10418.898773
810.683896,1554.432478,-2294.638420,-9882.631924
810.684216,-666.185348,-1776.494261,-9882.631924
810.684536,148.041188,-370.102971,-10035.851024
810.684857,1110.308913,1480.411884,-10112.460574
810.685177,814.226536,1406.391290,-10801.946522
810.685497,-666.185348,1628.453072,-9882.631924
810.685817,-1258.350101,-148.041188,-9729.412825
810.686137,1258.350101,222.061783,-9652.803275
810.686457,2738.761985,-148.041188,-10342.289223
810.686777,2294.638420,-296.082377,-9576.193725
810.687097,-962.267725,-1184.329507,-9882.631924
810.687417,962.267725,148.041188,-9269.755526
810.687737,962.267725,1480.411884,-10189.070123
810.688057,0.000000,2294.638420,-10342.289223
810.688377,-1998.556043,3701.029710,-10495.508323
810.688697,-1480.411884,666.185348,-10342.289223
810.689017,1554.432478,-592.164754,-9806.022374
810.689337,2812.782580,-3330.926739,-10035.851024
810.689657,-518.144159,-2960.823768,-9116.536426
810.689977,-1998.556043,-1776.494261,-10418.898773
810.690297,-148.041188,1554.432478,-10189.070123
810.690617,1406.391290,3552.988522,-10265.679673
810.690937,740.205942,4737.318029,-10648.727422
810.691257,-1110.308913,3627.009116,-10342.289223
810.691577,-444.123565,666.185348,-10035.851024
810.691897,1628.453072,-962.267725,-10189.070123
810.692217,1110.308913,-2590.720797,-9959.241474
810.692538,-1702.473667,-2368.659014,-9576.193725
810.692858,-2812.782580,-1554.432478,-9806.022374
810.693178,-1036.288319,1332.370696,-10112.460574
810.693498,666.185348,3775.050304,-11031.775171
810.693818,-222.061783,4663.297435,-10878.556072
810.694138,-2368.659014,4219.173869,-10035.851024
810.694458,-518.144159,2664.741391,-10495.508323
810.694778,2294.638420,888.247130,-9882.631924
810.695098,1702.473667,-1184.329507,-10112.460574
810.695418,-1776.494261,-1480.411884,-9806.022374
810.695738,-1332.370696,-1554.432478,-9499.584175
810.696058,1406.391290,814.226536,-9806.022374
810.696378,3627.009116,2442.679609,-10572.117872
810.696698,2442.679609,3552.988522,-10112.460574
810.697018,-962.267725,2294.638420,-10035.851024
810.697338,0.000000,222.061783,-9729.412825
810.697658,2072.576638,-2294.638420,-9576.193725
810.697978,3404.947333,-3701.029710,-9346.365076
810.698298,1406.391290,-2886.803174,-9269.755526
810.698618,1628.453072,-1924.535449,-9882.631924
810.698938,3034.844362,962.267725,-10189.070123
810.699258,2220.617826,2368.659014,-9882.631924
810.699578,-592.164754,3627.009116,-10265.679673
810.699899,-1480.411884,2960.823768,-10265.679673
810.700219,1406.391290,888.247130,-9729.412825
810.700539,3478.967927,-1554.432478,-9729.412825
810.700859,2368.659014,-3256.906145,-9499.584175
810.701179,-148.041188,-3034.844362,-9806.022374
810.701499,1702.473667,-1998.556043,-9806.022374
810.701819,3108.864956,1332.370696,-10189.070123
810.702139,3034.844362,3404.947333,-11414.822920
810.702459,222.061783,4811.338623,-10418.898773
810.702779,-370.102971,3923.091493,-10342.289223
810.703099,1036.288319,1480.411884,-10189.070123
810.703419,3923.091493,-1628.453072,-11721.261119
810.703739,2516.700203,-3701.029710,-9576.193725
810.704059,296.082377,-2590.720797,-10342.289223
810.704379,370.102971,-814.226536,-9499.584175
810.704699,444.123565,1184.329507,-10495.508323
810.705019,0.000000,2886.803174,-10418.898773
810.705339,-2960.823768,3182.885551,-10801.946522
810.705659,-2442.679609,1480.411884,-10189.070123
810.705979,0.000000,-444.123565,-9499.584175
810.706299,1850.514855,-2664.741391,-10418.898773
810.706619,518.144159,-3701.029710,-9729.412825
810.706939,-1110.308913,-3256.906145,-9806.022374
810.707259,-518.144159,-888.247130,-9729.412825
810.707580,222.061783,1258.350101,-10265.679673
810.707900,-740.205942,2368.659014,-10342.289223
810.708220,-3627.009116,2072.576638,-9959.241474
810.708540,-3478.967927,740.205942,-9806.022374
810.708860,-888.247130,74.020594,-9959.241474
810.709180,814.226536,-2146.597232,-9039.926876
810.709500,-370.102971,-2664.741391,-9499.584175
810.709820,-1554.432478,-3108.864956,-9882.631924
810.710140,-1036.288319,-518.144159,-9576.193725
810.710460,0.000000,1258.350101,-10725.336972
810.710780,0.000000,3108.864956,-9882.631924
810.711100,-1036.288319,4737.318029,-10725.336972
810.711420,-1036.288319,3627.009116,-10112.460574
810.711740,1036.288319,1554.432478,-10418.898773
810.712060,2664.741391,-962.267725,-10189.070123
810.712380,1258.350101,-2590.720797,-9422.974625
810.712700,296.082377,-2220.617826,-10189.070123
810.713020,1702.473667,0.000000,-9882.631924
810.713340,2294.638420,1628.453072,-10878.556072
810.713660,370.102971,2294.638420,-10265.679673
810.713980,-1184.329507,2516.700203,-10265.679673
810.714300,74.020594,1702.473667,-9729.412825
810.714620,2664.741391,1258.350101,-10725.336972
810.714940,4811.338623,-518.144159,-10342.289223
810.715261,2220.617826,-2146.597232,-10112.460574
810.715581,888.247130,-3997.112087,-9806.022374
810.715901,1258.350101,-3108.864956,-9499.584175
810.716221,1406.391290,0.000000,-9806.022374
810.716541,-962.267725,2812.782580,-10189.070123
810.716861,-1924.535449,3997.112087,-10495.508323
810.717181,0.000000,3404.947333,-10112.460574
810.717501,3108.864956,666.185348,-10495.508323
810.717821,2664.741391,-2368.659014,-9269.755526
810.718141,-148.041188,-3552.988522,-9729.412825
810.718461,0.000000,-2812.782580,-9729.412825
810.718781,1924.535449,-222.061783,-9729.412825
810.719101,1776.494261,1776.494261,-10572.117872
810.719421,-1184.329507,3478.967927,-9882.631924
810.719741,-2146.597232,2442.679609,-10189.070123
810.720061,222.061783,1480.411884,-10035.851024
810.720381,2368.659014,1110.308913,-10878.556072
810.720701,1406.391290,814.226536,-9959.241474
810.721021,-1776.494261,-296.082377,-10265.679673
810.721341,-1110.308913,-1332.370696,-9729.412825
810.721661,814.226536,-888.247130,-10189.070123
810.721981,296.082377,666.185348,-11568.042020
810.722301,-1850.514855,2368.659014,-10342.289223
810.722621,-2368.659014,3034.844362,-10265.679673
810.722942,222.061783,2516.700203,-10035.851024
810.723262,2664.741391,1110.308913,-10495.508323
810.723582,814.226536,-740.205942,-10801.946522
810.723902,-1776.494261,-2368.659014,-9806.022374
810.724222,-444.123565,-1480.411884,-9576.193725
810.724542,1702.473667,-370.102971,-10112.460574
810.724862,2590.720797,74.020594,-10342.289223
810.725182,-1036.288319,1332.370696,-9806.022374
810.725502,-1406.391290,1184.329507,-9959.241474
810.725822,1554.432478,888.247130,-9882.631924
810.726142,2738.761985,148.041188,-10265.679673
810.726462,1702.473667,0.000000,-9882.631924
810.726782,-2072.576638,-518.144159,-9806.022374
810.727102,-666.185348,0.000000,-9576.193725
810.727422,1998.556043,1184.329507,-10342.289223
810.727742,740.205942,2294.638420,-10265.679673
810.728062,-1036.288319,2072.576638,-9806.022374
810.728382,296.082377,1628.453072,-10112.460574
810.728702,3108.864956,370.102971,-9882.631924
810.729022,4885.359217,-814.226536,-10112.460574
810.729342,2294.638420,-814.226536,-9729.412825
810.729662,444.123565,-888.247130,-9806.022374
810.729982,1924.535449,0.000000,-9806.022374
810.730303,3478.967927,888.247130,-10495.508323
810.730623,962.267725,1258.350101,-10648.727422
810.730943,-2590.720797,1110.308913,-10189.070123
810.731263,-296.082377,1036.288319,-10342.289223
810.731583,3478.967927,-740.205942,-10572.117872
810.731903,4737.318029,-1924.535449,-9806.022374
810.732223,296.082377,-2590.720797,-10112.460574
810.732543,740.205942,-1628.453072,-9882.631924
810.732863,2960.823768,370.102971,-10189.070123
810.733183,3923.091493,1554.432478,-10801.946522
810.733503,1110.308913,1332.370696,-9806.022374
810.733823,-1554.432478,444.123565,-10265.679673
810.734143,148.041188,0.000000,-9882.631924
810.734463,2590.720797,-592.164754,-10418.898773
810.734783,1998.556043,-666.185348,-9882.631924
810.735103,-1776.494261,-1036.288319,-9959.241474
810.735423,-1110.308913,0.000000,-9729.412825
810.735743,888.247130,1184.329507,-10112.460574
810.736063,814.226536,0.000000,-10189.070123
810.736383,-2072.576638,740.205942,-9346.365076
810.736703,-3256.906145,-518.144159,-9652.803275
810.737023,0.000000,222.061783,-9729.412825
810.737343,2220.617826,-962.267725,-10265.679673
810.737663,1036.288319,-444.123565,-9806.022374
810.737983,-1110.308913,-962.267725,-9806.022374
810.738302,-1332.370696,-518.144159,-9116.536426
810.738622,962.267725,592.164754,-10112.460574
810.738942,1924.535449,1332.370696,-10189.070123
810.739262,-1776.494261,1332.370696,-9806.022374
810.739582,-2442.679609,0.000000,-10418.898773
810.739902,0.000000,-666.185348,-9806.022374
810.740222,1110.308913,-1702.473667,-9806.022374
810.740542,148.041188,-1258.350101,-9882.631924
810.740862,-2516.700203,-1850.514855,-9729.412825
810.741182,-740.205942,666.185348,-9882.631924
810.741502,1628.453072,2220.617826,-10955.165621
810.741822,2220.617826,2442.679609,-10801.946522
810.742142,-296.082377,1776.494261,-10342.289223
810.742461,-592.164754,-148.041188,-10035.851024
810.742781,1776.494261,-296.082377,-10265.679673
810.743101,2146.597232,-740.205942,-10265.679673
810.743421,-1628.453072,518.144159,-10035.851024
810.743741,-888.247130,74.020594,-10725.336972
810.744061,518.144159,962.267725,-10495.508323
810.744381,1924.535449,1554.432478,-10725.336972
810.744701,740.205942,2220.617826,-11108.384721
810.745021,-1258.350101,2072.576638,-10418.898773
810.745341,-518.144159,1184.329507,-10418.898773
810.745661,2516.700203,296.082377,-9959.241474
810.745981,2368.659014,-1258.350101,-9959.241474
810.746301,592.164754,-2220.617826,-10955.165621
810.746620,-888.247130,-1702.473667,-9729.412825
810.746940,444.123565,0.000000,-9959.241474
810.747260,2960.823768,1480.411884,-10112.460574
810.747580,1258.350101,1850.514855,-10035.851024
810.747900,-518.144159,1036.288319,-10112.460574
810.748220,370.102971,370.102971,-10265.679673
810.748540,1702.473667,-444.123565,-10418.898773
810.748860,1258.350101,-1406.391290,-9806.022374
810.749180,-1332.370696,-1554.432478,-10112.460574
810.749500,-1480.411884,-740.205942,-9806.022374
810.749820,1332.370696,1702.473667,-10495.508323
810.750140,2072.576638,2368.659014,-10955.165621
810.750460,-518.144159,3404.947333,-10112.460574
810.750779,-2072.576638,3701.029710,-10418.898773
810.751099,0.000000,2442.679609,-9882.631924
810.751419,2072.576638,-222.061783,-10112.460574
810.751739,2516.700203,-2146.597232,-9806.022374
810.752059,-666.185348,-2738.761985,-9116.536426
810.752379,-296.082377,-2368.659014,-9806.022374
810.752699,1480.411884,-74.020594,-9882.631924
810.753019,2590.720797,2072.576638,-10801.946522
810.753339,0.000000,3552.988522,-10035.851024
810.753659,-1332.370696,2960.823768,-10112.460574
810.753979,370.102971,2368.659014,-10265.679673
810.754299,2368.659014,-296.082377,-10189.070123
810.754618,1628.453072,-1258.350101,-9806.022374
810.754938,296.082377,-1480.411884,-10112.460574
810.755258,1184.329507,-518.144159,-9729.412825
810.755578,2368.659014,962.267725,-10265.679673
810.755898,1332.370696,2442.679609,-10648.727422
810.756218,-518.144159,3108.864956,-9806.022374
810.756538,-2294.638420,2072.576638,-10112.460574
810.756858,0.000000,1406.391290,-9652.803275
810.757178,1480.411884,-148.041188,-9806.022374
810.757498,444.123565,-1998.556043,-9652.803275
810.757818,-592.164754,-2516.700203,-9422.974625
810.758138,962.267725,-1332.370696,-9576.193725
810.758458,2960.823768,222.061783,-10342.289223
810.758777,2738.761985,2072.576638,-10648.727422
810.759097,0.000000,2960.823768,-10035.851024
810.759417,-518.144159,2738.761985,-10265.679673
810.759737,666.185348,1998.556043,-10189.070123
810.760057,1554.432478,-1110.308913,-10648.727422
810.760377,148.041188,-2220.617826,-9576.193725
810.760697,-740.205942,-3108.864956,-9959.241474
810.761017,666.185348,-1850.514855,-9806.022374
810.761337,2294.638420,74.020594,-10418.898773
810.761657,814.226536,2368.659014,-10495.508323
810.761977,-1702.473667,3849.070898,-10418.898773
810.762297,-1110.308913,3552.988522,-10418.898773
810.762617,1554.432478,2072.576638,-10265.679673
810.762936,2442.679609,0.000000,-10342.289223
810.763256,592.164754,-1554.432478,-9576.193725
810.763576,-666.185348,-3256.906145,-9652.803275
810.763896,1332.370696,-2738.761985,-9269.755526
810.764216,2294.638420,-814.226536,-10189.070123
810.764536,1110.308913,1702.473667,-9959.241474
810.764856,-1184.329507,2812.782580,-9959.241474
810.765176,-666.185348,2442.679609,-10112.460574
810.765496,1628.453072,518.144159,-10112.460574
810.765816,2664.741391,-1480.411884,-9959.241474
810.766136,1110.308913,-2886.803174,-8427.050478
810.766456,740.205942,-3108.864956,-9576.193725
810.766776,1184.329507,-740.205942,-9882.631924
810.767095,2368.659014,1184.329507,-10572.117872
810.767415,592.164754,2886.803174,-10189.070123
810.767735,-1110.308913,2590.720797,-10112.460574
810.768055,0.000000,2590.720797,-10342.289223
810.768375,2072.576638,222.061783,-10801.946522
810.768695,1850.514855,-1480.411884,-10035.851024
810.769015,-222.061783,-2146.597232,-10342.289223
810.769335,-666.185348,-2220.617826,-9422.974625
810.769655,740.205942,0.000000,-9806.022374
810.769975,2146.597232,1628.453072,-10878.556072
810.770295,814.226536,2590.720797,-11108.384721
810.770615,-962.267725,2368.659014,-10265.679673
810.770935,-222.061783,1258.350101,-10035.851024
810.771254,222.061783,-666.185348,-10342.289223
810.771574,-370.102971,-2590.720797,-9882.631924
810.771894,-2368.659014,-3330.926739,-10878.556072
810.772214,-1924.535449,-2664.741391,-9576.193725
810.772534,518.144159,-1332.370696,-9806.022374
810.772854,814.226536,814.226536,-10342.289223
810.773174,-666.185348,2072.576638,-10112.460574
810.773494,-2294.638420,2738.761985,-10265.679673
810.773814,-962.267725,1702.473667,-9959.241474
810.774134,1480.411884,-962.267725,-10035.851024
810.774454,814.226536,-2368.659014,-9959.241474
810.774774,-1406.391290,-4071.132681,-9959.241474
810.775094,-1036.288319,-2516.700203,-9652.803275
810.775413,888.247130,518.144159,-10725.336972
810.775733,1184.329507,2664.741391,-10342.289223
810.776053,-592.164754,2590.720797,-10495.508323
810.776373,-814.226536,1184.329507,-10572.117872
810.776693,222.061783,-814.226536,-9882.631924
810.777013,1702.473667,-2146.597232,-10342.289223
810.777333,1110.308913,-1776.494261,-10035.851024
810.777653,370.102971,148.041188,-10112.460574
810.777973,1554.432478,1628.453072,-10572.117872
810.778293,2812.782580,2664.741391,-10878.556072
810.778613,1776.494261,2590.720797,-10878.556072
810.778933,0.000000,2294.638420,-9882.631924
810.779252,370.102971,1776.494261,-10495.508323
810.779572,2886.803174,962.267725,-10572.117872
810.779892,2664.741391,-1258.350101,-10035.851024
810.780212,222.061783,-1554.432478,-9729.412825
810.780532,-962.267725,-1184.329507,-9959.241474
810.780852,740.205942,1480.411884,-9652.803275
810.781172,2960.823768,3330.926739,-10725.336972
810.781492,3627.009116,3997.112087,-10189.070123
810.781812,740.205942,2664.741391,-10112.460574
810.782132,666.185348,296.082377,-9652.803275
810.782452,2442.679609,-1628.453072,-9499.584175
810.782772,1998.556043,-2442.679609,-9576.193725
810.783092,-296.082377,-1554.432478,-9193.145976
810.783411,-888.247130,-370.102971,-9346.365076
810.783731,296.082377,2146.597232,-9499.584175
810.784051,2442.679609,2738.761985,-10112.460574
810.784371,1628.453072,2442.679609,-10418.898773
810.784691,-962.267725,1332.370696,-9806.022374
810.785011,-962.267725,740.205942,-9729.412825
810.785331,222.061783,0.000000,-9806.022374
810.785651,1110.308913,-444.123565,-10418.898773
810.785971,-1332.370696,-592.164754,-9959.241474
810.786291,-1184.329507,148.041188,-9576.193725
810.786611,-296.082377,1702.473667,-10572.117872
810.786931,888.247130,3256.906145,-10495.508323
810.787251,-296.082377,3627.009116,-10878.556072
810.787570,-2220.617826,2960.823768,-10648.727422
810.787890,-1184.329507,1702.473667,-10342.289223
810.788210,1258.350101,0.000000,-11031.775171
810.788530,1480.411884,-1480.411884,-10265.679673
810.788850,-740.205942,-2368.659014,-10495.508323
810.789170,-1184.329507,-1258.350101,-9806.022374
810.789490,814.226536,370.102971,-9806.022374
810.789810,1480.411884,1850.514855,-10648.727422
810.790130,-962.267725,2738.761985,-10495.508323
810.790450,-1776.494261,2294.638420,-10648.727422
810.790770,-1110.308913,518.144159,-9806.022374
810.791090,814.226536,-1702.473667,-9806.022374
810.791410,666.185348,-2664.741391,-9422.974625
810.791729,-666.185348,-3182.885551,-9039.926876
810.792049,1184.329507,-2220.617826,-9346.365076
810.792369,3997.112087,0.000000,-9959.241474
810.792689,4515.256246,1702.473667,-10342.289223
810.793009,1924.535449,2590.720797,-10112.460574
810.793329,444.123565,2368.659014,-9806.022374
810.793649,740.205942,740.205942,-9652.803275
810.793969,2368.659014,-1628.453072,-9882.631924
810.794289,962.267725,-2368.659014,-9882.631924
810.794609,-444.123565,-2442.679609,-9806.022374
810.794929,-148.041188,-814.226536,-9806.022374
810.795249,1776.494261,1184.329507,-10495.508323
810.795569,2220.617826,2294.638420,-10265.679673
810.795888,-370.102971,2220.617826,-10189.070123
810.796208,592.164754,888.247130,-10112.460574
810.796528,2590.720797,-740.205942,-10189.070123
810.796848,3997.112087,-2960.823768,-10418.898773
810.797168,1110.308913,-2368.659014,-10265.679673
810.797488,-888.247130,-1480.411884,-9959.241474
810.797808,296.082377,1036.288319,-10112.460574
810.798128,2738.761985,2516.700203,-11338.213370
810.798448,1776.494261,2886.803174,-10955.165621
810.798768,-740.205942,1924.535449,-10801.946522
810.799088,-2368.659014,740.205942,-10265.679673
810.799408,148.041188,-592.164754,-10265.679673
810.799727,1924.535449,-2220.617826,-10342.289223
810.800047,74.020594,-1554.432478,-10265.679673
810.800367,-2368.659014,-1628.453072,-9576.193725
810.800687,-1036.288319,-888.247130,-9806.022374
810.801007,1332.370696,518.144159,-10572.117872
810.801327,592.164754,2146.597232,-10112.460574
810.801647,-1924.535449,2294.638420,-9959.241474
810.801967,-1258.350101,2368.659014,-9729.412825
810.802287,814.226536,296.082377,-9806.022374
810.802607,1184.329507,-1924.535449,-9806.022374
810.802927,-1628.453072,-2960.823768,-9346.365076
810.803247,-2368.659014,-2442.679609,-8810.098227
810.803567,-370.102971,-370.102971,-9499.584175
810.803886,1924.535449,1406.391290,-10189.070123
810.804206,-444.123565,2368.659014,-10035.851024
810.804526,-2442.679609,1258.350101,-10035.851024
810.804846,-1628.453072,518.144159,-9882.631924
810.805166,1110.308913,-592.164754,-10265.679673
810.805486,1036.288319,-1036.288319,-10189.070123
810.805806,-444.123565,-592.164754,-9882.631924
810.806126,-444.123565,962.267725,-9806.022374
810.806446,1184.329507,1850.514855,-10648.727422
810.806766,962.267725,1554.432478,-10495.508323
810.807086,-1406.391290,962.267725,-10265.679673
810.807406,-1554.432478,592.164754,-10189.070123
810.807726,-444.123565,740.205942,-10112.460574
810.808045,2294.638420,296.082377,-10648.727422
810.808365,1480.411884,888.247130,-10189.070123
810.808685,-444.123565,666.185348,-10572.117872
810.809005,0.000000,1184.329507,-10189.070123
810.809325,2072.576638,1628.453072,-10878.556072
810.809645,2738.761985,2220.617826,-10265.679673
810.809965,518.144159,1702.473667,-10418.898773
810.810285,296.082377,592.164754,-10035.851024
810.810605,2368.659014,74.020594,-10112.460574
810.810925,3923.091493,-148.041188,-10418.898773
810.811245,1702.473667,740.205942,-9959.241474
810.811565,74.020594,666.185348,-9806.022374
810.811885,370.102971,1332.370696,-9729.412825
810.812204,2590.720797,2294.638420,-10572.117872
810.812524,2590.720797,2146.597232,-10112.460574
810.812844,-148.041188,1480.411884,-10112.460574
810.813164,666.185348,-296.082377,-9193.145976
810.813484,2368.659014,-666.185348,-9346.365076
810.813804,3997.112087,0.000000,-10265.679673
810.814124,1480.411884,888.247130,-10035.851024
810.814444,-888.247130,1628.453072,-10265.679673
810.814764,1258.350101,2960.823768,-9959.241474
810.815084,2664.741391,2516.700203,-11031.775171
810.815404,2220.617826,1628.453072,-10189.070123
810.815724,-370.102971,222.061783,-10265.679673
810.816044,-444.123565,518.144159,-9116.536426
810.816363,1184.329507,0.000000,-10265.679673
810.816683,2368.659014,222.061783,-10648.727422
810.817003,-444.123565,1184.329507,-10342.289223
810.817323,-2368.659014,2294.638420,-10418.898773
810.817643,-1332.370696,1998.556043,-9959.241474
810.817963,888.247130,2072.576638,-10648.727422
810.818283,444.123565,1924.535449,-10189.070123
810.818603,-1406.391290,-296.082377,-9652.803275
810.818923,444.123565,-1924.535449,-9652.803275
810.819243,1110.308913,-2146.597232,-9806.022374
810.819563,592.164754,-2220.617826,-9499.584175
810.819883,-2072.576638,-296.082377,-9116.536426
810.820203,-2368.659014,1480.411884,-9346.365076
810.820522,0.000000,2442.679609,-9499.584175
810.820842,1332.370696,1480.411884,-10035.851024
810.821162,222.061783,518.144159,-9652.803275
810.821482,-1258.350101,-1184.329507,-9652.803275
810.821802,0.000000,-1332.370696,-8886.707777
810.822122,2294.638420,-1554.432478,-9959.241474
810.822442,2368.659014,-1184.329507,-10112.460574
810.822762,-740.205942,-444.123565,-9882.631924
810.823082,-1110.308913,444.123565,-9806.022374
810.823402,370.102971,1554.432478,-10418.898773
810.823722,1480.411884,1480.411884,-10955.165621
810.824042,296.082377,1258.350101,-10495.508323
810.824361,-444.123565,0.000000,-10418.898773
810.824681,1110.308913,-518.144159,-10495.508323
810.825001,2442.679609,-1184.329507,-10495.508323
810.825321,1702.473667,-1036.288319,-10342.289223
810.825641,-518.144159,-814.226536,-10418.898773
810.825961,-666.185348,814.226536,-10035.851024
810.826281,1184.329507,1110.308913,-10572.117872
810.826601,1924.535449,814.226536,-10725.336972
810.826921,-222.061783,444.123565,-10342.289223
810.827241,-1036.288319,-888.247130,-10495.508323
810.827561,592.164754,-1554.432478,-10035.851024
810.827881,2368.659014,-2146.597232,-10342.289223
810.828201,1406.391290,-1628.453072,-10112.460574
810.828520,-370.102971,-1776.494261,-9959.241474
810.828840,74.020594,-592.164754,-9806.022374
810.829160,2220.617826,-370.102971,-10342.289223
810.829480,3182.885551,-370.102971,-10112.460574
810.829800,1332.370696,-592.164754,-10112.460574
810.830120,518.144159,-1110.308913,-9882.631924
810.830440,1480.411884,-1110.308913,-10648.727422
810.830760,2146.597232,-1554.432478,-9806.022374
810.831080,-148.041188,-1776.494261,-9882.631924
810.831400,-1776.494261,-1776.494261,-9576.193725
810.831720,-370.102971,-518.144159,-8503.660028
810.832040,1702.473667,296.082377,-10418.898773
810.832360,1258.350101,222.061783,-10342.289223
810.832679,-888.247130,-592.164754,-9729.412825
810.832999,-1258.350101,-2072.576638,-9882.631924
810.833319,962.267725,-1628.453072,-9576.193725
810.833639,1924.535449,-1184.329507,-9959.241474
810.833959,370.102971,0.000000,-9959.241474
810.834279,-888.247130,1258.350101,-10189.070123
810.834599,444.123565,2220.617826,-11644.651570
810.834919,740.205942,1184.329507,-10878.556072
810.835239,-962.267725,-444.123565,-10112.460574
810.835559,-3923.091493,-1406.391290,-10265.679673
810.835879,-2960.823768,-814.226536,-10112.460574
810.836198,-518.144159,222.061783,-10189.070123
810.836518,888.247130,592.164754,-10189.070123
810.836838,-962.267725,370.102971,-10189.070123
810.837158,-2220.617826,-296.082377,-10112.460574
810.837478,444.123565,-444.123565,-9882.631924
810.837798,2146.597232,1184.329507,-10342.289223
810.838118,0.000000,1850.514855,-10035.851024
810.838438,-1110.308913,1554.432478,-10112.460574
810.838757,0.000000,1776.494261,-9346.365076
810.839077,1480.411884,-666.185348,-9959.241474
810.839397,1776.494261,-1184.329507,-9729.412825
810.839717,-222.061783,0.000000,-9959.241474
810.840037,-296.082377,2738.761985,-9729.412825
810.840357,2146.597232,3478.967927,-9806.022374
810.840677,2886.803174,2294.638420,-10495.508323
810.840997,1184.329507,1702.473667,-9959.241474
810.841317,-1924.535449,888.247130,-9499.584175
810.841636,-1110.308913,148.041188,-9346.365076
810.841956,1332.370696,1554.432478,-10342.289223
810.842276,1998.556043,1702.473667,-10112.460574
810.842596,148.041188,-740.205942,-9806.022374
810.842916,1184.329507,222.061783,-10035.851024
810.843236,2146.597232,222.061783,-9959.241474
810.843556,2664.741391,296.082377,-10265.679673
810.843876,740.205942,4811.338623,-10342.289223
810.844195,296.082377,2368.659014,-10112.460574
810.844515,1924.535449,2146.597232,-10189.070123
810.844835,3701.029710,148.041188,-10342.289223
810.845155,3034.844362,-1110.308913,-10265.679673
810.845475,0.000000,-888.247130,-10265.679673
810.845795,740.205942,1110.308913,-9806.022374
810.846115,1628.453072,2072.576638,-10035.851024
810.846435,1702.473667,1036.288319,-10725.336972
810.846755,148.041188,2368.659014,-10648.727422
810.847074,-370.102971,1110.308913,-10495.508323
810.847394,888.247130,444.123565,-9499.584175
810.847714,2442.679609,0.000000,-10572.117872
810.848034,2664.741391,-888.247130,-9806.022374
810.848354,-1110.308913,-888.247130,-9729.412825
810.848674,2442.679609,1332.370696,-9806.022374
810.848994,1184.329507,1332.370696,-9959.241474
810.849314,1332.370696,1850.514855,-10572.117872
810.849633,-2220.617826,1554.432478,-9806.022374
810.849953,-2516.700203,296.082377,-9576.193725
810.850273,-222.061783,1924.535449,-10112.460574
810.850593,1332.370696,0.000000,-9806.022374
810.850913,0.000000,-1924.535449,-9806.022374
810.851233,-1110.308913,-2368.659014,-9729.412825
810.851553,-814.226536,-2220.617826,-9346.365076
810.851873,0.000000,518.144159,-9959.241474
810.852193,-148.041188,1776.494261,-9959.241474
810.852512,-1332.370696,2220.617826,-10112.460574
810.852832,-1036.288319,1110.308913,-10265.679673
810.853152,370.102971,-1184.329507,-10189.070123
810.853472,2220.617826,-2072.576638,-10035.851024
810.853792,-1036.288319,-1332.370696,-10189.070123
810.854112,-2590.720797,-1480.411884,-9652.803275
810.854432,-444.123565,1110.308913,-9882.631924
810.854752,370.102971,592.164754,-10418.898773
810.855071,-592.164754,370.102971,-9729.412825
810.855391,-1480.411884,0.000000,-10418.898773
810.855711,74.020594,-296.082377,-10112.460574
810.856031,1184.329507,-666.185348,-10342.289223
810.856351,2146.597232,-296.082377,-10189.070123
810.856671,0.000000,-518.144159,-10265.679673
810.856991,0.000000,-814.226536,-10189.070123
810.857311,1406.391290,444.123565,-8886.707777
810.857631,2072.576638,888.247130,-10648.727422
810.857950,-148.041188,1480.411884,-10189.070123
810.858270,-1036.288319,740.205942,-9882.631924
810.858590,74.020594,0.000000,-10035.851024
810.858910,1628.453072,-814.226536,-10725.336972
810.859230,1258.350101,-1850.514855,-10035.851024
810.859550,-888.247130,-962.267725,-9806.022374
810.859870,962.267725,370.102971,-9806.022374
810.860190,2960.823768,1924.535449,-11644.651570
810.860509,3701.029710,1480.411884,-10495.508323
810.860829,1258.350101,592.164754,-9806.022374
810.861149,0.000000,-296.082377,-9959.241474
810.861469,1628.453072,-592.164754,-8733.488677
810.861789,3478.967927,-888.247130,-9959.241474
810.862109,1998.556043,-370.102971,-10112.460574
810.862429,-592.164754,-296.082377,-9806.022374
810.862749,-370.102971,74.020594,-9806.022374
810.863069,2072.576638,1036.288319,-10112.460574
810.863388,2072.576638,1332.370696,-10878.556072
810.863708,0.000000,1258.350101,-10035.851024
810.864028,-814.226536,888.247130,-9959.241474
810.864348,888.247130,370.102971,-10035.851024
810.864668,2442.679609,-370.102971,-10418.898773
810.864988,1110.308913,-222.061783,-10265.679673
810.865308,-592.164754,74.020594,-10035.851024
810.865628,814.226536,1332.370696,-9959.241474
810.865947,2294.638420,2294.638420,-9882.631924
810.866267,1184.329507,2220.617826,-10648.727422
810.866587,-1480.411884,1924.535449,-10265.679673
810.866907,-1850.514855,888.247130,-9959.241474
810.867227,0.000000,592.164754,-9806.022374
810.867547,518.144159,-592.164754,-10189.070123
810.867867,-888.247130,-592.164754,-9882.631924
810.868187,-1406.391290,-444.123565,-9806.022374
810.868507,222.061783,888.247130,-10265.679673
810.868826,2368.659014,1628.453072,-10342.289223
810.869146,1554.432478,2516.700203,-10112.460574
810.869466,-1036.288319,1998.556043,-10418.898773
810.869786,-1332.370696,0.000000,-9499.584175
810.870106,0.000000,-888.247130,-11184.994271
810.870426,1554.432478,-1406.391290,-10035.851024
810.870746,-518.144159,-1184.329507,-9806.022374
810.871066,-888.247130,0.000000,-10112.460574
810.871385,370.102971,518.144159,-9882.631924
810.871705,2072.576638,1258.350101,-10418.898773
810.872025,74.020594,2442.679609,-10495.508323
810.872345,-2146.597232,2072.576638,-10265.679673
810.872665,-1776.494261,518.144159,-9959.241474
810.872985,1776.494261,-370.102971,-9882.631924
810.873305,1554.432478,-3034.844362,-9882.631924
810.873625,-1110.308913,-1184.329507,-9959.241474
810.873945,-1184.329507,296.082377,-9499.584175
810.874264,1924.535449,2146.597232,-10265.679673
810.874584,4145.153275,3330.926739,-11184.994271
810.874904,-296.082377,2960.823768,-10418.898773
810.875224,-1776.494261,444.123565,-10035.851024
810.875544,888.247130,-1628.453072,-9729.412825
810.875864,4737.318029,-1776.494261,-10189.070123
810.876184,2368.659014,-4145.153275,-9499.584175
810.876504,-148.041188,-3034.844362,-9806.022374
810.876823,592.164754,0.000000,-10035.851024
810.877143,1480.411884,1258.350101,-10189.070123
810.877463,1480.411884,1258.350101,-10648.727422
810.877783,148.041188,1332.370696,-10189.070123
810.878103,-296.082377,592.164754,-9806.022374
810.878423,1998.556043,148.041188,-9806.022374
810.878743,1776.494261,-962.267725,-11644.651570
810.879063,1036.288319,-1628.453072,-10035.851024
810.879383,-1110.308913,-1850.514855,-9882.631924
810.879702,740.205942,74.020594,-9959.241474
810.880022,3256.906145,1406.391290,-10801.946522
810.880342,2220.617826,3330.926739,-11261.603821
810.880662,-1998.556043,2368.659014,-10342.289223
810.880982,-1406.391290,1406.391290,-9882.631924
810.881302,888.247130,0.000000,-9652.803275
810.881622,3552.988522,-1998.556043,-9959.241474
810.881942,1776.494261,-2072.576638,-9729.412825
810.882261,-148.041188,-2442.679609,-9652.803275
810.882581,370.102971,-1406.391290,-9193.145976
810.882901,2368.659014,296.082377,-9806.022374
810.883221,962.267725,1184.329507,-9729.412825
810.883541,-1702.473667,1850.514855,-9959.241474
810.883861,-1036.288319,888.247130,-9882.631924
810.884181,814.226536,0.000000,-9959.241474
810.884501,1110.308913,-1850.514855,-10189.070123
810.884821,-148.041188,-2146.597232,-9422.974625
810.885140,-1258.350101,-2368.659014,-9729.412825
810.885460,444.123565,-370.102971,-9959.241474
810.885780,1702.473667,1850.514855,-10648.727422
810.886100,888.247130,2294.638420,-10418.898773
810.886420,-1480.411884,1998.556043,-10725.336972
810.886740,-444.123565,1702.473667,-10495.508323
810.887060,1480.411884,814.226536,-10878.556072
810.887380,1776.494261,-592.164754,-10725.336972
810.887699,-814.226536,-296.082377,-10189.070123
810.888019,-2220.617826,-814.226536,-10265.679673
810.888339,222.061783,518.144159,-10342.289223
810.888659,1850.514855,1406.391290,-11721.261119
810.888979,444.123565,2072.576638,-10648.727422
810.889299,-2590.720797,1776.494261,-9882.631924
810.889619,-2368.659014,1332.370696,-10265.679673
810.889939,1036.288319,-296.082377,-9652.803275
810.890259,1776.494261,-1406.391290,-10035.851024
810.890578,222.061783,-1702.473667,-9422.974625
810.890898,-296.082377,-1258.350101,-9729.412825
810.891218,1258.350101,370.102971,-10189.070123
810.891538,1480.411884,148.041188,-10112.460574
810.891858,-888.247130,1184.329507,-9652.803275
810.892178,-2146.597232,962.267725,-9729.412825
810.892498,0.000000,592.164754,-9806.022374
810.892818,3108.864956,296.082377,-9882.631924
810.893137,2886.803174,-814.226536,-9806.022374
810.893457,74.020594,-370.102971,-10112.460574
810.893777,74.020594,444.123565,-9729.412825
810.894097,1702.473667,1110.308913,-10112.460574
810.894417,1702.473667,1036.288319,-10112.460574
810.894737,740.205942,1184.329507,-9959.241474
810.895057,-222.061783,222.061783,-10035.851024
810.895377,1184.329507,888.247130,-9729.412825
810.895697,1924.535449,740.205942,-10801.946522
810.896016,1258.350101,1554.432478,-9806.022374
810.896336,-740.205942,1480.411884,-9806.022374
810.896656,370.102971,1850.514855,-9959.241474
810.896976,2516.700203,1702.473667,-10189.070123
810.897296,2886.803174,1332.370696,-10418.898773
810.897616,666.185348,0.000000,-9806.022374
810.897936,148.041188,-148.041188,-9729.412825
810.898256,1332.370696,0.000000,-10112.460574
810.898575,2294.638420,296.082377,-10189.070123
810.898895,666.185348,592.164754,-10035.851024
810.899215,-296.082377,666.185348,-10189.070123
810.899535,888.247130,962.267725,-10112.460574
810.899855,1332.370696,1628.453072,-10418.898773
810.900175,444.123565,592.164754,-10342.289223
810.900495,-1036.288319,370.102971,-10035.851024
810.900815,0.000000,666.185348,-10265.679673
810.901135,1332.370696,444.123565,-10342.289223
810.901454,1628.453072,222.061783,-9806.022374
810.901774,-444.123565,-1554.432478,-10035.851024
810.902094,-666.185348,-1036.288319,-9652.803275
810.902414,592.164754,888.247130,-10112.460574
810.902734,1406.391290,1924.535449,-10418.898773
810.903054,1110.308913,2220.617826,-9806.022374
810.903374,-740.205942,296.082377,-9959.241474
810.903694,0.000000,-1258.350101,-9576.193725
810.904013,814.226536,-2072.576638,-9806.022374
810.904333,0.000000,-1036.288319,-9806.022374
810.904653,-740.205942,-296.082377,-9576.193725
810.904973,-666.185348,-296.082377,-9806.022374
810.905293,518.144159,518.144159,-9806.022374
810.905613,222.061783,296.082377,-10418.898773
810.905933,-2368.659014,1184.329507,-9806.022374
810.906253,-2812.782580,0.000000,-10035.851024
810.906573,518.144159,444.123565,-9806.022374
810.906892,2886.803174,296.082377,-10801.946522
810.907212,2220.617826,-518.144159,-10725.336972
810.907532,-370.102971,-814.226536,-10035.851024
810.907852,-592.164754,-296.082377,-10418.898773
810.908172,0.000000,1258.350101,-10648.727422
810.908492,592.164754,1554.432478,-10955.165621
810.908812,370.102971,1554.432478,-10495.508323
810.909132,-444.123565,222.061783,-10725.336972
810.909451,1406.391290,-1480.411884,-10112.460574
810.909771,2368.659014,-1554.432478,-10878.556072
810.910091,1924.535449,-148.041188,-10495.508323
810.910411,-148.041188,0.000000,-10418.898773
810.910731,444.123565,962.267725,-9882.631924
810.911051,1998.556043,1776.494261,-10418.898773
810.911371,2590.720797,1702.473667,-10265.679673
810.911691,0.000000,296.082377,-9806.022374
810.912011,-518.144159,-1258.350101,-9806.022374
810.912330,666.185348,-2072.576638,-9576.193725
810.912650,1628.453072,-2368.659014,-10035.851024
810.912970,370.102971,-1036.288319,-9346.365076
810.913290,-962.267725,74.020594,-9576.193725
810.913610,-296.082377,1184.329507,-9499.584175
810.913930,1258.350101,2368.659014,-10112.460574
810.914250,962.267725,1702.473667,-9959.241474
810.914570,-1332.370696,1110.308913,-9499.584175
810.914889,-370.102971,-740.205942,-9576.193725
810.915209,2220.617826,-2146.597232,-9422.974625
810.915529,3404.947333,-3182.885551,-10265.679673
810.915849,1850.514855,-1702.473667,-9576.193725
810.916169,-1776.494261,888.247130,-9959.241474
810.916489,-1480.411884,3108.864956,-9806.022374
810.916809,-740.205942,3478.967927,-10648.727422
810.917129,-740.205942,2146.597232,-10418.898773
810.917449,-814.226536,74.020594,-10035.851024
810.917768,0.000000,-1776.494261,-10189.070123
810.918088,2294.638420,-1776.494261,-10495.508323
810.918408,1480.411884,-1628.453072,-10572.117872
810.918728,-296.082377,814.226536,-10878.556072
810.919048,-1480.411884,2886.803174,-10878.556072
810.919368,0.000000,3404.947333,-10572.117872
810.919688,2294.638420,3404.947333,-11338.213370
810.920008,1702.473667,3256.906145,-10342.289223
810.920327,-1332.370696,1184.329507,-10418.898773
810.920647,370.102971,-1184.329507,-9882.631924
810.920967,2072.576638,-2368.659014,-10189.070123
810.921287,1924.535449,-1480.411884,-10265.679673
810.921607,-814.226536,-444.123565,-9346.365076
810.921927,-444.123565,888.247130,-9729.412825
810.922247,1258.350101,2738.761985,-9806.022374
810.922567,2294.638420,3997.112087,-10495.508323
810.922887,1776.494261,3552.988522,-10189.070123
810.923206,-370.102971,1628.453072,-10035.851024
810.923526,1480.411884,0.000000,-9346.365076
810.923846,2294.638420,-1554.432478,-9422.974625
810.924166,2590.720797,-1406.391290,-8503.660028
810.924486,222.061783,-666.185348,-9499.584175
810.924806,148.041188,444.123565,-9729.412825
810.925126,1924.535449,1924.535449,-9806.022374
810.925446,1776.494261,2220.617826,-10189.070123
810.925765,148.041188,1554.432478,-9499.584175
810.926085,-962.267725,370.102971,-9729.412825
810.926405,888.247130,-296.082377,-9499.584175
810.926725,2590.720797,-814.226536,-10342.289223
810.927045,1036.288319,-962.267725,-10189.070123
810.927365,-1554.432478,-962.267725,-9959.241474
810.927685,-1036.288319,-148.041188,-10189.070123
810.928005,814.226536,1628.453072,-10418.898773
810.928325,1480.411884,2146.597232,-10878.556072
810.928644,-444.123565,2146.597232,-10342.289223
810.928964,-814.226536,296.082377,-10418.898773
810.929284,1184.329507,-592.164754,-10265.679673
810.929604,2886.803174,-1332.370696,-10801.946522
810.929924,1184.329507,-518.144159,-10572.117872
810.930244,-2146.597232,666.185348,-10342.289223
810.930564,-1184.329507,1628.453072,-9882.631924
810.930884,1998.556043,2664.741391,-10418.898773
810.931203,2368.659014,2590.720797,-10878.556072
810.931523,370.102971,1554.432478,-10265.679673
810.931843,-444.123565,-222.061783,-9959.241474
810.932163,962.267725,-1258.350101,-9806.022374
810.932483,1628.453072,-1702.473667,-10189.070123
810.932803,0.000000,-814.226536,-10648.727422
810.933123,-2146.597232,-888.247130,-9806.022374
810.933443,-222.061783,74.020594,-9729.412825
810.933763,2294.638420,962.267725,-10189.070123
810.934083,1924.535449,888.247130,-10035.851024
810.934403,-592.164754,592.164754,-10342.289223
810.934723,148.041188,-1258.350101,-9806.022374
810.935043,2220.617826,-1998.556043,-9729.412825
810.935363,2220.617826,-2738.761985,-10035.851024
810.935683,0.000000,-148.041188,-9422.974625
810.936003,-1406.391290,0.000000,-9729.412825
810.936323,74.020594,1184.329507,-9806.022374
810.936643,1184.329507,1850.514855,-10035.851024
810.936963,148.041188,0.000000,-10955.165621
810.937283,-1110.308913,-1628.453072,-9729.412825
810.937603,0.000000,-1850.514855,-10112.460574
810.937923,1628.453072,-962.267725,-10342.289223
810.938243,1184.329507,296.082377,-10495.508323
810.938563,-962.267725,962.267725,-10035.851024
810.938883,-1406.391290,1332.370696,-10112.460574
810.939203,-296.082377,1258.350101,-10265.679673
810.939523,888.247130,1258.350101,-10801.946522
810.939843,-222.061783,740.205942,-10342.289223
810.940163,-1702.473667,666.185348,-10725.336972
810.940483,148.041188,-222.061783,-10418.898773
810.940803,1924.535449,-1258.350101,-10342.289223
810.941123,962.267725,-962.267725,-10265.679673
810.941443,-1258.350101,-962.267725,-10112.460574
810.941763,-1480.411884,296.082377,-10035.851024
810.942083,740.205942,1554.432478,-10342.289223
810.942403,1628.453072,1332.370696,-10955.165621
810.942723,518.144159,592.164754,-9959.241474
810.943043,-148.041188,-1036.288319,-10035.851024
810.943364,888.247130,-1554.432478,-9806.022374
810.943684,1332.370696,-1406.391290,-10265.679673
810.944004,-444.123565,-740.205942,-9959.241474
810.944324,-2368.659014,0.000000,-9652.803275
810.944644,-888.247130,1184.329507,-10035.851024
810.944964,1332.370696,1924.535449,-10189.070123
810.945284,2220.617826,1036.288319,-10495.508323
810.945604,1036.288319,666.185348,-9269.755526
810.945924,-518.144159,-444.123565,-9652.803275
810.946244,148.041188,-814.226536,-9806.022374
810.946564,1776.494261,-1406.391290,-9806.022374
810.946884,962.267725,444.123565,-10035.851024
810.947204,-518.144159,1850.514855,-9806.022374
810.947524,0.000000,2368.659014,-10265.679673
810.947844,2664.741391,2664.741391,-10955.165621
810.948164,2442.679609,1628.453072,-10572.117872
810.948484,1036.288319,1258.350101,-10112.460574
810.948804,-296.082377,-296.082377,-10572.117872
810.949124,444.123565,0.000000,-9806.022374
810.949444,666.185348,-1184.329507,-10265.679673
810.949764,148.041188,-740.205942,-9039.926876
810.950084,-1554.432478,518.144159,-9882.631924
810.950404,0.000000,1332.370696,-10418.898773
810.950724,1554.432478,2220.617826,-10265.679673
810.951044,1998.556043,888.247130,-10418.898773
810.951364,-296.082377,518.144159,-9806.022374
810.951684,-1258.350101,-1702.473667,-9806.022374
810.952004,222.061783,-2220.617826,-9422.974625
810.952324,2072.576638,-1406.391290,-9806.022374
810.952644,518.144159,666.185348,-9806.022374
810.952964,0.000000,1998.556043,-10418.898773
810.953285,2368.659014,3775.050304,-10495.508323
810.953605,3404.947333,3627.009116,-10418.898773
810.953925,2442.679609,2294.638420,-10035.851024
810.954245,0.000000,1258.350101,-9806.022374
810.954565,-148.041188,-1110.308913,-9576.193725
810.954885,740.205942,-1258.350101,-9882.631924
810.955205,1628.453072,-888.247130,-9882.631924
810.955525,-518.144159,592.164754,-9806.022374
810.955845,-592.164754,1110.308913,-10035.851024
810.956165,592.164754,2072.576638,-10035.851024
810.956485,1702.473667,3108.864956,-10495.508323
810.956805,0.000000,2368.659014,-10265.679673
810.957125,-1776.494261,222.061783,-10572.117872
810.957445,0.000000,-1628.453072,-9959.241474
810.957765,1480.411884,-2664.741391,-10342.289223
810.958085,1776.494261,-2886.803174,-9806.022374
810.958405,-592.164754,-888.247130,-10725.336972
810.958725,-148.041188,1850.514855,-10265.679673
810.959045,1776.494261,2812.782580,-10725.336972
810.959365,3404.947333,2072.576638,-11031.775171
810.959685,1184.329507,370.102971,-10265.679673
810.960005,-1702.473667,-1332.370696,-10572.117872
810.960325,-1258.350101,-1406.391290,-9729.412825
810.960645,0.000000,-962.267725,-10265.679673
810.960965,-518.144159,-518.144159,-10035.851024
810.961285,-2220.617826,592.164754,-9193.145976
810.961605,-740.205942,-296.082377,-9806.022374
810.961925,1480.411884,814.226536,-9806.022374
810.962245,2368.659014,1554.432478,-10572.117872
810.962565,74.020594,1702.473667,-10418.898773
810.962886,-814.226536,518.144159,-9882.631924
810.963206,0.000000,-444.123565,-9729.412825
810.963526,1628.453072,-1998.556043,-10112.460574
810.963846,1184.329507,-1776.494261,-9652.803275
810.964166,444.123565,-666.185348,-11491.432470
810.964486,1628.453072,592.164754,-10418.898773
810.964806,3034.844362,1924.535449,-10801.946522
810.965126,2368.659014,1554.432478,-10648.727422
810.965446,74.020594,296.082377,-9882.631924
810.965766,-592.164754,-962.267725,-9882.631924
810.966086,1110.308913,-1332.370696,-10035.851024
810.966406,1924.535449,-1998.556043,-10342.289223
810.966726,222.061783,-962.267725,-9806.022374
810.967046,370.102971,-518.144159,-10495.508323
810.967366,1480.411884,1924.535449,-10035.851024
810.967686,2368.659014,2960.823768,-11184.994271
810.968006,740.205942,1702.473667,-10342.289223
810.968326,-1110.308913,814.226536,-10112.460574
810.968646,-740.205942,-666.185348,-10265.679673
810.968966,-444.123565,-1850.514855,-9806.022374
810.969286,370.102971,-1702.473667,-10112.460574
810.969606,0.000000,-1332.370696,-9882.631924
810.969926,740.205942,-222.061783,-9806.022374
810.970246,2072.576638,1850.514855,-10189.070123
810.970566,1998.556043,2664.741391,-10648.727422
810.970886,74.020594,2738.761985,-10495.508323
810.971206,-1850.514855,1406.391290,-9346.365076
810.971526,-962.267725,-592.164754,-9806.022374
810.971846,-148.041188,-1258.350101,-9576.193725
810.972166,-740.205942,-1628.453072,-9959.241474
810.972487,-1998.556043,-814.226536,-9422.974625
810.972807,-1110.308913,444.123565,-9422.974625
810.973127,1850.514855,1554.432478,-10189.070123
810.973447,2368.659014,1480.411884,-10495.508323
810.973767,-666.185348,1850.514855,-10112.460574
810.974087,-2368.659014,1110.308913,-11338.213370
810.974407,-888.247130,518.144159,-9959.241474
810.974727,-296.082377,-1110.308913,-9959.241474
810.975047,-1184.329507,-2590.720797,-9806.022374
810.975367,74.020594,-1628.453072,-8656.879127
810.975687,2072.576638,-222.061783,-10495.508323
810.976007,2590.720797,1628.453072,-10495.508323
810.976327,2072.576638,3182.885551,-11184.994271
810.976647,-148.041188,3330.926739,-10572.117872
810.976967,-1184.329507,2442.679609,-9806.022374
810.977287,-296.082377,1184.329507,-10265.679673
810.977607,962.267725,-1110.308913,-10189.070123
810.977927,888.247130,-2072.576638,-9806.022374
810.978247,888.247130,-1110.308913,-9959.241474
810.978567,2442.679609,74.020594,-9959.241474
810.978887,2960.823768,2294.638420,-10112.460574
810.979207,1924.535449,3552.988522,-10418.898773
810.979527,0.000000,4145.153275,-10035.851024
810.979847,666.185348,1850.514855,-9882.631924
810.980167,1332.370696,-444.123565,-9806.022374
810.980487,1406.391290,-2812.782580,-9499.584175
810.980807,962.267725,-2738.761985,-9806.022374
810.981127,1184.329507,-1110.308913,-9116.536426
810.981447,2664.741391,888.247130,-9499.584175
810.981767,3849.070898,3627.009116,-10342.289223
810.982087,1406.391290,3256.906145,-10189.070123
810.982408,-888.247130,1998.556043,-9806.022374
810.982728,-814.226536,814.226536,-9499.584175
810.983048,0.000000,-1258.350101,-9806.022374
810.983368,740.205942,-2812.782580,-10189.070123
810.983688,888.247130,-2442.679609,-9269.755526
810.984008,740.205942,-1184.329507,-10801.946522
810.984328,1480.411884,1036.288319,-9729.412825
810.984648,1480.411884,3256.906145,-10955.165621
810.984968,370.102971,2664.741391,-10801.946522
810.985288,-1776.494261,2220.617826,-10418.898773
810.985608,-1184.329507,0.000000,-10725.336972
810.985928,0.000000,-2294.638420,-10495.508323
810.986248,1110.308913,-2960.823768,-10035.851024
810.986568,-740.205942,-1850.514855,-10035.851024
810.986888,-296.082377,666.185348,-9882.631924
810.987208,1406.391290,2072.576638,-10112.460574
810.987528,1258.350101,3627.009116,-11108.384721
810.987848,0.000000,2886.803174,-10572.117872
810.988168,-1924.535449,1924.535449,-10648.727422
810.988488,-1036.288319,-1332.370696,-9806.022374
810.988808,222.061783,-3182.885551,-9882.631924
810.989128,1110.308913,-3108.864956,-9806.022374
810.989448,370.102971,-2220.617826,-9882.631924
810.989768,0.000000,666.185348,-10035.851024
810.990088,888.247130,2590.720797,-10648.727422
810.990408,592.164754,3404.947333,-10572.117872
810.990728,-888.247130,2368.659014,-10342.289223
810.991048,-1332.370696,222.061783,-9806.022374
810.991368,296.082377,-2220.617826,-9422.974625
810.991688,1332.370696,-3478.967927,-9806.022374
810.992009,2146.597232,-3923.091493,-9806.022374
810.992329,1554.432478,-2590.720797,-9806.022374
810.992649,962.267725,0.000000,-9806.022374
810.992969,1850.514855,2072.576638,-10112.460574
810.993289,1702.473667,2516.700203,-10648.727422
810.993609,148.041188,1776.494261,-9882.631924
810.993929,-814.226536,370.102971,-10342.289223
810.994249,74.020594,-1776.494261,-9806.022374
810.994569,1406.391290,-3182.885551,-10265.679673
810.994889,2072.576638,-2664.741391,-9806.022374
810.995209,74.020594,-962.267725,-10342.289223
810.995529,148.041188,1406.391290,-10725.336972
810.995849,370.102971,3256.906145,-10418.898773
810.996169,888.247130,3256.906145,-10572.117872
810.996489,518.144159,3182.885551,-10572.117872
810.996809,-74.020594,-222.061783,-9882.631924
810.997129,888.247130,-2294.638420,-9729.412825
810.997449,814.226536,-3256.906145,-9499.584175
810.997769,370.102971,-1924.535449,-9882.631924
810.998089,444.123565,0.000000,-10035.851024
810.998409,1776.494261,666.185348,-10035.851024
810.998729,1850.514855,2812.782580,-10265.679673
810.999049,888.247130,2738.761985,-10572.117872
810.999369,-962.267725,1702.473667,-9806.022374
810.999689,-2368.659014,296.082377,-9806.022374
811.000009,-1332.370696,-1480.411884,-9806.022374
811.000329,592.164754,-2294.638420,-10035.851024
811.000649,296.082377,-1776.494261,-9806.022374
811.000969,0.000000,-1332.370696,-9729.412825
811.001289,962.267725,1406.391290,-9806.022374
811.001610,1998.556043,3256.906145,-10495.508323
811.001930,1184.329507,3256.906145,-10801.946522
811.002250,-1554.432478,2738.761985,-10265.679673
811.002570,-2442.679609,740.205942,-10112.460574
811.002890,0.000000,-148.041188,-10035.851024
811.003210,1702.473667,-1406.391290,-10418.898773
811.003530,1258.350101,-1184.329507,-9882.631924
811.003850,444.123565,0.000000,-10418.898773
811.004170,-296.082377,1850.514855,-10112.460574
811.004490,-444.123565,3404.947333,-10725.336972
811.004810,-222.061783,3701.029710,-10418.898773
811.005130,-740.205942,2442.679609,-10342.289223
811.005450,-962.267725,-740.205942,-9269.755526
811.005770,814.226536,-2590.720797,-9959.241474
811.006090,2146.597232,-2442.679609,-9652.803275
811.006410,1924.535449,-1628.453072,-10035.851024
811.006730,1406.391290,666.185348,-9959.241474
811.007050,1776.494261,2220.617826,-9882.631924
811.007370,2072.576638,2590.720797,-10878.556072
811.007690,814.226536,2368.659014,-10342.289223
811.008010,-1184.329507,740.205942,-9882.631924
811.008330,0.000000,74.020594,-9806.022374
811.008650,1332.370696,-296.082377,-9959.241474
811.008970,1628.453072,-444.123565,-10342.289223
811.009290,0.000000,-1110.308913,-9729.412825
811.009610,-370.102971,-740.205942,-9882.631924
811.009930,1110.308913,592.164754,-9499.584175
811.010250,2294.638420,1776.494261,-10112.460574
811.010570,1850.514855,3182.885551,-10035.851024
811.010890,592.164754,2368.659014,-10418.898773
811.011210,518.144159,1850.514855,-9806.022374
811.011531,740.205942,740.205942,-10418.898773
811.011851,666.185348,-814.226536,-9729.412825
811.012171,222.061783,-814.226536,-9652.803275
811.012491,518.144159,-666.185348,-9499.584175
811.012811,1998.556043,296.082377,-10189.070123
811.013131,1258.350101,1554.432478,-10189.070123
811.013451,-296.082377,2368.659014,-10495.508323
811.013771,-1998.556043,1628.453072,-9882.631924
811.014091,-1184.329507,0.000000,-9959.241474
811.014411,370.102971,-1702.473667,-10112.460574
811.014731,740.205942,-2664.741391,-9652.803275
811.015051,-148.041188,-1998.556043,-9882.631924
811.015371,666.185348,-592.164754,-8963.317327
811.015691,1628.453072,740.205942,-10189.070123
811.016011,2072.576638,1924.535449,-10801.946522
811.016331,1850.514855,2664.741391,-10648.727422
811.016651,1628.453072,1702.473667,-10265.679673
811.016971,1850.514855,444.123565,-10265.679673
811.017291,2072.576638,-814.226536,-10418.898773
811.017611,962.267725,-2146.597232,-10035.851024
811.017931,-740.205942,-2664.741391,-9806.022374
811.018251,-1110.308913,-1480.411884,-9576.193725
811.018571,-518.144159,666.185348,-10495.508323
811.018891,666.185348,2146.597232,-10035.851024
811.019211,444.123565,3108.864956,-10495.508323
811.019531,-1036.288319,2368.659014,-10495.508323
811.019851,0.000000,814.226536,-9652.803275
811.020171,296.082377,-1258.350101,-10189.070123
811.020491,444.123565,-3182.885551,-9882.631924
811.020811,296.082377,-3108.864956,-9806.022374
811.021132,2146.597232,-1036.288319,-9806.022374
811.021452,2146.597232,74.020594,-10112.460574
811.021772,888.247130,1998.556043,-10572.117872
811.022092,-518.144159,3552.988522,-10801.946522
811.022412,-1110.308913,4145.153275,-10725.336972
811.022732,-370.102971,2368.659014,-10572.117872
811.023052,814.226536,-148.041188,-10418.898773
811.023372,-740.205942,-2960.823768,-9806.022374
811.023692,-1184.329507,-4071.132681,-9729.412825
811.024012,-814.226536,-2664.741391,-9576.193725
811.024332,592.164754,-1110.308913,-9882.631924
811.024652,74.020594,1110.308913,-9806.022374
811.024972,-1924.535449,2146.597232,-10189.070123
811.025292,-888.247130,2590.720797,-10035.851024
811.025612,740.205942,1184.329507,-10112.460574
811.025932,1776.494261,-1110.308913,-9882.631924
811.026252,444.123565,-2516.700203,-10112.460574
811.026572,814.226536,-2738.761985,-9422.974625
811.026892,1554.432478,-1036.288319,-9806.022374
811.027212,2590.720797,0.000000,-10572.117872
811.027532,2220.617826,1776.494261,-10189.070123
811.027852,74.020594,2664.741391,-10035.851024
811.028172,-666.185348,2886.803174,-9806.022374
811.028492,148.041188,1406.391290,-10189.070123
811.028812,296.082377,-518.144159,-9882.631924
811.029132,-592.164754,-1628.453072,-9806.022374
811.029452,-740.205942,-1998.556043,-9729.412825
811.029772,666.185348,-296.082377,-9806.022374
811.030092,1776.494261,1258.350101,-10189.070123
811.030412,666.185348,3478.967927,-10418.898773
811.030732,-962.267725,2368.659014,-10112.460574
811.031053,0.000000,1628.453072,-10725.336972
811.031373,1406.391290,-740.205942,-10035.851024
811.031693,1258.350101,-1406.391290,-10112.460574
811.032013,222.061783,-1184.329507,-10112.460574
811.032333,518.144159,0.000000,-10648.727422
811.032653,592.164754,1110.308913,-10189.070123
811.032973,1554.432478,2072.576638,-11031.775171
811.033293,444.123565,2516.700203,-10112.460574
811.033613,-1258.350101,2294.638420,-9959.241474
811.033933,-666.185348,1184.329507,-10189.070123
811.034253,1480.411884,-370.102971,-10342.289223
811.034573,592.164754,-370.102971,-10189.070123
811.034893,-370.102971,-1110.308913,-10189.070123
811.035213,-370.102971,-148.041188,-9576.193725
811.035533,1628.453072,1924.535449,-11031.775171
811.035853,2442.679609,2960.823768,-10725.336972
811.036173,1332.370696,3552.988522,-10265.679673
811.036493,370.102971,2368.659014,-10112.460574
811.036813,888.247130,666.185348,-9729.412825
811.037133,1702.473667,-1850.514855,-10112.460574
811.037453,222.061783,-1850.514855,-9576.193725
811.037773,-518.144159,-1480.411884,-9806.022374
811.038093,444.123565,-666.185348,-9806.022374
811.038414,1850.514855,1184.329507,-9959.241474
811.038734,740.205942,3108.864956,-10189.070123
811.039054,-444.123565,2590.720797,-10035.851024
811.039374,-592.164754,2738.761985,-10495.508323
811.039694,444.123565,1776.494261,-9806.022374
811.040014,1850.514855,-888.247130,-10342.289223
811.040334,1110.308913,-2146.597232,-9499.584175
811.040654,444.123565,-2664.741391,-9806.022374
811.040974,2146.597232,-592.164754,-9729.412825
811.041294,2220.617826,740.205942,-10342.289223
811.041614,1702.473667,2146.597232,-10112.460574
811.041934,-814.226536,2368.659014,-10342.289223
811.042254,-1628.453072,1110.308913,-9959.241474
811.042574,222.061783,-1036.288319,-10035.851024
811.042894,740.205942,-2146.597232,-9959.241474
811.043215,222.061783,-2442.679609,-10342.289223
811.043535,-148.041188,-1702.473667,-9806.022374
811.043855,1184.329507,1332.370696,-9576.193725
811.044175,2442.679609,2368.659014,-10955.165621
811.044495,888.247130,2220.617826,-10342.289223
811.044815,-2146.597232,1036.288319,-10418.898773
811.045135,-1480.411884,0.000000,-10112.460574
811.045455,1036.288319,-1850.514855,-9652.803275
811.045775,2812.782580,-2368.659014,-10112.460574
811.046095,1258.350101,-2220.617826,-10189.070123
811.046415,74.020594,-1036.288319,-9959.241474
811.046735,1406.391290,814.226536,-9346.365076
811.047055,2294.638420,2294.638420,-10495.508323
811.047375,148.041188,2220.617826,-10342.289223
811.047695,-1998.556043,1258.350101,-10342.289223
811.048015,-370.102971,296.082377,-10265.679673
811.048336,1406.391290,-1406.391290,-9806.022374
811.048656,888.247130,-2442.679609,-9729.412825
811.048976,-518.144159,-2220.617826,-9806.022374
811.049296,-370.102971,-1332.370696,-9576.193725
811.049616,1036.288319,1258.350101,-10265.679673
811.049936,1554.432478,1406.391290,-10418.898773
811.050256,74.020594,1850.514855,-9806.022374
811.050576,-1110.308913,1406.391290,-9959.241474
811.050896,1184.329507,1332.370696,-10112.460574
811.051216,1258.350101,0.000000,-10035.851024
811.051536,1184.329507,-1406.391290,-9729.412825
811.051856,0.000000,-1628.453072,-9959.241474
811.052176,74.020594,-666.185348,-9729.412825
811.052496,1850.514855,0.000000,-10112.460574
811.052816,1702.473667,1258.350101,-10112.460574
811.053137,-592.164754,1702.473667,-10265.679673
811.053457,-2664.741391,518.144159,-10035.851024
811.053777,-1628.453072,296.082377,-9652.803275
811.054097,-444.123565,-740.205942,-10648.727422
811.054417,-296.082377,-962.267725,-9882.631924
811.054737,-518.144159,592.164754,-10112.460574
811.055057,222.061783,814.226536,-9882.631924
811.055377,2590.720797,1036.288319,-11184.994271
811.055697,2590.720797,1628.453072,-10418.898773
811.056017,-592.164754,1332.370696,-10265.679673
811.056337,-888.247130,888.247130,-9882.631924
811.056657,518.144159,518.144159,-10112.460574
811.056977,2220.617826,-222.061783,-10189.070123
811.057297,518.144159,-592.164754,-9729.412825
811.057617,-1554.432478,-1406.391290,-9806.022374
811.057938,0.000000,0.000000,-9729.412825
811.058258,1480.411884,296.082377,-9806.022374
811.058578,1480.411884,1332.370696,-10725.336972
811.058898,-592.164754,1850.514855,-10035.851024
811.059218,-1406.391290,1702.473667,-10265.679673
811.059538,1480.411884,962.267725,-10495.508323
811.059858,3404.947333,370.102971,-10495.508323
811.060178,740.205942,-296.082377,-9882.631924
811.060498,-888.247130,-888.247130,-9959.241474
811.060818,1480.411884,370.102971,-9806.022374
811.061138,2368.659014,1554.432478,-9882.631924
811.061458,888.247130,1702.473667,-10112.460574
811.061778,-518.144159,1998.556043,-10418.898773
811.062098,-888.247130,2368.659014,-10265.679673
811.062418,0.000000,592.164754,-10265.679673
811.062739,1110.308913,0.000000,-9806.022374
811.063059,296.082377,0.000000,-10648.727422
811.063379,0.000000,-1554.432478,-9499.584175
811.063699,2294.638420,-1110.308913,-10265.679673
811.064019,3701.029710,2220.617826,-11184.994271
811.064339,1924.535449,2146.597232,-10725.336972
811.064659,74.020594,2590.720797,-10495.508323
811.064979,518.144159,2886.803174,-10189.070123
811.065299,962.267725,2294.638420,-10342.289223
811.065619,1036.288319,370.102971,-10112.460574
811.065939,-222.061783,-444.123565,-9806.022374
811.066259,-1110.308913,-1110.308913,-9729.412825
811.066579,1406.391290,-1924.535449,-9729.412825
811.066899,3034.844362,-1332.370696,-9806.022374
811.067219,592.164754,444.123565,-9576.193725
811.067540,-666.185348,1776.494261,-9806.022374
811.067860,-518.144159,2368.659014,-9422.974625
811.068180,1036.288319,2516.700203,-9576.193725
811.068500,1480.411884,592.164754,-9959.241474
811.068820,-444.123565,-1184.329507,-9729.412825
811.069140,0.000000,-2294.638420,-9193.145976
811.069460,1850.514855,-1702.473667,-10035.851024
811.069780,2220.617826,-222.061783,-9576.193725
811.070100,222.061783,1406.391290,-10035.851024
811.070420,-1184.329507,2220.617826,-9882.631924
811.070740,666.185348,2146.597232,-10189.070123
811.071060,1850.514855,1110.308913,-10265.679673
811.071380,1554.432478,-888.247130,-9729.412825
811.071700,74.020594,-1850.514855,-10189.070123
811.072020,296.082377,-1850.514855,-9346.365076
811.072341,1480.411884,-666.185348,-10955.165621
811.072661,1036.288319,444.123565,-10112.460574
811.072981,-1702.473667,1258.350101,-10418.898773
811.073301,-2442.679609,2072.576638,-10418.898773
811.073621,-444.123565,1924.535449,-10801.946522
811.073941,1036.288319,592.164754,-11644.651570
811.074261,148.041188,-1036.288319,-10265.679673
811.074581,-296.082377,-2220.617826,-10035.851024
811.074901,1924.535449,-1924.535449,-10189.070123
811.075221,2664.741391,-962.267725,-10495.508323
811.075541,1628.453072,1184.329507,-11491.432470
811.075861,-1628.453072,2072.576638,-10265.679673
811.076181,-1554.432478,1628.453072,-9882.631924
811.076501,-296.082377,0.000000,-10189.070123
811.076821,1332.370696,-2220.617826,-9806.022374
811.077141,-1480.411884,-2664.741391,-9422.974625
811.077462,-2220.617826,-2368.659014,-9729.412825
811.077782,0.000000,-1332.370696,-9346.365076
811.078102,2072.576638,0.000000,-10265.679673
811.078422,1702.473667,74.020594,-9959.241474
811.078742,-518.144159,-444.123565,-9882.631924
811.079062,-1036.288319,-296.082377,-9576.193725
811.079382,1184.329507,-444.123565,-10035.851024
811.079702,1702.473667,148.041188,-9959.241474
811.080022,1110.308913,0.000000,-10035.851024
811.080342,666.185348,-518.144159,-9959.241474
811.080662,2516.700203,-148.041188,-9882.631924
811.080982,2738.761985,592.164754,-10418.898773
811.081302,370.102971,962.267725,-10189.070123
811.081622,-1702.473667,518.144159,-10265.679673
811.081942,-1184.329507,74.020594,-9806.022374
811.082263,1184.329507,0.000000,-10495.508323
811.082583,1332.370696,-222.061783,-10495.508323
811.082903,-740.205942,-444.123565,-10189.070123
811.083223,-1036.288319,370.102971,-10035.851024
811.083543,1776.494261,666.185348,-10265.679673
811.083863,3552.988522,740.205942,-11184.994271
811.084183,740.205942,222.061783,-10418.898773
811.084503,-1480.411884,74.020594,-10265.679673
811.084823,222.061783,1184.329507,-9882.631924
811.085143,2886.803174,1332.370696,-10342.289223
811.085463,1628.453072,1554.432478,-10572.117872
811.085783,-1480.411884,666.185348,-9729.412825
811.086103,-666.185348,666.185348,-9959.241474
811.086423,1036.288319,0.000000,-10112.460574
811.086743,1776.494261,-518.144159,-9882.631924
811.087064,-1554.432478,370.102971,-9959.241474
811.087384,-3923.091493,148.041188,-9269.755526
811.087704,-1776.494261,666.185348,-9652.803275
811.088024,518.144159,888.247130,-9959.241474
811.088344,962.267725,-148.041188,-9806.022374
811.088664,-1258.350101,74.020594,-9193.145976
811.088984,148.041188,814.226536,-9806.022374
811.089304,3108.864956,1258.350101,-9959.241474
811.089624,1850.514855,1110.308913,-10035.851024
811.089944,0.000000,666.185348,-9806.022374
811.090264,-592.164754,1184.329507,-9652.803275
811.090584,-222.061783,0.000000,-9652.803275
811.090904,1110.308913,0.000000,-10189.070123
811.091224,148.041188,222.061783,-9882.631924
811.091544,-962.267725,370.102971,-10418.898773
811.091865,888.247130,592.164754,-9882.631924
811.092185,2812.782580,1332.370696,-10955.165621
811.092505,1998.556043,2368.659014,-10418.898773
811.092825,-592.164754,1924.535449,-10572.117872
811.093145,1480.411884,1850.514855,-10265.679673
811.093465,2738.761985,1776.494261,-10878.556072
811.093785,2590.720797,1332.370696,-10342.289223
811.094105,1258.350101,444.123565,-10189.070123
811.094425,814.226536,0.000000,-10112.460574
811.094745,1850.514855,444.123565,-10189.070123
811.095065,3034.844362,814.226536,-10878.556072
811.095385,2146.597232,1110.308913,-10035.851024
811.095705,-74.020594,1480.411884,-10265.679673
811.096025,222.061783,2368.659014,-10189.070123
811.096345,1924.535449,1480.411884,-10189.070123
811.096666,2738.761985,370.102971,-9959.241474
811.096986,1480.411884,-1036.288319,-9652.803275
811.097306,-148.041188,-1258.350101,-9806.022374
811.097626,0.000000,-370.102971,-9652.803275
811.097946,1628.453072,370.102971,-10189.070123
811.098266,148.041188,1628.453072,-9193.145976
811.098586,-1850.514855,814.226536,-9882.631924
811.098906,0.000000,592.164754,-9346.365076
811.099226,2368.659014,370.102971,-10265.679673
811.099546,2368.659014,-666.185348,-9882.631924
811.099866,74.020594,-1184.329507,-10035.851024
811.100186,-962.267725,-1924.535449,-9269.755526
811.100506,740.205942,-296.082377,-9652.803275
811.100826,1628.453072,814.226536,-10572.117872
811.101146,-592.164754,1628.453072,-10189.070123
811.101467,-2442.679609,0.000000,-10189.070123
811.101787,-1332.370696,370.102971,-10189.070123
811.102107,814.226536,-740.205942,-10342.289223
811.102427,-370.102971,-666.185348,-10418.898773
811.102747,-2368.659014,-1480.411884,-10035.851024
811.103067,-1258.350101,-444.123565,-10495.508323
811.103387,518.144159,-444.123565,-10189.070123
811.103707,1554.432478,0.000000,-10878.556072
811.104027,-444.123565,222.061783,-10342.289223
811.104347,-1850.514855,1110.308913,-10648.727422
811.104667,296.082377,0.000000,-10189.070123
811.104987,2812.782580,-592.164754,-10572.117872
811.105307,962.267725,-1332.370696,-9346.365076
811.105627,-1184.329507,-2368.659014,-10265.679673
811.105947,370.102971,-1110.308913,-9576.193725
811.106267,2812.782580,222.061783,-10342.289223
811.106588,3034.844362,1554.432478,-10495.508323
811.106908,0.000000,814.226536,-10189.070123
811.107228,-1036.288319,-370.102971,-9806.022374
811.107548,-592.164754,-518.144159,-9806.022374
811.107868,222.061783,0.000000,-10189.070123
811.108188,444.123565,0.000000,-10035.851024
811.108508,0.000000,-296.082377,-9806.022374
811.108828,1406.391290,-666.185348,-9806.022374
811.109148,2590.720797,-222.061783,-10495.508323
811.109468,1998.556043,666.185348,-10112.460574
811.109788,-222.061783,1184.329507,-10112.460574
811.110108,0.000000,1998.556043,-9806.022374
811.110428,2590.720797,2220.617826,-10265.679673
811.110748,2664.741391,74.020594,-10418.898773
811.111068,740.205942,-592.164754,-10342.289223
811.111389,-1406.391290,-1776.494261,-9652.803275
811.111709,148.041188,-1480.411884,-9576.193725
811.112029,1480.411884,666.185348,-10418.898773
811.112349,0.000000,2146.597232,-10189.070123
811.112669,-1702.473667,1628.453072,-9882.631924
811.112989,-1850.514855,1036.288319,-9882.631924
811.113309,74.020594,-444.123565,-9882.631924
811.113629,888.247130,-2294.638420,-9806.022374
811.113949,-370.102971,-2294.638420,-9499.584175
811.114269,0.000000,-1332.370696,-9729.412825
811.114589,1332.370696,1628.453072,-10112.460574
811.114909,1998.556043,2368.659014,-11031.775171
811.115229,814.226536,2516.700203,-9806.022374
811.115549,-2812.782580,1628.453072,-10572.117872
811.115869,-1998.556043,444.123565,-9806.022374
811.116190,1554.432478,148.041188,-10648.727422
811.116510,1184.329507,-518.144159,-10189.070123
811.116830,0.000000,0.000000,-10189.070123
811.117150,-592.164754,0.000000,-9882.631924
811.117470,1480.411884,1184.329507,-10495.508323
811.117790,1036.288319,1184.329507,-10265.679673
811.118110,-888.247130,2368.659014,-12027.699319
811.118430,-2738.761985,1628.453072,-10035.851024
811.118750,296.082377,1332.370696,-10035.851024
811.119070,2812.782580,74.020594,-10035.851024
811.119390,3404.947333,74.020594,-9882.631924
811.119710,814.226536,-888.247130,-10189.070123
811.120030,222.061783,-962.267725,-9882.631924
811.120350,1332.370696,296.082377,-9882.631924
811.120670,888.247130,518.144159,-10189.070123
811.120991,222.061783,1480.411884,-9499.584175
811.121311,-1110.308913,962.267725,-9652.803275
811.121631,370.102971,518.144159,-9729.412825
811.121951,2220.617826,962.267725,-10495.508323
811.122271,1776.494261,1258.350101,-9882.631924
811.122591,740.205942,370.102971,-10342.289223
811.122911,1258.350101,74.020594,-9499.584175
811.123231,2220.617826,296.082377,-9959.241474
811.123551,1258.350101,-444.123565,-10112.460574
811.123871,74.020594,-370.102971,-9882.631924
811.124191,-1258.350101,148.041188,-9806.022374
811.124511,296.082377,962.267725,-9959.241474
811.124831,2220.617826,1702.473667,-10189.070123
811.125151,2220.617826,1776.494261,-10265.679673
811.125471,296.082377,444.123565,-9729.412825
811.125792,666.185348,222.061783,-9959.241474
811.126112,1406.391290,-296.082377,-9959.241474
811.126432,518.144159,-518.144159,-9959.241474
811.126752,-592.164754,296.082377,-9652.803275
811.127072,-666.185348,962.267725,-9882.631924
811.127392,814.226536,1628.453072,-10572.117872
811.127712,1480.411884,1406.391290,-10342.289223
811.128032,740.205942,518.144159,-11031.775171
811.128352,148.041188,-148.041188,-9959.241474
811.128672,1406.391290,-222.061783,-10112.460574
811.128992,1924.535449,0.000000,-10342.289223
811.129312,592.164754,444.123565,-10189.070123
811.129632,-1628.453072,740.205942,-10189.070123
811.129952,-1036.288319,-444.123565,-9882.631924
811.130272,1702.473667,-296.082377,-10265.679673
811.130593,1850.514855,74.020594,-10495.508323
811.130913,-666.185348,592.164754,-10112.460574
811.131233,-2516.700203,222.061783,-9882.631924
811.131553,-740.205942,444.123565,-9652.803275
811.131873,2294.638420,74.020594,-10418.898773
811.132193,2072.576638,-888.247130,-9806.022374
811.132513,0.000000,-2294.638420,-9652.803275
811.132833,0.000000,-1628.453072,-9576.193725
811.133153,1628.453072,-518.144159,-9959.241474
811.133473,1776.494261,0.000000,-9499.584175
811.133793,0.000000,1036.288319,-9806.022374
811.134113,-1110.308913,740.205942,-10189.070123
811.134433,1036.288319,-148.041188,-9806.022374
811.134753,1924.535449,-444.123565,-10418.898773
811.135073,-444.123565,-1258.350101,-9882.631924
811.135393,-1554.432478,-1184.329507,-9576.193725
811.135714,370.102971,-296.082377,-9499.584175
811.136034,2812.782580,0.000000,-10342.289223
811.136354,2516.700203,666.185348,-10495.508323
811.136674,0.000000,888.247130,-10495.508323
811.136994,-1406.391290,1258.350101,-10112.460574
811.137314,666.185348,888.247130,-10418.898773
811.137634,2738.761985,666.185348,-10725.336972
811.137954,962.267725,518.144159,-10955.165621
811.138275,-962.267725,-370.102971,-10265.679673
811.138595,-296.082377,222.061783,-10189.070123
811.138915,962.267725,1110.308913,-10955.165621
811.139235,1184.329507,1036.288319,-10725.336972
811.139555,74.020594,222.061783,-10189.070123
811.139875,-518.144159,222.061783,-9882.631924
811.140195,1184.329507,370.102971,-10495.508323
811.140515,2072.576638,518.144159,-10495.508323
811.140835,148.041188,666.185348,-10572.117872
811.141156,-1554.432478,370.102971,-9652.803275
811.141476,-222.061783,0.000000,-9576.193725
811.141796,1480.411884,0.000000,-10265.679673
811.142116,666.185348,0.000000,-9806.022374
811.142436,-444.123565,814.226536,-9346.365076
811.142756,-148.041188,962.267725,-9422.974625
811.143076,2368.659014,1036.288319,-9882.631924
811.143396,2146.597232,-148.041188,-9959.241474
811.143716,-370.102971,0.000000,-9576.193725
811.144037,-1850.514855,-1036.288319,-9422.974625
811.144357,74.020594,-740.205942,-9652.803275
811.144677,962.267725,74.020594,-9652.803275
811.144997,-1036.288319,518.144159,-9882.631924
811.145317,-2294.638420,518.144159,-9806.022374
811.145637,-740.205942,1924.535449,-9882.631924
811.145957,1332.370696,1406.391290,-10725.336972
811.146277,1406.391290,370.102971,-10495.508323
811.146597,-814.226536,-222.061783,-9039.926876
811.146918,-1332.370696,-222.061783,-9576.193725
811.147238,814.226536,222.061783,-10189.070123
811.147558,1702.473667,370.102971,-10265.679673
811.147878,444.123565,666.185348,-10265.679673
811.148198,-296.082377,666.185348,-10189.070123
811.148518,1480.411884,1628.453072,-10342.289223
811.148838,3478.967927,1924.535449,-11108.384721
811.149158,2516.700203,2072.576638,-10648.727422
811.149478,-296.082377,370.102971,-10342.289223
811.149799,-296.082377,296.082377,-9882.631924
811.150119,2368.659014,148.041188,-10189.070123
811.150439,3034.844362,74.020594,-10495.508323
811.150759,0.000000,0.000000,-9959.241474
811.151079,-740.205942,1406.391290,-9806.022374
811.151399,444.123565,1776.494261,-9806.022374
811.151719,2294.638420,1776.494261,-10572.117872
811.152039,1702.473667,814.226536,-9959.241474
811.152359,222.061783,222.061783,-9806.022374
811.152680,444.123565,-740.205942,-9039.926876
811.153000,2442.679609,0.000000,-10418.898773
811.153320,1998.556043,-444.123565,-9576.193725
811.153640,222.061783,444.123565,-9959.241474
811.153960,-1554.432478,296.082377,-8733.488677
811.154280,2294.638420,1628.453072,-10418.898773
811.154600,3330.926739,1110.308913,-9806.022374
811.154920,1258.350101,0.000000,-10035.851024
811.155240,-2812.782580,-1110.308913,-9422.974625
811.155561,-1258.350101,-1776.494261,-9576.193725
811.155881,148.041188,-2220.617826,-9499.584175
811.156201,0.000000,-1480.411884,-9806.022374
811.156521,-666.185348,0.000000,-9882.631924
811.156841,-962.267725,1184.329507,-9806.022374
811.157161,2072.576638,2220.617826,-10801.946522
811.157481,3182.885551,1554.432478,-10801.946522
811.157801,0.000000,888.247130,-10878.556072
811.158121,-2812.782580,-814.226536,-9806.022374
811.158442,-1184.329507,-1776.494261,-10265.679673
811.158762,888.247130,-1998.556043,-10342.289223
811.159082,-518.144159,-1036.288319,-10265.679673
811.159402,-2368.659014,0.000000,-10035.851024
811.159722,-222.061783,2220.617826,-10265.679673
811.160042,1998.556043,2146.597232,-10648.727422
811.160362,1702.473667,2220.617826,-11031.775171
811.160682,-2146.597232,370.102971,-10342.289223
811.161002,-1702.473667,-666.185348,-9806.022374
811.161323,888.247130,-2146.597232,-9806.022374
811.161643,2368.659014,-2072.576638,-10112.460574
811.161963,740.205942,-1184.329507,-10035.851024
811.162283,-666.185348,0.000000,-10801.946522
811.162603,518.144159,888.247130,-9806.022374
811.162923,3256.906145,1776.494261,-10342.289223
811.163243,2294.638420,1406.391290,-10112.460574
811.163563,-592.164754,444.123565,-9729.412825
811.163883,-814.226536,-444.123565,-9269.755526
811.164204,1776.494261,-962.267725,-9806.022374
811.164524,2590.720797,-888.247130,-10035.851024
811.164844,1110.308913,-1406.391290,-10112.460574
811.165164,-518.144159,-444.123565,-9806.022374
811.165484,518.144159,1554.432478,-9806.022374
811.165804,2738.761985,2738.761985,-10955.165621
811.166124,2072.576638,2516.700203,-10265.679673
811.166444,-370.102971,1184.329507,-10265.679673
811.166765,-1332.370696,296.082377,-10648.727422
811.167085,518.144159,-740.205942,-10418.898773
811.167405,1850.514855,-1406.391290,-10112.460574
811.167725,0.000000,0.000000,-10189.070123
811.168045,-666.185348,962.267725,-9882.631924
811.168365,1628.453072,2812.782580,-10265.679673
811.168685,2960.823768,3404.947333,-11108.384721
811.169005,1554.432478,2072.576638,-10112.460574
811.169325,-1332.370696,222.061783,-10801.946522
811.169646,-2368.659014,-814.226536,-9576.193725
811.169966,0.000000,-1258.350101,-9959.241474
811.170286,888.247130,592.164754,-9729.412825
811.170606,-888.247130,666.185348,-9499.584175
811.170926,-1110.308913,2220.617826,-10418.898773
811.171246,1480.411884,2220.617826,-9882.631924
811.171566,740.205942,1406.391290,-9959.241474
811.171886,-1184.329507,1258.350101,-10112.460574
811.172206,-2368.659014,1184.329507,-9652.803275
811.172527,-444.123565,0.000000,-9652.803275
811.172847,2516.700203,-740.205942,-10112.460574
811.173167,1628.453072,-1110.308913,-9806.022374
811.173487,-888.247130,-1110.308913,-9806.022374
811.173807,-1184.329507,296.082377,-9346.365076
811.174127,1110.308913,2146.597232,-10725.336972
811.174447,2072.576638,3404.947333,-10725.336972
811.174767,666.185348,2368.659014,-10495.508323
811.175087,-1036.288319,592.164754,-9959.241474
811.175408,-814.226536,370.102971,-9959.241474
811.175728,0.000000,-296.082377,-10725.336972
811.176048,0.000000,-888.247130,-9729.412825
811.176368,-222.061783,-222.061783,-10035.851024
811.176688,592.164754,518.144159,-9652.803275
811.177008,3627.009116,1776.494261,-10955.165621
811.177328,3404.947333,2294.638420,-10801.946522
811.177648,1110.308913,1776.494261,-10342.289223
811.177968,444.123565,444.123565,-10035.851024
811.178289,2220.617826,0.000000,-10495.508323
811.178609,3775.050304,-1628.453072,-10342.289223
811.178929,2072.576638,-2072.576638,-10112.460574
811.179249,-1184.329507,-1332.370696,-9806.022374
811.179569,518.144159,740.205942,-9806.022374
811.179889,3256.906145,1850.514855,-10418.898773
811.180209,4071.132681,1998.556043,-10495.508323
811.180529,962.267725,592.164754,-10035.851024
811.180849,-444.123565,-740.205942,-9806.022374
811.181170,814.226536,-1554.432478,-9806.022374
811.181490,1332.370696,-2220.617826,-9806.022374
811.181810,0.000000,-1480.411884,-9729.412825
811.182130,-1406.391290,-592.164754,-9499.584175
811.182450,740.205942,666.185348,-9269.755526
811.182770,2664.741391,0.000000,-10112.460574
811.183090,1702.473667,740.205942,-10418.898773
811.183410,-1776.494261,-370.102971,-10035.851024
811.183730,-1258.350101,-666.185348,-9346.365076
811.184051,592.164754,-1628.453072,-9652.803275
811.184371,1406.391290,-1628.453072,-10189.070123
811.184691,-1184.329507,-3478.967927,-9346.365076
811.185011,-1480.411884,-2220.617826,-9806.022374
811.185331,-444.123565,0.000000,-9576.193725
811.185651,1480.411884,2516.700203,-11184.994271
811.185971,-148.041188,2812.782580,-10112.460574
811.186291,-1702.473667,1184.329507,-10725.336972
811.186611,-1776.494261,-296.082377,-9116.536426
811.186932,1258.350101,-1332.370696,-10648.727422
811.187252,1036.288319,-1924.535449,-10265.679673
811.187572,-740.205942,-2072.576638,-10572.117872
811.187892,-1850.514855,74.020594,-9882.631924
811.188212,148.041188,1110.308913,-10342.289223
811.188532,1776.494261,3034.844362,-11338.213370
811.188852,666.185348,3256.906145,-10648.727422
811.189172,-222.061783,1554.432478,-10495.508323
811.189492,962.267725,222.061783,-9806.022374
811.189813,1110.308913,-1480.411884,-10572.117872
811.190133,888.247130,-1036.288319,-9882.631924
811.190453,-1702.473667,-888.247130,-9806.022374
811.190773,-814.226536,962.267725,-10878.556072
811.191093,2590.720797,3034.844362,-11031.775171
811.191413,3034.844362,3108.864956,-10955.165621
811.191733,1554.432478,1702.473667,-9882.631924
811.192053,814.226536,592.164754,-9806.022374
811.192373,-370.102971,0.000000,-9269.755526
811.192694,1110.308913,-518.144159,-9959.241474
811.193014,1110.308913,0.000000,-9576.193725
811.193334,-296.082377,-1036.288319,-9346.365076
811.193654,1850.514855,0.000000,-9193.145976
811.193974,3108.864956,1554.432478,-10189.070123
811.194294,2516.700203,2886.803174,-10495.508323
811.194614,-814.226536,2516.700203,-9576.193725
811.194934,-370.102971,1776.494261,-9882.631924
811.195255,962.267725,-814.226536,-9729.412825
811.195575,2146.597232,-2368.659014,-9959.241474
