#time,accel_x,accel_y,accel_z
950.522106,370.102971,222.061783,-10342.289223
950.522426,148.041188,592.164754,-10418.898773
950.522746,370.102971,592.164754,-10265.679673
950.523066,592.164754,888.247130,-11797.870669
950.523386,666.185348,444.123565,-10112.460574
950.523706,592.164754,148.041188,-10112.460574
950.524026,296.082377,74.020594,-9882.631924
950.524345,518.144159,296.082377,-9806.022374
950.524665,74.020594,444.123565,-9959.241474
950.524985,444.123565,444.123565,-10189.070123
950.525305,518.144159,518.144159,-9806.022374
950.525625,666.185348,444.123565,-10112.460574
950.525945,296.082377,444.123565,-9959.241474
950.526265,0.000000,-148.041188,-10189.070123
950.526584,74.020594,-592.164754,-9806.022374
950.526904,518.144159,-296.082377,-9959.241474
950.527224,888.247130,296.082377,-10189.070123
950.527544,74.020594,592.164754,-10112.460574
950.527864,-148.041188,296.082377,-9959.241474
950.528184,518.144159,296.082377,-9882.631924
950.528504,1332.370696,0.000000,-10189.070123
950.528823,888.247130,518.144159,-10189.070123
950.529143,-370.102971,-148.041188,-10265.679673
950.529463,0.000000,-74.020594,-10035.851024
950.529783,518.144159,0.000000,-10112.460574
950.530103,518.144159,-296.082377,-10112.460574
950.530423,0.000000,-444.123565,-9806.022374
950.530743,-592.164754,-740.205942,-10342.289223
950.531062,148.041188,-814.226536,-10035.851024
950.531382,0.000000,-814.226536,-10189.070123
950.531702,-1406.391290,-444.123565,-10035.851024
950.532022,-740.205942,-666.185348,-10112.460574
950.532342,0.000000,-962.267725,-10189.070123
950.532662,-518.144159,-962.267725,-10112.460574
950.532982,-1480.411884,-1480.411884,-10035.851024
950.533301,-1036.288319,-1850.514855,-10035.851024
950.533621,-296.082377,-1998.556043,-9882.631924
950.533941,-740.205942,-1406.391290,-9882.631924
950.534261,-1628.453072,-1850.514855,-10189.070123
950.534581,-1776.494261,-1850.514855,-8580.269578
950.534901,-1184.329507,-1998.556043,-9806.022374
950.535221,-666.185348,-1406.391290,-9882.631924
950.535540,-1332.370696,-1702.473667,-10265.679673
950.535860,-1406.391290,-1258.350101,-9882.631924
950.536180,-666.185348,-1554.432478,-9806.022374
950.536500,0.000000,-1184.329507,-10035.851024
950.536820,-962.267725,-1332.370696,-10035.851024
950.537140,-2516.700203,-2294.638420,-10265.679673
950.537460,-2368.659014,-3478.967927,-9346.365076
950.537779,-2072.576638,-3256.906145,-9882.631924
950.538099,-1850.514855,-3108.864956,-9806.022374
950.538419,-1924.535449,-2886.803174,-10189.070123
950.538739,-2664.741391,-2516.700203,-9806.022374
950.539059,-1776.494261,-2590.720797,-9806.022374
950.539379,-222.061783,-2146.597232,-10189.070123
950.539699,814.226536,-888.247130,-10265.679673
950.540018,222.061783,-814.226536,-10725.336972
950.540338,-1628.453072,-740.205942,-10418.898773
950.540658,-2886.803174,-1776.494261,-10112.460574
950.540978,-3627.009116,-2368.659014,-10495.508323
950.541298,-4737.318029,-3404.947333,-9806.022374
950.541618,-5551.544565,-4071.132681,-9652.803275
950.541938,-3478.967927,-5033.400406,-9422.974625
950.542257,-1036.288319,-4811.338623,-9729.412825
950.542577,888.247130,-3478.967927,-10035.851024
950.542897,1036.288319,-1332.370696,-10265.679673
950.543217,1110.308913,370.102971,-10418.898773
950.543537,1702.473667,1924.535449,-10495.508323
950.543857,1850.514855,1998.556043,-10495.508323
950.544177,962.267725,666.185348,-10572.117872
950.544496,-592.164754,-296.082377,-9499.584175
950.544816,-2442.679609,-2664.741391,-10112.460574
950.545136,-3775.050304,-3701.029710,-9806.022374
950.545456,-4885.359217,-3923.091493,-9576.193725
950.545776,-4811.338623,-4589.276840,-9729.412825
950.546096,-2220.617826,-5699.585753,-9576.193725
950.546416,222.061783,-4219.173869,-9499.584175
950.546735,1850.514855,-1850.514855,-9959.241474
950.547055,2368.659014,888.247130,-10035.851024
950.547375,3997.112087,3034.844362,-10342.289223
950.547695,4441.235652,3775.050304,-10801.946522
950.548015,2442.679609,3034.844362,-11338.213370
950.548335,-1480.411884,518.144159,-10418.898773
950.548655,-5033.400406,-2590.720797,-9576.193725
950.548974,-6513.812290,-5255.462188,-9346.365076
950.549294,-5477.523971,-6883.915261,-9422.974625
950.549614,-5255.462188,-6809.894666,-9116.536426
950.549934,-4663.297435,-5551.544565,-9039.926876
950.550254,-2516.700203,-2664.741391,-8350.440928
950.550574,74.020594,0.000000,-10112.460574
950.550894,2146.597232,2516.700203,-10725.336972
950.551213,2146.597232,3478.967927,-10648.727422
950.551533,2368.659014,2368.659014,-10342.289223
950.551853,2590.720797,1036.288319,-10878.556072
950.552173,962.267725,-444.123565,-10725.336972
950.552493,-2220.617826,-2072.576638,-10495.508323
950.552813,-4441.235652,-2738.761985,-9576.193725
950.553133,-6069.688724,-3034.844362,-9806.022374
950.553452,-6809.894666,-3701.029710,-9882.631924
950.553772,-7550.100608,-5107.421000,-9346.365076
950.554092,-6365.771101,-5699.585753,-9346.365076
950.554412,-1554.432478,-3775.050304,-9729.412825
950.554732,2664.741391,-1998.556043,-10112.460574
950.555052,4145.153275,1258.350101,-10495.508323
950.555372,2664.741391,3478.967927,-10725.336972
950.555691,1702.473667,4145.153275,-10648.727422
950.556011,1702.473667,2738.761985,-10495.508323
950.556331,1554.432478,-962.267725,-10572.117872
950.556651,-666.185348,-4737.318029,-10112.460574
950.556971,-3923.091493,-6291.750507,-9806.022374
950.557291,-6069.688724,-6513.812290,-8580.269578
950.557611,-7772.162391,-5107.421000,-8886.707777
950.557930,-6883.915261,-4367.215058,-9346.365076
950.558250,-3108.864956,-4515.256246,-9039.926876
950.558570,1776.494261,-4441.235652,-9652.803275
950.558890,4293.194464,-2738.761985,-10189.070123
950.559210,3256.906145,0.000000,-10495.508323
950.559530,3552.988522,2072.576638,-10495.508323
950.559850,3701.029710,3997.112087,-10801.946522
950.560169,3478.967927,3182.885551,-10495.508323
950.560489,296.082377,2072.576638,-10878.556072
950.560809,-4515.256246,-1998.556043,-10495.508323
950.561129,-8142.265362,-5181.441594,-10035.851024
950.561449,-8216.285956,-7846.182985,-9806.022374
950.561769,-5995.668130,-8660.409521,-9039.926876
950.562089,-6439.791695,-7402.059420,-9729.412825
950.562408,-5255.462188,-5477.523971,-9269.755526
950.562728,-2960.823768,-2590.720797,-9576.193725
950.563048,2072.576638,444.123565,-9959.241474
950.563368,5329.482782,2146.597232,-10878.556072
950.563688,5625.565159,2590.720797,-11414.822920
950.564008,1480.411884,1332.370696,-10572.117872
950.564328,-1036.288319,-1036.288319,-10342.289223
950.564647,-2220.617826,-2960.823768,-10112.460574
950.564967,-3478.967927,-4293.194464,-10112.460574
950.565287,-4959.379811,-4737.318029,-9959.241474
950.565607,-7476.080014,-6735.874072,-9422.974625
950.565927,-6439.791695,-7254.018232,-8580.269578
950.566247,-3478.967927,-6439.791695,-9576.193725
950.566567,-296.082377,-4293.194464,-10189.070123
950.566886,-740.205942,-296.082377,-10418.898773
950.567206,-1332.370696,1184.329507,-9959.241474
950.567526,148.041188,1998.556043,-9959.241474
950.567846,2886.803174,1332.370696,-10495.508323
950.568166,2664.741391,370.102971,-10648.727422
950.568486,888.247130,-1184.329507,-10572.117872
950.568806,-1036.288319,-2368.659014,-9882.631924
950.569125,-2516.700203,-3627.009116,-10112.460574
950.569445,-4219.173869,-4293.194464,-9806.022374
950.569765,-5847.626942,-3627.009116,-9806.022374
950.570085,-4663.297435,-3478.967927,-9116.536426
950.570405,-3256.906145,-2368.659014,-9652.803275
950.570725,-1110.308913,-2590.720797,-9652.803275
950.571045,370.102971,-2072.576638,-9806.022374
950.571364,2812.782580,-1406.391290,-10189.070123
950.571684,3775.050304,222.061783,-10495.508323
950.572004,2220.617826,1776.494261,-10495.508323
950.572324,592.164754,1110.308913,-10035.851024
950.572644,1406.391290,74.020594,-10495.508323
950.572964,1998.556043,-814.226536,-9652.803275
950.573284,-1554.432478,-2590.720797,-9806.022374
950.573603,-4737.318029,-3627.009116,-9806.022374
950.573923,-5995.668130,-2812.782580,-10112.460574
950.574243,-4589.276840,-3108.864956,-10035.851024
950.574563,-3034.844362,-3552.988522,-9806.022374
950.574883,-888.247130,-3997.112087,-9576.193725
950.575203,740.205942,-3404.947333,-9806.022374
950.575523,1110.308913,-592.164754,-10572.117872
950.575842,1998.556043,1702.473667,-10648.727422
950.576162,2516.700203,3849.070898,-11338.213370
950.576482,814.226536,3404.947333,-11031.775171
950.576802,370.102971,2072.576638,-10572.117872
950.577122,-518.144159,-1702.473667,-10572.117872
950.577442,-1554.432478,-4515.256246,-9882.631924
950.577762,-3849.070898,-4737.318029,-9652.803275
950.578082,-5699.585753,-4515.256246,-9652.803275
950.578402,-5329.482782,-2886.803174,-9576.193725
950.578722,-4219.173869,-1702.473667,-9422.974625
950.579042,-2146.597232,-2886.803174,-9039.926876
950.579362,-444.123565,-2146.597232,-9499.584175
950.579682,444.123565,-1924.535449,-9806.022374
950.580002,740.205942,-370.102971,-10342.289223
950.580322,1406.391290,-222.061783,-9882.631924
950.580642,0.000000,444.123565,-9576.193725
950.580962,222.061783,-148.041188,-9882.631924
950.581282,0.000000,-2368.659014,-9806.022374
950.581602,-1036.288319,-3108.864956,-9959.241474
950.581922,-4293.194464,-3849.070898,-10342.289223
950.582242,-4959.379811,-3627.009116,-10342.289223
950.582562,-5773.606348,-3478.967927,-9806.022374
950.582882,-4071.132681,-2738.761985,-10035.851024
950.583202,-592.164754,-2812.782580,-9806.022374
950.583522,888.247130,-2294.638420,-11031.775171
950.583842,0.000000,-888.247130,-10648.727422
950.584162,-2368.659014,962.267725,-11414.822920
950.584482,-740.205942,962.267725,-10495.508323
950.584802,444.123565,1628.453072,-11414.822920
950.585122,1702.473667,-1184.329507,-10495.508323
950.585442,-888.247130,-3923.091493,-10648.727422
950.585762,-4071.132681,-4441.235652,-10189.070123
950.586082,-5255.462188,-3849.070898,-9806.022374
950.586402,-4441.235652,-3923.091493,-10035.851024
950.586722,-3330.926739,-3330.926739,-9576.193725
950.587042,-1998.556043,-2812.782580,-9576.193725
950.587362,-1110.308913,-3256.906145,-9959.241474
950.587682,-740.205942,-3330.926739,-9959.241474
950.588002,-296.082377,-2368.659014,-10112.460574
950.588322,-1184.329507,-1184.329507,-9729.412825
950.588642,-444.123565,74.020594,-11108.384721
950.588962,1036.288319,-222.061783,-10112.460574
950.589282,592.164754,-2072.576638,-10112.460574
950.589602,-1332.370696,-2146.597232,-10495.508323
950.589922,-4737.318029,-2294.638420,-9806.022374
950.590242,-5181.441594,-2886.803174,-9576.193725
950.590562,-3108.864956,-3108.864956,-9499.584175
950.590882,-2664.741391,-3108.864956,-9422.974625
950.591202,-3108.864956,-3627.009116,-9959.241474
950.591521,-1702.473667,-4441.235652,-9499.584175
950.591841,888.247130,-3923.091493,-9959.241474
950.592161,3404.947333,-1258.350101,-10342.289223
950.592481,2368.659014,3108.864956,-11108.384721
950.592801,962.267725,4515.256246,-11721.261119
950.593121,-814.226536,1110.308913,-11261.603821
950.593441,148.041188,-1480.411884,-10572.117872
950.593761,-370.102971,-4441.235652,-11108.384721
950.594081,-4441.235652,-3330.926739,-10035.851024
950.594401,-5995.668130,-3256.906145,-11644.651570
950.594721,-4441.235652,-3478.967927,-10035.851024
950.595041,-740.205942,-1110.308913,-9806.022374
950.595361,1036.288319,1480.411884,-11184.994271
950.595681,740.205942,518.144159,-10418.898773
950.596001,-148.041188,-1036.288319,-9959.241474
950.596321,1184.329507,-814.226536,-9652.803275
950.596641,2294.638420,444.123565,-10112.460574
950.596961,3627.009116,0.000000,-10801.946522
950.597281,4367.215058,-1628.453072,-9729.412825
950.597601,1776.494261,74.020594,-9652.803275
950.597921,740.205942,2294.638420,-9806.022374
950.598241,1184.329507,518.144159,-10189.070123
950.598561,2590.720797,-2368.659014,-9499.584175
950.598881,-518.144159,-4663.297435,-9116.536426
950.599201,-3478.967927,-5995.668130,-8810.098227
950.599521,-2072.576638,-4885.359217,-9269.755526
950.599841,888.247130,-962.267725,-9652.803275
950.600161,1036.288319,3330.926739,-9576.193725
950.600481,0.000000,4589.276840,-10342.289223
950.600801,0.000000,3404.947333,-10342.289223
950.601121,814.226536,-666.185348,-10189.070123
950.601441,2368.659014,-1480.411884,-10342.289223
950.601761,3256.906145,-444.123565,-10801.946522
950.602081,740.205942,-888.247130,-10265.679673
950.602401,-2294.638420,888.247130,-10189.070123
950.602721,-4885.359217,1702.473667,-9959.241474
950.603041,-2960.823768,2368.659014,-10878.556072
950.603361,1554.432478,2368.659014,-10725.336972
950.603681,3478.967927,1406.391290,-11338.213370
950.604001,814.226536,740.205942,-11108.384721
950.604321,-1406.391290,-962.267725,-9652.803275
950.604641,74.020594,148.041188,-9959.241474
950.604961,1480.411884,1998.556043,-10418.898773
950.605281,666.185348,3775.050304,-10418.898773
950.605601,-1036.288319,4219.173869,-9346.365076
950.605921,814.226536,1480.411884,-9576.193725
950.606241,814.226536,1110.308913,-10495.508323
950.606561,222.061783,-1702.473667,-9422.974625
950.606881,-1258.350101,-2146.597232,-9116.536426
950.607201,74.020594,-1850.514855,-8886.707777
950.607521,2072.576638,1036.288319,-9652.803275
950.607841,2886.803174,444.123565,-10572.117872
950.608161,1406.391290,370.102971,-8273.831378
950.608481,148.041188,148.041188,-9652.803275
950.608801,2886.803174,1110.308913,-9422.974625
950.609121,5033.400406,3701.029710,-10572.117872
950.609441,3775.050304,4145.153275,-10189.070123
950.609761,2368.659014,2664.741391,-10035.851024
950.610081,0.000000,148.041188,-10189.070123
950.610401,0.000000,-962.267725,-9652.803275
950.610721,-518.144159,-1036.288319,-9806.022374
950.611041,-1184.329507,-222.061783,-9882.631924
950.611361,0.000000,148.041188,-9806.022374
950.611681,2368.659014,2146.597232,-10418.898773
950.612001,2072.576638,2960.823768,-10572.117872
950.612321,1850.514855,1850.514855,-11031.775171
950.612641,2516.700203,222.061783,-10418.898773
950.612961,2886.803174,-888.247130,-11108.384721
950.613281,3849.070898,-1480.411884,-10265.679673
950.613601,2294.638420,-370.102971,-11108.384721
950.613921,1480.411884,592.164754,-9959.241474
950.614241,-740.205942,1332.370696,-10112.460574
950.614561,2886.803174,1628.453072,-11874.480219
950.614881,-2072.576638,-592.164754,-10112.460574
950.615201,-5921.647536,-3552.988522,-9729.412825
950.615521,-4071.132681,-4663.297435,-8044.002729
950.615841,-1110.308913,-1332.370696,-9806.022374
950.616161,-1924.535449,148.041188,-10265.679673
950.616481,-1036.288319,888.247130,-10572.117872
950.616801,-1332.370696,-2294.638420,-9959.241474
950.617121,-1036.288319,-1406.391290,-9806.022374
950.617441,74.020594,-1628.453072,-9882.631924
950.617761,888.247130,-296.082377,-9269.755526
950.618081,666.185348,962.267725,-10725.336972
950.618400,518.144159,296.082377,-9806.022374
950.618720,-666.185348,-1184.329507,-10112.460574
950.619040,-962.267725,-2146.597232,-9806.022374
950.619360,-888.247130,-222.061783,-10189.070123
950.619680,-740.205942,592.164754,-10801.946522
950.620000,-740.205942,1776.494261,-9193.145976
950.620320,-1406.391290,222.061783,-10418.898773
950.620640,-2368.659014,-2738.761985,-9882.631924
950.620960,-1258.350101,-3701.029710,-10265.679673
950.621280,-1702.473667,-814.226536,-10035.851024
950.621600,-962.267725,222.061783,-9959.241474
950.621920,740.205942,0.000000,-10725.336972
950.622240,3182.885551,-1110.308913,-10035.851024
950.622560,3330.926739,-1776.494261,-10265.679673
950.622880,3923.091493,-518.144159,-10725.336972
950.623200,1924.535449,1554.432478,-11108.384721
950.623520,1110.308913,3478.967927,-11338.213370
950.623840,1480.411884,3478.967927,-10801.946522
950.624160,1332.370696,1258.350101,-10035.851024
950.624480,592.164754,-1702.473667,-10035.851024
950.624800,-740.205942,-3627.009116,-10648.727422
950.625120,370.102971,-3404.947333,-9959.241474
950.625440,1702.473667,-1628.453072,-9806.022374
950.625760,2960.823768,1258.350101,-9729.412825
950.626080,1702.473667,2738.761985,-10112.460574
950.626400,2146.597232,1628.453072,-9729.412825
950.626720,3775.050304,1110.308913,-10189.070123
950.627040,3849.070898,1998.556043,-11338.213370
950.627360,2368.659014,1406.391290,-9882.631924
950.627680,2442.679609,0.000000,-9882.631924
950.628000,2146.597232,-1702.473667,-9193.145976
950.628320,1776.494261,-2516.700203,-9806.022374
950.628640,1998.556043,-2738.761985,-9652.803275
950.628960,518.144159,-1628.453072,-10265.679673
950.629280,-370.102971,888.247130,-9652.803275
950.629600,-740.205942,3849.070898,-10035.851024
950.629920,-222.061783,5403.503377,-10112.460574
950.630240,222.061783,4071.132681,-10495.508323
950.630560,-1110.308913,1184.329507,-10418.898773
950.630880,-592.164754,-1110.308913,-9806.022374
950.631200,1776.494261,-2664.741391,-9806.022374
950.631520,1554.432478,-1406.391290,-10035.851024
950.631840,-1184.329507,888.247130,-9959.241474
950.632160,-1850.514855,2368.659014,-10189.070123
950.632480,1406.391290,3627.009116,-10572.117872
950.632800,1998.556043,4145.153275,-11951.089769
950.633120,740.205942,4441.235652,-10955.165621
950.633440,-3034.844362,2072.576638,-10572.117872
950.633760,-3478.967927,2368.659014,-10265.679673
950.634080,-1702.473667,0.000000,-9806.022374
950.634400,-444.123565,-962.267725,-10418.898773
950.634720,-1036.288319,1702.473667,-9652.803275
950.635040,-1258.350101,2220.617826,-10801.946522
950.635360,1406.391290,2072.576638,-10342.289223
950.635680,2516.700203,1702.473667,-9576.193725
950.636000,1036.288319,740.205942,-9499.584175
950.636320,222.061783,2072.576638,-9729.412825
950.636640,1406.391290,962.267725,-10495.508323
950.636960,1776.494261,-444.123565,-8886.707777
950.637280,-1998.556043,-888.247130,-9039.926876
950.637600,-3256.906145,1184.329507,-8427.050478
950.637920,-1406.391290,2072.576638,-9959.241474
950.638240,2442.679609,1628.453072,-10112.460574
950.638560,2220.617826,1702.473667,-9116.536426
950.638880,444.123565,-814.226536,-9116.536426
950.639200,1036.288319,-3627.009116,-9039.926876
950.639520,1924.535449,-5551.544565,-8886.707777
950.639840,3552.988522,-1998.556043,-8963.317327
950.640160,2590.720797,2516.700203,-10648.727422
950.640480,3775.050304,4219.173869,-10418.898773
950.640800,3997.112087,3627.009116,-10878.556072
950.641120,3478.967927,2812.782580,-11491.432470
950.641440,0.000000,1480.411884,-10035.851024
950.641760,-1554.432478,-2590.720797,-11491.432470
950.642080,0.000000,-2960.823768,-10189.070123
950.642400,370.102971,-1480.411884,-10572.117872
950.642720,1258.350101,592.164754,-11261.603821
950.643040,0.000000,3404.947333,-11338.213370
950.643360,666.185348,3701.029710,-11797.870669
950.643680,666.185348,2368.659014,-10572.117872
950.644000,1554.432478,-518.144159,-10265.679673
950.644320,4293.194464,-4219.173869,-10035.851024
950.644640,2516.700203,-5921.647536,-10265.679673
950.644960,0.000000,-2960.823768,-10112.460574
950.645279,-2146.597232,0.000000,-10265.679673
950.645599,-1110.308913,1480.411884,-9729.412825
950.645919,-1776.494261,1702.473667,-9806.022374
950.646239,-2516.700203,-222.061783,-9422.974625
950.646559,-1924.535449,-1480.411884,-9269.755526
950.646879,296.082377,-2146.597232,-9806.022374
950.647199,1554.432478,-2294.638420,-9576.193725
950.647519,666.185348,-2146.597232,-9652.803275
950.647839,-444.123565,-444.123565,-9039.926876
950.648159,-1628.453072,74.020594,-9346.365076
950.648479,148.041188,592.164754,-9269.755526
950.648799,74.020594,666.185348,-9116.536426
950.649119,-296.082377,-370.102971,-9652.803275
950.649439,740.205942,-1332.370696,-9499.584175
950.649759,148.041188,-518.144159,-9806.022374
950.650079,1258.350101,1110.308913,-10112.460574
950.650399,-1406.391290,2368.659014,-10265.679673
950.650719,814.226536,2146.597232,-10112.460574
950.651039,74.020594,2294.638420,-10725.336972
950.651359,888.247130,592.164754,-11031.775171
950.651679,1332.370696,740.205942,-9882.631924
950.651999,-1036.288319,-2590.720797,-10878.556072
950.652319,962.267725,-1110.308913,-10189.070123
950.652639,1184.329507,-518.144159,-9576.193725
950.652959,1924.535449,888.247130,-10648.727422
950.653279,2516.700203,4589.276840,-11338.213370
950.653599,1924.535449,4663.297435,-11874.480219
950.653919,1850.514855,2738.761985,-10648.727422
950.654239,2664.741391,-1036.288319,-10342.289223
950.654559,1924.535449,-2072.576638,-9959.241474
950.654879,148.041188,-1406.391290,-10342.289223
950.655199,962.267725,0.000000,-10342.289223
950.655519,2442.679609,2368.659014,-10265.679673
950.655839,1850.514855,4219.173869,-10572.117872
950.656159,1258.350101,3552.988522,-10189.070123
950.656479,0.000000,1480.411884,-9806.022374
950.656799,666.185348,-1036.288319,-8963.317327
950.657119,1776.494261,-2368.659014,-9346.365076
950.657439,2516.700203,-444.123565,-9346.365076
950.657759,592.164754,962.267725,-9269.755526
950.658079,-296.082377,666.185348,-9193.145976
950.658399,2220.617826,0.000000,-8886.707777
950.658719,3478.967927,1480.411884,-9652.803275
950.659039,666.185348,2368.659014,-10418.898773
950.659359,-1332.370696,2886.803174,-10572.117872
950.659679,-2220.617826,1110.308913,-9039.926876
950.659999,370.102971,-666.185348,-9882.631924
950.660319,3330.926739,-888.247130,-9576.193725
950.660639,1406.391290,-222.061783,-11414.822920
950.660959,-1332.370696,-1480.411884,-10342.289223
950.661279,-1110.308913,-1258.350101,-9346.365076
950.661599,-1110.308913,1628.453072,-11031.775171
950.661919,-1924.535449,5329.482782,-10648.727422
950.662239,-3404.947333,5551.544565,-11414.822920
950.662559,-2442.679609,4441.235652,-10725.336972
950.662879,-1480.411884,2886.803174,-10265.679673
950.663199,-888.247130,-814.226536,-11261.603821
950.663519,-962.267725,-3701.029710,-9499.584175
950.663839,-2664.741391,-3701.029710,-10342.289223
950.664159,-2590.720797,-1184.329507,-10265.679673
950.664479,592.164754,-74.020594,-10801.946522
950.664799,3552.988522,2368.659014,-10189.070123
950.665119,3182.885551,3997.112087,-10801.946522
950.665439,3627.009116,5773.606348,-11414.822920
950.665759,1406.391290,4885.359217,-10801.946522
950.666079,2072.576638,1406.391290,-10725.336972
950.666399,148.041188,-814.226536,-9652.803275
950.666719,-296.082377,-4885.359217,-9346.365076
950.667039,2516.700203,-4885.359217,-8886.707777
950.667359,1998.556043,-2146.597232,-9039.926876
950.667679,592.164754,2886.803174,-9422.974625
950.667999,-370.102971,4737.318029,-10035.851024
950.668319,1924.535449,4589.276840,-9806.022374
950.668639,3478.967927,444.123565,-9346.365076
950.668959,592.164754,-4811.338623,-8427.050478
950.669279,-962.267725,-5847.626942,-8427.050478
950.669599,740.205942,-4737.318029,-9039.926876
950.669919,2664.741391,-2146.597232,-9346.365076
950.670239,3849.070898,370.102971,-9806.022374
950.670559,3478.967927,2516.700203,-9882.631924
950.670879,3627.009116,2442.679609,-10725.336972
950.671199,5033.400406,592.164754,-10878.556072
950.671519,3849.070898,444.123565,-10418.898773
950.671839,148.041188,0.000000,-10648.727422
950.672158,-962.267725,-666.185348,-11184.994271
950.672478,222.061783,-1702.473667,-12027.699319
950.672798,518.144159,-518.144159,-10572.117872
950.673118,-2294.638420,1628.453072,-11414.822920
950.673438,-3627.009116,4737.318029,-11491.432470
950.673758,-2294.638420,7550.100608,-11491.432470
950.674078,-148.041188,4589.276840,-11031.775171
950.674398,1332.370696,444.123565,-10955.165621
950.674718,-962.267725,-4219.173869,-9806.022374
950.675038,-1184.329507,-7994.224174,-9652.803275
950.675358,0.000000,-6291.750507,-9193.145976
950.675678,1480.411884,-370.102971,-10495.508323
950.675998,2220.617826,5033.400406,-10265.679673
950.676318,370.102971,7254.018232,-10495.508323
950.676638,-2220.617826,6735.874072,-10648.727422
950.676958,-3330.926739,3108.864956,-10112.460574
950.677278,-370.102971,-666.185348,-9269.755526
950.677598,-2072.576638,-5773.606348,-8427.050478
950.677918,-2368.659014,-7031.956449,-7890.783629
950.678238,-5551.544565,-4737.318029,-8810.098227
950.678558,-4885.359217,-296.082377,-9499.584175
950.678878,-4219.173869,2590.720797,-8580.269578
950.679198,444.123565,4959.379811,-9652.803275
950.679518,4367.215058,6439.791695,-9729.412825
950.679838,3775.050304,4959.379811,-10572.117872
950.680158,4515.256246,740.205942,-10648.727422
950.680478,1702.473667,-2812.782580,-8963.317327
950.680798,-1184.329507,-3775.050304,-9499.584175
950.681118,-222.061783,-1850.514855,-9806.022374
950.681438,666.185348,1036.288319,-10572.117872
950.681758,0.000000,4071.132681,-10648.727422
950.682078,-888.247130,4441.235652,-10955.165621
950.682398,0.000000,2442.679609,-10572.117872
950.682718,962.267725,-296.082377,-10418.898773
950.683038,2590.720797,-1776.494261,-10878.556072
950.683358,3478.967927,-740.205942,-10648.727422
950.683678,4589.276840,0.000000,-10648.727422
950.683998,3701.029710,1184.329507,-10878.556072
950.684317,2812.782580,1628.453072,-11031.775171
950.684637,3701.029710,2590.720797,-11108.384721
950.684957,3923.091493,3627.009116,-10725.336972
950.685277,3627.009116,3849.070898,-10878.556072
950.685597,1332.370696,1702.473667,-10342.289223
950.685917,-222.061783,0.000000,-10112.460574
950.686237,-444.123565,-3330.926739,-9116.536426
950.686557,0.000000,-3997.112087,-9193.145976
950.686877,-518.144159,-2812.782580,-8810.098227
950.687197,1850.514855,-1332.370696,-9882.631924
950.687517,2960.823768,740.205942,-9346.365076
950.687837,2960.823768,1258.350101,-9806.022374
950.688157,2368.659014,1776.494261,-9806.022374
950.688477,888.247130,1554.432478,-8810.098227
950.688797,1036.288319,1036.288319,-10035.851024
950.689117,666.185348,518.144159,-9346.365076
950.689437,-592.164754,-1110.308913,-9806.022374
950.689757,-2368.659014,-2368.659014,-8963.317327
950.690077,-4293.194464,-2442.679609,-8733.488677
950.690397,-4663.297435,-1406.391290,-9422.974625
950.690717,-1924.535449,-148.041188,-9806.022374
950.691037,-814.226536,-296.082377,-10418.898773
950.691357,-222.061783,-370.102971,-10189.070123
950.691677,-1184.329507,-444.123565,-10189.070123
950.691997,-740.205942,592.164754,-10189.070123
950.692317,-592.164754,1628.453072,-10418.898773
950.692637,-296.082377,962.267725,-11721.261119
950.692957,-1110.308913,0.000000,-10955.165621
950.693277,-1258.350101,370.102971,-10418.898773
950.693597,148.041188,740.205942,-10648.727422
950.693916,2442.679609,1184.329507,-11414.822920
950.694236,444.123565,1406.391290,-10801.946522
950.694556,-1184.329507,518.144159,-11031.775171
950.694876,-1406.391290,-592.164754,-9806.022374
950.695196,-1702.473667,-1036.288319,-10418.898773
950.695516,-444.123565,-1628.453072,-10572.117872
950.695836,1628.453072,296.082377,-9959.241474
950.696156,1110.308913,3256.906145,-11338.213370
950.696476,2664.741391,5329.482782,-9882.631924
950.696796,3478.967927,4367.215058,-11338.213370
950.697116,1998.556043,1776.494261,-10189.070123
950.697436,1258.350101,-296.082377,-9116.536426
950.697756,1998.556043,-1406.391290,-9116.536426
950.698076,3849.070898,-2368.659014,-9499.584175
950.698396,4367.215058,-2516.700203,-9193.145976
950.698716,3404.947333,-2442.679609,-9652.803275
950.699036,2812.782580,-1850.514855,-9422.974625
950.699356,148.041188,1628.453072,-9039.926876
950.699676,-2960.823768,3404.947333,-9729.412825
950.699996,-1036.288319,2590.720797,-10265.679673
950.700316,1406.391290,1258.350101,-9729.412825
950.700636,814.226536,-1110.308913,-9269.755526
950.700956,666.185348,-3552.988522,-9269.755526
950.701276,1406.391290,-5033.400406,-8120.612279
950.701596,3775.050304,-3108.864956,-10265.679673
950.701916,3478.967927,0.000000,-10265.679673
950.702236,2368.659014,2738.761985,-11184.994271
950.702556,1332.370696,3923.091493,-11184.994271
950.702876,1702.473667,3627.009116,-11184.994271
950.703196,-1184.329507,5107.421000,-11797.870669
950.703515,-4441.235652,4071.132681,-11108.384721
950.703835,-3923.091493,2368.659014,-10955.165621
950.704155,-3182.885551,-1998.556043,-11721.261119
950.704475,1036.288319,-6661.853478,-9959.241474
950.704795,814.226536,-5107.421000,-9346.365076
950.705115,-1480.411884,-1258.350101,-10112.460574
950.705435,-2294.638420,2294.638420,-9806.022374
950.705755,-2664.741391,4367.215058,-11414.822920
950.706075,-370.102971,4441.235652,-10418.898773
950.706395,-1332.370696,2738.761985,-9959.241474
950.706715,-148.041188,-148.041188,-9346.365076
950.707035,1184.329507,-3478.967927,-9806.022374
950.707355,3034.844362,-2812.782580,-9652.803275
950.707675,1628.453072,-1184.329507,-9729.412825
950.707995,-1110.308913,0.000000,-9346.365076
950.708315,-1184.329507,296.082377,-8503.660028
950.708635,296.082377,-370.102971,-10035.851024
950.708955,2294.638420,222.061783,-9039.926876
950.709275,-1036.288319,814.226536,-9576.193725
950.709595,-2590.720797,-222.061783,-9269.755526
950.709915,-2664.741391,-1628.453072,-8656.879127
950.710235,1332.370696,-3552.988522,-9116.536426
950.710555,5477.523971,-2590.720797,-9576.193725
950.710875,3256.906145,1036.288319,-10572.117872
950.711195,2294.638420,2368.659014,-10342.289223
950.711515,-444.123565,3627.009116,-10418.898773
950.711835,1776.494261,2516.700203,-11338.213370
950.712155,1258.350101,1850.514855,-10342.289223
950.712475,-666.185348,148.041188,-11184.994271
950.712794,2664.741391,-1110.308913,-10725.336972
950.713114,4219.173869,-1480.411884,-11184.994271
950.713434,2220.617826,-666.185348,-11108.384721
950.713754,-222.061783,-888.247130,-10801.946522
950.714074,-1184.329507,0.000000,-8503.660028
950.714394,222.061783,2072.576638,-10955.165621
950.714714,3997.112087,3404.947333,-11414.822920
950.715034,2220.617826,4737.318029,-11338.213370
950.715354,1628.453072,2294.638420,-10878.556072
950.715674,3849.070898,74.020594,-9729.412825
950.715994,4367.215058,-2072.576638,-10418.898773
950.716314,3108.864956,-2294.638420,-9806.022374
950.716634,-1406.391290,-962.267725,-9576.193725
950.716954,-2516.700203,-592.164754,-9193.145976
950.717274,-888.247130,-1332.370696,-8963.317327
950.717594,1998.556043,-1480.411884,-9269.755526
950.717914,148.041188,-444.123565,-9499.584175
950.718234,-1998.556043,0.000000,-9729.412825
950.718554,-370.102971,0.000000,-9652.803275
950.718874,2220.617826,-296.082377,-9269.755526
950.719194,3701.029710,-444.123565,-9959.241474
950.719514,-888.247130,-148.041188,-9499.584175
950.719834,-2664.741391,0.000000,-9729.412825
950.720154,-2368.659014,1406.391290,-9499.584175
950.720474,444.123565,1850.514855,-10495.508323
950.720794,666.185348,518.144159,-9959.241474
950.721114,-1184.329507,-1332.370696,-10342.289223
950.721434,-2072.576638,-3849.070898,-9422.974625
950.721754,-1184.329507,-1998.556043,-9729.412825
950.722074,-888.247130,444.123565,-10418.898773
950.722393,-592.164754,4811.338623,-11031.775171
950.722713,-3330.926739,4959.379811,-11108.384721
950.723033,-1776.494261,3627.009116,-10572.117872
950.723353,-814.226536,74.020594,-10878.556072
950.723673,666.185348,-2072.576638,-10648.727422
950.723993,-814.226536,-1184.329507,-11184.994271
950.724313,-740.205942,1776.494261,-10648.727422
950.724633,296.082377,3182.885551,-10572.117872
950.724953,2886.803174,2812.782580,-11414.822920
950.725273,3701.029710,1110.308913,-10725.336972
950.725593,2368.659014,-444.123565,-11568.042020
950.725913,296.082377,-1036.288319,-10112.460574
950.726233,-222.061783,-592.164754,-10572.117872
950.726553,1628.453072,444.123565,-9806.022374
950.726873,1480.411884,2368.659014,-9959.241474
950.727193,1332.370696,1554.432478,-10572.117872
950.727513,1110.308913,1406.391290,-9116.536426
950.727833,1776.494261,0.000000,-10265.679673
950.728153,3701.029710,-740.205942,-9499.584175
950.728473,2812.782580,-222.061783,-9269.755526
950.728793,1702.473667,-518.144159,-8886.707777
950.729113,1628.453072,-666.185348,-9039.926876
950.729433,1332.370696,-1036.288319,-9576.193725
950.729753,2220.617826,148.041188,-9422.974625
950.730073,2590.720797,1628.453072,-9576.193725
950.730393,1998.556043,1628.453072,-8886.707777
950.730713,2368.659014,518.144159,-9652.803275
950.731033,4663.297435,-2294.638420,-9499.584175
950.731353,2368.659014,-1998.556043,-9959.241474
950.731673,74.020594,-3034.844362,-9193.145976
950.731992,-518.144159,-740.205942,-9652.803275
950.732312,740.205942,1702.473667,-11414.822920
950.732632,74.020594,2220.617826,-10418.898773
950.732952,-1036.288319,1332.370696,-11951.089769
950.733272,-2294.638420,-592.164754,-9806.022374
950.733592,-1406.391290,-148.041188,-10418.898773
950.733912,-962.267725,2072.576638,-11184.994271
950.734232,-2294.638420,2960.823768,-10572.117872
950.734552,-1776.494261,2368.659014,-11108.384721
950.734872,-888.247130,-1258.350101,-10035.851024
950.735192,1332.370696,-5255.462188,-10112.460574
950.735512,2220.617826,-4589.276840,-10418.898773
950.735832,518.144159,-666.185348,-10495.508323
950.736152,-1628.453072,3997.112087,-10878.556072
950.736472,-2294.638420,6291.750507,-11261.603821
950.736792,-2516.700203,5329.482782,-10495.508323
950.737112,-3478.967927,1110.308913,-9729.412825
950.737432,-3997.112087,-1998.556043,-9422.974625
950.737752,-1184.329507,-3923.091493,-9116.536426
950.738072,2812.782580,-3182.885551,-9346.365076
950.738392,2886.803174,-1776.494261,-9499.584175
950.738712,148.041188,-296.082377,-9422.974625
950.739032,-3182.885551,1924.535449,-9576.193725
950.739352,-4515.256246,2886.803174,-9346.365076
950.739672,-3404.947333,2294.638420,-9729.412825
950.739992,-444.123565,-370.102971,-8810.098227
950.740312,1702.473667,-2368.659014,-9039.926876
950.740632,3552.988522,-3552.988522,-9652.803275
950.740952,2368.659014,-3034.844362,-9959.241474
950.741272,2294.638420,-1332.370696,-10342.289223
950.741591,2442.679609,2664.741391,-10265.679673
950.741911,1776.494261,5477.523971,-10878.556072
950.742231,2220.617826,5625.565159,-10342.289223
950.742551,1554.432478,2072.576638,-9959.241474
950.742871,2960.823768,-2368.659014,-10189.070123
950.743191,3034.844362,-5625.565159,-10418.898773
950.743511,3330.926739,-4811.338623,-10189.070123
950.743831,3256.906145,-666.185348,-10572.117872
950.744151,1776.494261,4663.297435,-10418.898773
950.744471,2146.597232,6883.915261,-11184.994271
950.744791,1776.494261,5477.523971,-12027.699319
950.745111,592.164754,1924.535449,-10572.117872
950.745431,-592.164754,-1406.391290,-11414.822920
950.745751,148.041188,-3478.967927,-9882.631924
950.746071,1850.514855,-3330.926739,-9806.022374
950.746391,3701.029710,-518.144159,-9959.241474
950.746711,3330.926739,1480.411884,-9882.631924
950.747031,2072.576638,2442.679609,-11184.994271
950.747351,1850.514855,2886.803174,-10418.898773
950.747671,222.061783,1776.494261,-10035.851024
950.747991,-1406.391290,1406.391290,-9499.584175
950.748311,-3627.009116,-592.164754,-8197.221829
950.748631,-2886.803174,-2442.679609,-9422.974625
950.748951,-888.247130,-4441.235652,-8733.488677
950.749271,1406.391290,-3627.009116,-9422.974625
950.749591,3034.844362,-1036.288319,-9806.022374
950.749911,592.164754,2072.576638,-9652.803275
950.750231,-444.123565,3330.926739,-10035.851024
950.750551,-1850.514855,3997.112087,-9959.241474
950.750871,-2812.782580,1998.556043,-9959.241474
950.751190,-1628.453072,148.041188,-10648.727422
950.751510,-666.185348,-2072.576638,-10265.679673
950.751830,0.000000,-1628.453072,-9959.241474
950.752150,-1702.473667,-888.247130,-9959.241474
950.752470,-1332.370696,740.205942,-9806.022374
950.752790,-888.247130,1110.308913,-10418.898773
950.753110,-296.082377,2146.597232,-10801.946522
950.753430,-1258.350101,1184.329507,-10725.336972
950.753750,0.000000,370.102971,-11031.775171
950.754070,296.082377,1406.391290,-10035.851024
950.754390,2220.617826,888.247130,-11031.775171
950.754710,2368.659014,0.000000,-10572.117872
950.755030,1998.556043,-1480.411884,-10725.336972
950.755350,1110.308913,-592.164754,-8963.317327
950.755670,-962.267725,-962.267725,-10112.460574
950.755990,814.226536,814.226536,-10342.289223
950.756310,296.082377,148.041188,-9729.412825
950.756630,1406.391290,370.102971,-10648.727422
950.756950,1702.473667,444.123565,-8886.707777
950.757270,1332.370696,-1332.370696,-9576.193725
950.757590,1110.308913,-1850.514855,-9806.022374
950.757910,1406.391290,-740.205942,-9652.803275
950.758230,666.185348,1036.288319,-10035.851024
950.758550,3108.864956,1554.432478,-9959.241474
950.758870,5625.565159,222.061783,-10265.679673
950.759190,5329.482782,1406.391290,-10495.508323
950.759510,1628.453072,1480.411884,-10035.851024
950.759830,-1184.329507,518.144159,-9499.584175
950.760150,-888.247130,-592.164754,-9806.022374
950.760469,3478.967927,-2220.617826,-9422.974625
950.760789,3627.009116,-1998.556043,-9576.193725
950.761109,2294.638420,-296.082377,-10035.851024
950.761429,888.247130,592.164754,-9806.022374
950.761749,740.205942,222.061783,-10801.946522
950.762069,814.226536,148.041188,-10418.898773
950.762389,-592.164754,-592.164754,-11031.775171
950.762709,-1924.535449,-296.082377,-11031.775171
950.763029,-1776.494261,1480.411884,-10112.460574
950.763349,592.164754,4219.173869,-11338.213370
950.763669,1332.370696,4959.379811,-11951.089769
950.763989,518.144159,2812.782580,-11797.870669
950.764309,1110.308913,148.041188,-10572.117872
950.764629,814.226536,-1850.514855,-9959.241474
950.764949,148.041188,-2516.700203,-9959.241474
950.765269,-1258.350101,-518.144159,-9959.241474
950.765589,-2664.741391,1184.329507,-9729.412825
950.765909,-2812.782580,1702.473667,-9806.022374
950.766229,-1332.370696,1554.432478,-10112.460574
950.766549,-962.267725,1110.308913,-9193.145976
950.766869,-1924.535449,740.205942,-9882.631924
950.767189,-1406.391290,444.123565,-8733.488677
950.767509,814.226536,0.000000,-9269.755526
950.767829,222.061783,-296.082377,-9576.193725
950.768149,-592.164754,-592.164754,-7890.783629
950.768469,-888.247130,-1406.391290,-9806.022374
950.768789,1258.350101,-518.144159,-9193.145976
950.769109,2442.679609,296.082377,-10035.851024
950.769429,1776.494261,1554.432478,-9959.241474
950.769749,-444.123565,962.267725,-8503.660028
950.770068,-3404.947333,370.102971,-9576.193725
950.770388,-2072.576638,-296.082377,-9806.022374
950.770708,-740.205942,-1480.411884,-9652.803275
950.771028,1850.514855,-2368.659014,-10725.336972
950.771348,4367.215058,-1998.556043,-10648.727422
950.771668,3849.070898,370.102971,-10878.556072
950.771988,2146.597232,4145.153275,-11108.384721
950.772308,1776.494261,6365.771101,-11644.651570
950.772628,740.205942,6439.791695,-11184.994271
950.772948,1258.350101,3552.988522,-11721.261119
950.773268,74.020594,-962.267725,-10572.117872
950.773588,1184.329507,-3997.112087,-9959.241474
950.773908,1924.535449,-4441.235652,-10189.070123
950.774228,1776.494261,-2146.597232,-10342.289223
950.774548,1110.308913,1776.494261,-10801.946522
950.774868,370.102971,5625.565159,-10648.727422
950.775188,370.102971,6439.791695,-10725.336972
950.775508,2368.659014,3182.885551,-9806.022374
950.775828,4663.297435,-740.205942,-9576.193725
950.776148,6513.812290,-4293.194464,-9346.365076
950.776468,4589.276840,-5699.585753,-9193.145976
950.776788,2072.576638,-3256.906145,-10189.070123
950.777108,-444.123565,148.041188,-8963.317327
950.777428,-1480.411884,2590.720797,-9499.584175
950.777748,-592.164754,3404.947333,-9576.193725
950.778068,-1110.308913,1036.288319,-9499.584175
950.778388,-2960.823768,-2220.617826,-9422.974625
950.778708,-3849.070898,-4219.173869,-9499.584175
950.779028,-1924.535449,-4367.215058,-9422.974625
950.779348,-518.144159,-1406.391290,-9652.803275
950.779667,370.102971,1184.329507,-9959.241474
950.779987,-444.123565,3404.947333,-10265.679673
950.780307,962.267725,3182.885551,-11261.603821
950.780627,1628.453072,2368.659014,-10801.946522
950.780947,518.144159,0.000000,-10725.336972
950.781267,-1332.370696,-2072.576638,-10725.336972
950.781587,-2146.597232,-1332.370696,-9882.631924
950.781907,-2812.782580,962.267725,-10495.508323
950.782227,-2072.576638,1998.556043,-10955.165621
950.782547,-444.123565,1406.391290,-9959.241474
950.782867,296.082377,0.000000,-11031.775171
950.783187,962.267725,-518.144159,-10418.898773
950.783507,-814.226536,-296.082377,-10112.460574
950.783827,-2072.576638,0.000000,-9882.631924
950.784147,-1480.411884,370.102971,-9652.803275
950.784467,1036.288319,888.247130,-9806.022374
950.784787,2738.761985,1184.329507,-10189.070123
950.785107,3627.009116,814.226536,-10189.070123
950.785427,4071.132681,1850.514855,-9806.022374
950.785747,3182.885551,1332.370696,-10035.851024
950.786067,518.144159,518.144159,-9422.974625
950.786387,-370.102971,-814.226536,-9193.145976
950.786707,1406.391290,-2442.679609,-8886.707777
950.787027,1924.535449,-1258.350101,-9269.755526
950.787347,2886.803174,-222.061783,-9806.022374
950.787667,4663.297435,222.061783,-9116.536426
950.787987,5699.585753,814.226536,-10035.851024
950.788307,5403.503377,-148.041188,-9269.755526
950.788627,2220.617826,-592.164754,-9652.803275
950.788947,518.144159,-222.061783,-10342.289223
950.789267,222.061783,-222.061783,-9806.022374
950.789587,-444.123565,1850.514855,-10342.289223
950.789907,1702.473667,444.123565,-10495.508323
950.790227,2516.700203,962.267725,-10342.289223
950.790547,2590.720797,1184.329507,-10955.165621
950.790866,0.000000,740.205942,-10878.556072
950.791186,-592.164754,148.041188,-10955.165621
950.791506,-666.185348,-592.164754,-10648.727422
950.791826,-2220.617826,0.000000,-10648.727422
950.792146,-222.061783,2146.597232,-10725.336972
950.792466,-592.164754,3108.864956,-10801.946522
950.792786,74.020594,1406.391290,-11414.822920
950.793106,0.000000,1628.453072,-11414.822920
950.793426,-2368.659014,1554.432478,-10955.165621
950.793746,-1850.514855,1406.391290,-9346.365076
950.794066,-666.185348,1554.432478,-10725.336972
950.794386,1554.432478,1850.514855,-10648.727422
950.794706,-1776.494261,-370.102971,-9806.022374
950.795026,-2294.638420,666.185348,-10035.851024
950.795346,-2664.741391,-1332.370696,-9806.022374
950.795666,-962.267725,-1184.329507,-9422.974625
950.795986,-1036.288319,-1702.473667,-9422.974625
950.796306,-2294.638420,-962.267725,-9116.536426
950.796626,-2812.782580,1332.370696,-9193.145976
950.796946,0.000000,2812.782580,-9652.803275
950.797266,2294.638420,2146.597232,-9422.974625
950.797586,2368.659014,1036.288319,-9652.803275
950.797906,1850.514855,-1184.329507,-9346.365076
950.798226,3108.864956,-2590.720797,-8810.098227
950.798546,2442.679609,-2516.700203,-9193.145976
950.798866,2664.741391,-814.226536,-9422.974625
950.799186,888.247130,592.164754,-9039.926876
950.799506,-1110.308913,888.247130,-8963.317327
950.799826,-1702.473667,296.082377,-9193.145976
950.800146,-1184.329507,-1554.432478,-9806.022374
950.800466,-1924.535449,-2368.659014,-10265.679673
950.800786,-1184.329507,-2368.659014,-9882.631924
950.801106,-370.102971,-666.185348,-9959.241474
950.801426,3034.844362,1184.329507,-10878.556072
950.801745,5477.523971,2664.741391,-10878.556072
950.802065,4589.276840,2516.700203,-11721.261119
950.802385,2738.761985,2738.761985,-10572.117872
950.802705,3108.864956,1406.391290,-10725.336972
950.803025,2886.803174,518.144159,-11338.213370
950.803345,1850.514855,74.020594,-11108.384721
950.803665,-666.185348,0.000000,-11108.384721
950.803985,-592.164754,888.247130,-9882.631924
950.804305,1110.308913,2294.638420,-10955.165621
950.804625,1480.411884,2960.823768,-11797.870669
950.804945,148.041188,3034.844362,-10878.556072
950.805265,-1332.370696,1406.391290,-11184.994271
950.805585,1332.370696,-148.041188,-9499.584175
950.805905,3552.988522,-3034.844362,-9806.022374
950.806225,3701.029710,-2960.823768,-9729.412825
950.806545,3256.906145,-1036.288319,-9806.022374
950.806865,1628.453072,518.144159,-9576.193725
950.807185,2368.659014,2516.700203,-10035.851024
950.807505,0.000000,1628.453072,-9806.022374
950.807825,-2738.761985,370.102971,-9422.974625
950.808145,-2146.597232,-2886.803174,-9269.755526
950.808465,-592.164754,-3108.864956,-9193.145976
950.808785,-148.041188,-2960.823768,-9346.365076
950.809105,148.041188,-2368.659014,-8810.098227
950.809425,0.000000,-666.185348,-9652.803275
950.809745,1036.288319,1406.391290,-9806.022374
950.810065,1258.350101,3701.029710,-10035.851024
950.810385,-962.267725,3552.988522,-10035.851024
950.810705,-1406.391290,2590.720797,-10189.070123
950.811025,148.041188,1258.350101,-10572.117872
950.811345,1110.308913,0.000000,-9806.022374
950.811665,148.041188,-962.267725,-10418.898773
950.811985,-592.164754,-148.041188,-10418.898773
950.812305,-1554.432478,1332.370696,-10648.727422
950.812624,-1036.288319,2590.720797,-10725.336972
950.812944,-1332.370696,3775.050304,-10495.508323
950.813264,-1332.370696,2590.720797,-10955.165621
950.813584,444.123565,962.267725,-10725.336972
950.813904,2146.597232,-370.102971,-10648.727422
950.814224,1184.329507,-518.144159,-10189.070123
950.814544,-1258.350101,592.164754,-9959.241474
950.814864,-1406.391290,888.247130,-10342.289223
950.815184,518.144159,814.226536,-10418.898773
950.815504,2664.741391,962.267725,-10265.679673
950.815824,2294.638420,1850.514855,-10189.070123
950.816144,2220.617826,518.144159,-10112.460574
950.816464,370.102971,74.020594,-9806.022374
950.816784,444.123565,-1702.473667,-9499.584175
950.817104,592.164754,-2072.576638,-9499.584175
950.817424,1184.329507,-1702.473667,-9193.145976
950.817744,1258.350101,-444.123565,-9729.412825
950.818064,2442.679609,222.061783,-10189.070123
950.818384,3552.988522,1184.329507,-9959.241474
950.818704,3997.112087,1406.391290,-10648.727422
950.819024,2516.700203,1332.370696,-9269.755526
950.819344,962.267725,2220.617826,-10112.460574
950.819664,-740.205942,1998.556043,-10189.070123
950.819984,-296.082377,-814.226536,-9959.241474
950.820304,148.041188,-2146.597232,-9959.241474
950.820624,148.041188,-1998.556043,-9959.241474
950.820944,-1036.288319,-2146.597232,-9806.022374
950.821264,444.123565,148.041188,-10878.556072
950.821584,296.082377,1036.288319,-10572.117872
950.821904,-370.102971,2294.638420,-11184.994271
950.822224,-148.041188,2294.638420,-10725.336972
950.822544,740.205942,2146.597232,-11261.603821
950.822864,1258.350101,962.267725,-11184.994271
950.823184,888.247130,1036.288319,-10418.898773
950.823504,0.000000,592.164754,-10495.508323
950.823823,74.020594,0.000000,-9422.974625
950.824143,-1776.494261,-814.226536,-9806.022374
950.824463,-1702.473667,-2368.659014,-10342.289223
950.824783,-1332.370696,-2220.617826,-9652.803275
950.825103,-1998.556043,-1110.308913,-9959.241474
950.825423,-1036.288319,1998.556043,-9882.631924
950.825743,-1406.391290,3256.906145,-10878.556072
950.826063,0.000000,3330.926739,-10418.898773
950.826383,1480.411884,740.205942,-9882.631924
950.826703,3182.885551,444.123565,-9729.412825
950.827023,3923.091493,-592.164754,-9576.193725
950.827343,2590.720797,-222.061783,-9806.022374
950.827663,1850.514855,1184.329507,-9882.631924
950.827983,962.267725,962.267725,-9806.022374
950.828303,-888.247130,148.041188,-9193.145976
950.828623,-2294.638420,-814.226536,-9576.193725
950.828943,-1998.556043,-1554.432478,-9116.536426
950.829263,370.102971,74.020594,-9499.584175
950.829583,2368.659014,592.164754,-9882.631924
950.829903,2368.659014,814.226536,-9959.241474
950.830223,1628.453072,-740.205942,-10418.898773
950.830543,1850.514855,-148.041188,-9806.022374
950.830863,1406.391290,1628.453072,-10648.727422
950.831183,1850.514855,2738.761985,-10572.117872
950.831503,1036.288319,2960.823768,-10418.898773
950.831823,1406.391290,592.164754,-10418.898773
950.832143,2590.720797,-1702.473667,-10495.508323
950.832463,4219.173869,-2664.741391,-9959.241474
950.832783,3182.885551,-2294.638420,-10495.508323
950.833103,1184.329507,-148.041188,-11031.775171
950.833423,-1184.329507,2220.617826,-10035.851024
950.833743,-3330.926739,4145.153275,-10342.289223
950.834063,-2294.638420,2664.741391,-9806.022374
950.834383,-962.267725,1628.453072,-10112.460574
950.834702,1924.535449,296.082377,-11261.603821
950.835022,3182.885551,592.164754,-10265.679673
950.835342,962.267725,518.144159,-11414.822920
950.835662,1332.370696,-740.205942,-9422.974625
950.835982,1480.411884,-1776.494261,-9652.803275
950.836302,1554.432478,-1776.494261,-10112.460574
950.836622,-3034.844362,-1110.308913,-8733.488677
950.836942,-3849.070898,888.247130,-9806.022374
950.837262,-2812.782580,3478.967927,-9959.241474
950.837582,-1776.494261,1850.514855,-10418.898773
950.837902,296.082377,-592.164754,-9806.022374
950.838222,666.185348,-4367.215058,-9806.022374
950.838542,-148.041188,-3034.844362,-9269.755526
950.838862,-1776.494261,-1776.494261,-9806.022374
950.839182,0.000000,-444.123565,-10189.070123
950.839502,0.000000,3034.844362,-9806.022374
950.839822,0.000000,2442.679609,-10572.117872
950.840142,-1406.391290,2442.679609,-10035.851024
950.840462,-1480.411884,3182.885551,-10648.727422
950.840782,1036.288319,666.185348,-10495.508323
950.841102,3404.947333,-1480.411884,-9806.022374
950.841422,2220.617826,-1776.494261,-10112.460574
950.841742,-1184.329507,-2368.659014,-9652.803275
950.842062,-3775.050304,-2442.679609,-9729.412825
950.842382,-1332.370696,-592.164754,-9959.241474
950.842702,0.000000,1406.391290,-10112.460574
950.843022,1850.514855,2442.679609,-10035.851024
950.843342,3627.009116,3034.844362,-10955.165621
950.843662,3256.906145,1184.329507,-9806.022374
950.843982,1406.391290,666.185348,-10265.679673
950.844302,296.082377,814.226536,-10572.117872
950.844622,2442.679609,0.000000,-10572.117872
950.844942,1998.556043,370.102971,-10495.508323
950.845262,1036.288319,370.102971,-9576.193725
950.845581,-296.082377,-444.123565,-10189.070123
950.845901,2960.823768,-592.164754,-9806.022374
950.846221,3034.844362,518.144159,-10418.898773
950.846541,1776.494261,1036.288319,-9806.022374
950.846861,1036.288319,148.041188,-9499.584175
950.847181,2442.679609,-148.041188,-9652.803275
950.847501,2960.823768,-1036.288319,-9576.193725
950.847821,1036.288319,-2220.617826,-9652.803275
950.848141,1702.473667,-1184.329507,-11108.384721
950.848461,4589.276840,296.082377,-10189.070123
950.848781,4367.215058,3330.926739,-10112.460574
950.849101,2146.597232,5921.647536,-10189.070123
950.849421,-444.123565,3849.070898,-9882.631924
950.849741,1776.494261,148.041188,-9882.631924
950.850061,2960.823768,-2664.741391,-10112.460574
950.850381,2294.638420,-3478.967927,-9499.584175
950.850701,-1776.494261,-2442.679609,-9882.631924
950.851021,-2368.659014,-814.226536,-9576.193725
950.851341,-1406.391290,1480.411884,-9882.631924
950.851661,1036.288319,3182.885551,-10955.165621
950.851981,-370.102971,2220.617826,-10418.898773
950.852301,-888.247130,2146.597232,-9806.022374
950.852621,0.000000,962.267725,-10112.460574
950.852941,3034.844362,592.164754,-10572.117872
950.853261,3330.926739,1258.350101,-11031.775171
950.853581,296.082377,-962.267725,-10572.117872
950.853901,-3404.947333,-2664.741391,-8963.317327
950.854221,-3034.844362,-2442.679609,-9806.022374
950.854541,-2516.700203,-222.061783,-10495.508323
950.854861,-2072.576638,1776.494261,-10495.508323
950.855181,-2368.659014,2146.597232,-10189.070123
950.855501,-2146.597232,2886.803174,-10572.117872
950.855821,-3108.864956,1258.350101,-10189.070123
950.856141,-3701.029710,-740.205942,-9806.022374
950.856461,-2664.741391,-962.267725,-8886.707777
950.856780,-1850.514855,-1184.329507,-9346.365076
950.857100,2072.576638,0.000000,-10189.070123
950.857420,3256.906145,370.102971,-10648.727422
950.857740,1998.556043,1776.494261,-9806.022374
950.858060,-740.205942,3034.844362,-9806.022374
950.858380,-2146.597232,2664.741391,-10495.508323
950.858700,-296.082377,2072.576638,-9729.412825
950.859020,-518.144159,-2368.659014,-10112.460574
950.859340,148.041188,-3849.070898,-9422.974625
950.859660,-148.041188,-4219.173869,-10189.070123
950.859980,1110.308913,-3478.967927,-9882.631924
950.860300,-444.123565,1702.473667,-9729.412825
950.860620,-740.205942,4367.215058,-11184.994271
950.860940,2516.700203,4367.215058,-10955.165621
950.861260,4811.338623,2442.679609,-10265.679673
950.861580,2368.659014,0.000000,-11261.603821
950.861900,2516.700203,-3108.864956,-10342.289223
950.862220,3478.967927,-4737.318029,-9959.241474
950.862540,3330.926739,-2664.741391,-10418.898773
950.862860,2368.659014,0.000000,-9652.803275
950.863180,1258.350101,1406.391290,-10418.898773
950.863500,2738.761985,1776.494261,-10955.165621
950.863820,2812.782580,3034.844362,-10495.508323
950.864140,3182.885551,2146.597232,-10801.946522
950.864460,4515.256246,1554.432478,-9652.803275
950.864780,2368.659014,-814.226536,-10189.070123
950.865100,2368.659014,-3552.988522,-8656.879127
950.865420,1776.494261,-4663.297435,-9499.584175
950.865740,370.102971,-3330.926739,-8886.707777
950.866060,-222.061783,-1036.288319,-9346.365076
950.866380,2886.803174,2664.741391,-10112.460574
950.866700,1924.535449,4959.379811,-12027.699319
950.867020,-1702.473667,3478.967927,-10265.679673
950.867340,-3404.947333,444.123565,-9806.022374
950.867659,-2442.679609,-3034.844362,-9422.974625
950.867979,222.061783,-3552.988522,-9806.022374
950.868299,0.000000,-2812.782580,-10342.289223
950.868619,-1110.308913,-2294.638420,-10035.851024
950.868939,0.000000,1554.432478,-9729.412825
950.869259,-666.185348,3404.947333,-10418.898773
950.869579,518.144159,4219.173869,-10878.556072
950.869899,-296.082377,3330.926739,-10878.556072
950.870219,-2146.597232,1850.514855,-11108.384721
950.870539,-2294.638420,-666.185348,-9499.584175
950.870859,-592.164754,-740.205942,-10495.508323
950.871179,-1924.535449,-518.144159,-9882.631924
950.871499,-2590.720797,-296.082377,-9959.241474
950.871819,1036.288319,518.144159,-9882.631924
950.872139,1258.350101,1998.556043,-10342.289223
950.872459,-370.102971,2294.638420,-9959.241474
950.872779,-3034.844362,2368.659014,-10112.460574
950.873099,-1110.308913,3256.906145,-10342.289223
950.873419,0.000000,3182.885551,-10035.851024
950.873739,148.041188,518.144159,-9729.412825
950.874059,0.000000,-1110.308913,-9499.584175
950.874379,296.082377,-3701.029710,-8810.098227
950.874699,3108.864956,-3182.885551,-8580.269578
950.875019,2886.803174,0.000000,-9652.803275
950.875339,3701.029710,2738.761985,-9039.926876
950.875659,2960.823768,4589.276840,-10572.117872
950.875979,2664.741391,4145.153275,-10265.679673
950.876299,2886.803174,1850.514855,-10112.460574
950.876619,0.000000,0.000000,-10495.508323
950.876939,-2072.576638,-2368.659014,-9422.974625
950.877259,370.102971,-2886.803174,-9806.022374
950.877579,2072.576638,-444.123565,-10112.460574
950.877898,1036.288319,370.102971,-8733.488677
950.878218,2516.700203,740.205942,-10189.070123
950.878538,4293.194464,1554.432478,-10418.898773
950.878858,4589.276840,1850.514855,-11568.042020
950.879178,2960.823768,1998.556043,-10801.946522
950.879498,1998.556043,2442.679609,-11338.213370
950.879818,2368.659014,2442.679609,-10955.165621
950.880137,2960.823768,962.267725,-10648.727422
950.880457,370.102971,-148.041188,-10189.070123
950.880777,-2442.679609,-888.247130,-10801.946522
950.881097,-1998.556043,-2368.659014,-10035.851024
950.881417,962.267725,-2220.617826,-10725.336972
950.881737,370.102971,-1554.432478,-10878.556072
950.882057,-1184.329507,222.061783,-9116.536426
950.882376,-2146.597232,1998.556043,-10572.117872
950.882696,962.267725,3478.967927,-10801.946522
950.883016,2442.679609,3478.967927,-10878.556072
950.883336,592.164754,1850.514855,-10495.508323
950.883656,1480.411884,666.185348,-9882.631924
950.883976,592.164754,-1184.329507,-9499.584175
950.884296,-1110.308913,-2146.597232,-10265.679673
950.884615,-3256.906145,-2886.803174,-9576.193725
950.884935,-3997.112087,-2738.761985,-9729.412825
950.885255,-1776.494261,-666.185348,-9806.022374
950.885575,-666.185348,370.102971,-9116.536426
950.885895,-1702.473667,1924.535449,-9729.412825
950.886215,2368.659014,1628.453072,-9652.803275
950.886535,888.247130,-1702.473667,-9422.974625
950.886854,2516.700203,-4663.297435,-8350.440928
950.887174,-1702.473667,-3108.864956,-9269.755526
950.887494,-1110.308913,-888.247130,-9806.022374
950.887814,222.061783,1406.391290,-9576.193725
950.888134,2294.638420,3627.009116,-10265.679673
950.888454,666.185348,3034.844362,-10801.946522
950.888773,-1702.473667,-1258.350101,-10189.070123
950.889093,-1036.288319,-3923.091493,-10265.679673
950.889413,0.000000,-3849.070898,-9806.022374
950.889733,1036.288319,-1406.391290,-11031.775171
950.890053,814.226536,444.123565,-10572.117872
950.890373,2442.679609,2146.597232,-11797.870669
950.890693,3627.009116,1554.432478,-11338.213370
950.891012,1998.556043,3701.029710,-11568.042020
950.891332,222.061783,4145.153275,-11568.042020
950.891652,1332.370696,2368.659014,-11031.775171
950.891972,2886.803174,444.123565,-11797.870669
950.892292,3478.967927,-2146.597232,-10572.117872
950.892612,1258.350101,-4367.215058,-9729.412825
950.892932,74.020594,-3256.906145,-10035.851024
950.893251,-1110.308913,1776.494261,-10112.460574
950.893571,-1332.370696,3404.947333,-10955.165621
950.893891,-666.185348,3701.029710,-9039.926876
950.894211,444.123565,1184.329507,-9576.193725
950.894531,1998.556043,-1702.473667,-9346.365076
950.894851,2886.803174,-3256.906145,-8810.098227
950.895171,3330.926739,-2294.638420,-9729.412825
950.895490,2146.597232,0.000000,-9193.145976
950.895810,518.144159,1850.514855,-9499.584175
950.896130,74.020594,2368.659014,-9269.755526
950.896450,-222.061783,2368.659014,-9422.974625
950.896770,-592.164754,1258.350101,-9346.365076
950.897090,-222.061783,0.000000,-9806.022374
950.897410,518.144159,-1480.411884,-9729.412825
950.897729,-1480.411884,-2442.679609,-9806.022374
950.898049,-1776.494261,-1554.432478,-9959.241474
950.898369,-2072.576638,-222.061783,-8810.098227
950.898689,-1184.329507,2220.617826,-10342.289223
950.899009,1036.288319,3701.029710,-10648.727422
950.899329,1850.514855,4071.132681,-11568.042020
950.899649,2664.741391,4071.132681,-11184.994271
950.899968,2146.597232,1554.432478,-10112.460574
950.900288,962.267725,666.185348,-10725.336972
950.900608,0.000000,222.061783,-10725.336972
950.900928,0.000000,74.020594,-10801.946522
950.901248,-666.185348,370.102971,-10418.898773
950.901568,-2368.659014,1184.329507,-9652.803275
950.901888,592.164754,1554.432478,-11184.994271
950.902207,1776.494261,370.102971,-10572.117872
950.902527,3034.844362,1628.453072,-10801.946522
950.902847,296.082377,3256.906145,-9806.022374
950.903167,-740.205942,2960.823768,-10418.898773
950.903487,962.267725,2368.659014,-9959.241474
950.903807,2368.659014,296.082377,-9882.631924
950.904127,1628.453072,-1110.308913,-9193.145976
950.904446,0.000000,-1702.473667,-9422.974625
950.904766,-370.102971,-962.267725,-9576.193725
950.905086,-740.205942,444.123565,-9193.145976
950.905406,-666.185348,1998.556043,-9959.241474
950.905726,1776.494261,2368.659014,-9499.584175
950.906046,1406.391290,0.000000,-9806.022374
950.906366,2146.597232,-1480.411884,-9269.755526
950.906685,444.123565,-1480.411884,-9882.631924
950.907005,1776.494261,-1628.453072,-9806.022374
950.907325,1850.514855,-1702.473667,-9193.145976
950.907645,740.205942,-666.185348,-9499.584175
950.907965,148.041188,740.205942,-10342.289223
950.908285,370.102971,-740.205942,-10495.508323
950.908605,1628.453072,592.164754,-10112.460574
950.908924,2146.597232,1628.453072,-11108.384721
950.909244,444.123565,666.185348,-10265.679673
950.909564,-1258.350101,-222.061783,-10265.679673
950.909884,-3701.029710,-1406.391290,-10572.117872
950.910204,-1480.411884,-666.185348,-10878.556072
950.910524,148.041188,0.000000,-10418.898773
950.910843,0.000000,740.205942,-12180.918418
950.911163,-1110.308913,666.185348,-11108.384721
950.911483,814.226536,-148.041188,-11414.822920
950.911803,1776.494261,-1110.308913,-10495.508323
950.912123,1332.370696,0.000000,-10648.727422
950.912443,-962.267725,1850.514855,-10801.946522
950.912763,-666.185348,2368.659014,-10418.898773
950.913082,-1480.411884,1480.411884,-10189.070123
950.913402,-296.082377,0.000000,-9959.241474
950.913722,592.164754,-2516.700203,-8733.488677
950.914042,666.185348,-3701.029710,-10189.070123
950.914362,-814.226536,-2812.782580,-8886.707777
950.914682,-370.102971,-1628.453072,-8810.098227
950.915002,666.185348,592.164754,-10189.070123
950.915321,-222.061783,592.164754,-8273.831378
950.915641,1480.411884,2146.597232,-10342.289223
950.915961,962.267725,0.000000,-9116.536426
950.916281,888.247130,-444.123565,-9116.536426
950.916601,1628.453072,-1184.329507,-9422.974625
950.916921,1258.350101,-2442.679609,-9269.755526
950.917241,1406.391290,-2294.638420,-9116.536426
950.917560,3404.947333,-370.102971,-10035.851024
950.917880,3627.009116,2738.761985,-10035.851024
950.918200,1850.514855,4441.235652,-10189.070123
950.918520,814.226536,2960.823768,-10418.898773
950.918840,2368.659014,0.000000,-9729.412825
950.919160,4145.153275,-1702.473667,-10572.117872
950.919480,4663.297435,-2146.597232,-10725.336972
950.919799,5033.400406,-1554.432478,-11184.994271
950.920119,3923.091493,1480.411884,-11797.870669
950.920439,-296.082377,5255.462188,-11031.775171
950.920759,-3404.947333,5995.668130,-11031.775171
950.921079,-962.267725,4145.153275,-11184.994271
950.921399,-1406.391290,2664.741391,-11108.384721
950.921719,-1850.514855,-814.226536,-10878.556072
950.922038,-518.144159,-1480.411884,-11874.480219
950.922358,1036.288319,-1850.514855,-9806.022374
950.922678,0.000000,-518.144159,-10572.117872
950.922998,518.144159,1332.370696,-9806.022374
950.923318,1110.308913,5551.544565,-10495.508323
950.923638,148.041188,5255.462188,-11108.384721
950.923958,-444.123565,1406.391290,-9576.193725
950.924277,1036.288319,-592.164754,-10418.898773
950.924597,-1036.288319,-3849.070898,-8580.269578
950.924917,0.000000,-4737.318029,-8733.488677
950.925237,-222.061783,-1850.514855,-8503.660028
950.925557,-1850.514855,666.185348,-9193.145976
950.925877,-4441.235652,1776.494261,-9806.022374
950.926197,-4293.194464,2590.720797,-9346.365076
950.926516,-3182.885551,444.123565,-9729.412825
950.926836,-3478.967927,-444.123565,-9882.631924
950.927156,-2368.659014,-2738.761985,-8733.488677
950.927476,-1258.350101,-3404.947333,-10418.898773
950.927796,1110.308913,-1332.370696,-8733.488677
950.928116,814.226536,370.102971,-10342.289223
950.928436,1924.535449,2146.597232,-10648.727422
950.928755,370.102971,2294.638420,-10801.946522
950.929075,1924.535449,1776.494261,-11031.775171
950.929395,1258.350101,1554.432478,-10189.070123
950.929715,888.247130,1998.556043,-11031.775171
950.930035,1702.473667,1628.453072,-11031.775171
950.930355,740.205942,666.185348,-10878.556072
950.930674,222.061783,-370.102971,-10572.117872
950.930994,592.164754,296.082377,-10725.336972
950.931314,74.020594,-444.123565,-10572.117872
950.931634,-1258.350101,-962.267725,-10725.336972
950.931954,-592.164754,-740.205942,-9576.193725
950.932274,888.247130,814.226536,-9652.803275
950.932594,4737.318029,1184.329507,-10189.070123
950.932913,6809.894666,1480.411884,-10495.508323
950.933233,6735.874072,1406.391290,-10955.165621
950.933553,5921.647536,888.247130,-9806.022374
950.933873,6365.771101,1702.473667,-10112.460574
950.934193,4737.318029,1776.494261,-10418.898773
950.934513,1406.391290,-814.226536,-10035.851024
950.934833,-2812.782580,-1702.473667,-8886.707777
950.935152,-1480.411884,-2516.700203,-8963.317327
950.935472,1184.329507,-2146.597232,-8886.707777
950.935792,2516.700203,-1628.453072,-9652.803275
950.936112,2368.659014,148.041188,-9806.022374
950.936432,1258.350101,962.267725,-9422.974625
950.936752,1776.494261,1480.411884,-9499.584175
950.937072,3478.967927,666.185348,-10035.851024
950.937391,1998.556043,0.000000,-9959.241474
950.937711,0.000000,-1554.432478,-11491.432470
950.938031,1258.350101,-1554.432478,-9499.584175
950.938351,2516.700203,814.226536,-11031.775171
950.938671,-148.041188,0.000000,-10342.289223
950.938991,-2960.823768,1110.308913,-10112.460574
950.939311,-4145.153275,1184.329507,-11491.432470
950.939630,-2294.638420,814.226536,-10955.165621
950.939950,-1702.473667,518.144159,-10801.946522
950.940270,-1776.494261,-1480.411884,-10725.336972
950.940590,-2220.617826,-1924.535449,-10495.508323
950.940910,-2738.761985,740.205942,-11414.822920
950.941230,-1332.370696,2442.679609,-10495.508323
950.941550,-1628.453072,3404.947333,-10648.727422
950.941869,-370.102971,1924.535449,-10801.946522
950.942189,962.267725,1036.288319,-11491.432470
950.942509,0.000000,-1480.411884,-10418.898773
950.942829,-3182.885551,-1184.329507,-9576.193725
950.943149,-4293.194464,-148.041188,-9806.022374
950.943469,-3478.967927,2368.659014,-9959.241474
950.943789,0.000000,2442.679609,-9806.022374
950.944108,1406.391290,888.247130,-9576.193725
950.944428,444.123565,-962.267725,-9652.803275
950.944748,666.185348,-1332.370696,-9346.365076
950.945068,-1628.453072,-962.267725,-9269.755526
950.945388,-814.226536,814.226536,-8733.488677
950.945708,148.041188,-148.041188,-8886.707777
950.946028,1924.535449,-1332.370696,-8886.707777
950.946347,2294.638420,-2368.659014,-10035.851024
950.946667,1702.473667,-3108.864956,-9193.145976
950.946987,2886.803174,222.061783,-9806.022374
950.947307,3330.926739,2886.803174,-10342.289223
950.947627,3552.988522,5847.626942,-9576.193725
950.947947,2738.761985,4145.153275,-11031.775171
950.948267,222.061783,0.000000,-11031.775171
950.948586,-1036.288319,-370.102971,-9652.803275
950.948906,0.000000,0.000000,-10495.508323
950.949226,1258.350101,814.226536,-9729.412825
950.949546,3330.926739,1776.494261,-11184.994271
950.949866,2960.823768,1776.494261,-10572.117872
950.950186,3849.070898,-148.041188,-11031.775171
950.950505,3997.112087,-518.144159,-9882.631924
950.950825,2812.782580,-888.247130,-11261.603821
950.951145,1628.453072,1480.411884,-10189.070123
950.951465,2368.659014,2590.720797,-11491.432470
950.951785,2516.700203,2664.741391,-11031.775171
950.952105,2738.761985,1554.432478,-10112.460574
950.952425,1036.288319,-370.102971,-10418.898773
950.952744,296.082377,-148.041188,-9882.631924
950.953064,1110.308913,296.082377,-10801.946522
950.953384,1332.370696,1554.432478,-10112.460574
950.953704,-370.102971,1628.453072,-9882.631924
950.954024,-2072.576638,-814.226536,-9346.365076
950.954344,-2220.617826,-2368.659014,-9422.974625
950.954664,-1554.432478,-1702.473667,-8810.098227
950.954983,-3034.844362,814.226536,-9882.631924
950.955303,-2442.679609,1036.288319,-8963.317327
950.955623,-1480.411884,0.000000,-9652.803275
950.955943,-1702.473667,-1628.453072,-8810.098227
950.956263,-1184.329507,-3034.844362,-9346.365076
950.956583,0.000000,-1332.370696,-9116.536426
950.956903,-1406.391290,1036.288319,-9959.241474
950.957222,-592.164754,2220.617826,-9806.022374
950.957542,-518.144159,2664.741391,-10342.289223
950.957862,-1110.308913,0.000000,-10035.851024
950.958182,-444.123565,-1998.556043,-9652.803275
950.958502,-2368.659014,592.164754,-9959.241474
950.958822,-1036.288319,1110.308913,-11261.603821
950.959142,1702.473667,1998.556043,-10725.336972
950.959461,-148.041188,2220.617826,-10955.165621
950.959781,-2812.782580,1554.432478,-10955.165621
950.960101,-2146.597232,370.102971,-9806.022374
950.960421,-592.164754,1406.391290,-11797.870669
950.960741,888.247130,1776.494261,-10801.946522
950.961061,1480.411884,740.205942,-10725.336972
950.961381,518.144159,-888.247130,-10342.289223
950.961700,-666.185348,-740.205942,-9959.241474
950.962020,3627.009116,-962.267725,-11414.822920
950.962340,6069.688724,-1110.308913,-10112.460574
950.962660,4737.318029,2664.741391,-9806.022374
950.962980,2886.803174,4367.215058,-10801.946522
950.963300,4071.132681,4737.318029,-10801.946522
950.963620,2664.741391,1332.370696,-9959.241474
950.963939,2146.597232,74.020594,-9882.631924
950.964259,222.061783,-296.082377,-9806.022374
950.964579,1110.308913,-1628.453072,-9422.974625
950.964899,3997.112087,-1850.514855,-9499.584175
950.965219,2368.659014,-222.061783,-9269.755526
950.965539,296.082377,1628.453072,-9806.022374
950.965859,296.082377,2664.741391,-9806.022374
950.966178,1702.473667,-740.205942,-9116.536426
950.966498,3775.050304,-592.164754,-10112.460574
950.966818,2590.720797,0.000000,-9269.755526
950.967138,2886.803174,444.123565,-10495.508323
950.967458,2590.720797,962.267725,-9346.365076
950.967778,2442.679609,1480.411884,-10572.117872
950.968098,74.020594,0.000000,-9882.631924
950.968417,-1702.473667,296.082377,-9806.022374
950.968737,-2886.803174,444.123565,-10189.070123
950.969057,-1924.535449,-1184.329507,-9729.412825
950.969377,-2812.782580,-2960.823768,-10035.851024
950.969697,-3330.926739,-3034.844362,-10495.508323
950.970017,-2442.679609,-740.205942,-10342.289223
950.970336,-3701.029710,0.000000,-9882.631924
950.970656,-1036.288319,2664.741391,-11184.994271
950.970976,1850.514855,2442.679609,-10648.727422
950.971296,1776.494261,2886.803174,-10878.556072
950.971616,-1332.370696,888.247130,-10189.070123
950.971936,-1480.411884,370.102971,-9882.631924
950.972256,-2368.659014,-1554.432478,-10265.679673
950.972575,148.041188,-3182.885551,-9959.241474
950.972895,-3182.885551,-4071.132681,-8886.707777
950.973215,-2886.803174,-2812.782580,-9422.974625
950.973535,-1036.288319,-1702.473667,-9269.755526
950.973855,1628.453072,518.144159,-10801.946522
950.974175,0.000000,2886.803174,-10725.336972
950.974495,-1776.494261,3923.091493,-9959.241474
950.974814,-2812.782580,2738.761985,-9652.803275
950.975134,518.144159,-814.226536,-9422.974625
950.975454,4071.132681,-4589.276840,-9422.974625
950.975774,4515.256246,-4737.318029,-9039.926876
950.976094,2664.741391,-2368.659014,-9959.241474
950.976414,1480.411884,2368.659014,-10189.070123
950.976734,1332.370696,4515.256246,-11031.775171
950.977053,1406.391290,4959.379811,-10495.508323
950.977373,-518.144159,2442.679609,-10112.460574
950.977693,888.247130,-518.144159,-10342.289223
950.978013,1406.391290,-3108.864956,-9346.365076
950.978333,3849.070898,-3552.988522,-10955.165621
950.978653,4441.235652,-2368.659014,-10189.070123
950.978973,3849.070898,962.267725,-10648.727422
950.979292,1924.535449,2960.823768,-10801.946522
950.979612,3034.844362,3701.029710,-10342.289223
950.979932,2442.679609,3182.885551,-10801.946522
950.980252,1332.370696,1924.535449,-11338.213370
950.980572,962.267725,-444.123565,-10878.556072
950.980892,1998.556043,-2146.597232,-9882.631924
950.981212,3330.926739,-3182.885551,-9959.241474
950.981532,2294.638420,-1628.453072,-9576.193725
950.981851,-666.185348,2072.576638,-10035.851024
950.982171,-2516.700203,2960.823768,-9806.022374
950.982491,-1184.329507,3552.988522,-9882.631924
950.982811,1184.329507,3034.844362,-10572.117872
950.983131,740.205942,1036.288319,-9652.803275
950.983451,-370.102971,-2368.659014,-9729.412825
950.983771,222.061783,-2516.700203,-9346.365076
950.984091,-666.185348,-2960.823768,-8810.098227
950.984410,-296.082377,-888.247130,-9499.584175
950.984730,-148.041188,518.144159,-9193.145976
950.985050,0.000000,370.102971,-10035.851024
950.985370,-740.205942,370.102971,-9346.365076
950.985690,-1628.453072,370.102971,-9806.022374
950.986010,-592.164754,1554.432478,-9806.022374
950.986330,-74.020594,2368.659014,-9346.365076
950.986650,-740.205942,2590.720797,-10725.336972
950.986970,-666.185348,962.267725,-10189.070123
950.987289,-1406.391290,-666.185348,-10035.851024
950.987609,-3701.029710,-1258.350101,-10035.851024
950.987929,-3997.112087,-814.226536,-10265.679673
950.988249,-3849.070898,1406.391290,-10342.289223
950.988569,-1480.411884,1702.473667,-10572.117872
950.988889,148.041188,1628.453072,-10572.117872
950.989209,1554.432478,2368.659014,-10878.556072
950.989529,4071.132681,1628.453072,-10495.508323
950.989848,6291.750507,740.205942,-10801.946522
950.990168,6513.812290,148.041188,-10572.117872
950.990488,2960.823768,1554.432478,-11108.384721
950.990808,-814.226536,2220.617826,-10189.070123
950.991128,-148.041188,2812.782580,-10342.289223
950.991448,740.205942,2368.659014,-10572.117872
950.991768,666.185348,2220.617826,-9882.631924
950.992088,-1258.350101,666.185348,-9959.241474
950.992407,-2368.659014,-1998.556043,-9269.755526
950.992727,222.061783,-2812.782580,-9193.145976
950.993047,2664.741391,-2072.576638,-9499.584175
950.993367,1554.432478,-222.061783,-9576.193725
950.993687,888.247130,148.041188,-9576.193725
950.994007,1702.473667,2442.679609,-9193.145976
950.994327,2886.803174,3701.029710,-9806.022374
950.994647,5329.482782,3627.009116,-9806.022374
950.994967,5403.503377,2220.617826,-11338.213370
950.995286,4367.215058,-666.185348,-10112.460574
950.995606,2886.803174,-3108.864956,-9576.193725
950.995926,814.226536,-2812.782580,-9269.755526
950.996246,-888.247130,-1406.391290,-8580.269578
950.996566,-1702.473667,222.061783,-9806.022374
950.996886,-2886.803174,1554.432478,-9806.022374
950.997206,-2960.823768,1406.391290,-9806.022374
950.997526,0.000000,-1332.370696,-10189.070123
950.997845,2442.679609,-2146.597232,-11414.822920
950.998165,3256.906145,-2146.597232,-10189.070123
950.998485,666.185348,-2072.576638,-10648.727422
950.998805,74.020594,-296.082377,-10572.117872
950.999125,-1332.370696,2664.741391,-11797.870669
950.999445,-2146.597232,2590.720797,-10801.946522
950.999765,-962.267725,592.164754,-10342.289223
951.000085,-666.185348,-2960.823768,-10572.117872
951.000404,-444.123565,-3997.112087,-10112.460574
951.000724,-666.185348,-3478.967927,-10112.460574
951.001044,222.061783,-1776.494261,-10265.679673
951.001364,-74.020594,1110.308913,-10418.898773
951.001684,-1702.473667,1554.432478,-10725.336972
951.002004,-814.226536,1406.391290,-10265.679673
951.002324,-1480.411884,148.041188,-10035.851024
951.002644,-3182.885551,-740.205942,-10189.070123
951.002964,-3849.070898,-1110.308913,-9806.022374
951.003283,-1480.411884,-2146.597232,-9882.631924
951.003603,2738.761985,-2442.679609,-9729.412825
951.003923,2812.782580,-1776.494261,-9959.241474
951.004243,2442.679609,-1110.308913,-9729.412825
951.004563,666.185348,592.164754,-9576.193725
951.004883,0.000000,814.226536,-8350.440928
951.005203,222.061783,3330.926739,-9729.412825
951.005523,518.144159,1554.432478,-10112.460574
951.005842,2738.761985,-1406.391290,-8810.098227
951.006162,4145.153275,-222.061783,-9882.631924
951.006482,3552.988522,-1036.288319,-9729.412825
951.006802,296.082377,1628.453072,-9729.412825
951.007122,-1332.370696,1406.391290,-10342.289223
951.007442,1110.308913,2146.597232,-9959.241474
951.007762,2368.659014,1036.288319,-11184.994271
951.008082,1036.288319,1184.329507,-10572.117872
951.008402,-1702.473667,370.102971,-9806.022374
951.008721,-592.164754,1776.494261,-10035.851024
951.009041,3330.926739,1332.370696,-11414.822920
951.009361,7179.997637,740.205942,-11338.213370
951.009681,5995.668130,666.185348,-11414.822920
951.010001,444.123565,1406.391290,-10418.898773
951.010321,-444.123565,3404.947333,-10342.289223
951.010641,1554.432478,3404.947333,-11108.384721
951.010961,1924.535449,4293.194464,-10801.946522
951.011280,814.226536,962.267725,-10112.460574
951.011600,296.082377,-1036.288319,-9806.022374
951.011920,740.205942,-444.123565,-9882.631924
951.012240,-222.061783,-666.185348,-10189.070123
951.012560,-1850.514855,1628.453072,-9806.022374
951.012880,-1924.535449,666.185348,-9729.412825
951.013200,444.123565,-148.041188,-9346.365076
951.013520,1332.370696,0.000000,-10495.508323
951.013839,1406.391290,2220.617826,-9806.022374
951.014159,-148.041188,3627.009116,-9806.022374
951.014479,-2442.679609,3552.988522,-9269.755526
951.014799,-1850.514855,2590.720797,-9652.803275
951.015119,-1184.329507,-1110.308913,-8120.612279
951.015439,-1628.453072,-4737.318029,-10495.508323
951.015759,-2664.741391,-5329.482782,-8886.707777
951.016079,-4663.297435,-1628.453072,-8580.269578
951.016399,-4293.194464,4367.215058,-10112.460574
951.016718,-592.164754,6143.709319,-10035.851024
951.017038,962.267725,4219.173869,-11338.213370
951.017358,2590.720797,222.061783,-10572.117872
951.017678,3701.029710,-2220.617826,-10035.851024
951.017998,2368.659014,-518.144159,-11491.432470
951.018318,2886.803174,1554.432478,-10572.117872
951.018638,1480.411884,1702.473667,-10648.727422
951.018958,-2294.638420,1110.308913,-10265.679673
951.019277,-2960.823768,-1776.494261,-9422.974625
951.019597,-2442.679609,-2960.823768,-10035.851024
951.019917,-592.164754,-1480.411884,-10725.336972
951.020237,518.144159,222.061783,-10112.460574
951.020557,0.000000,2590.720797,-10572.117872
951.020877,962.267725,1406.391290,-10572.117872
951.021197,4071.132681,-666.185348,-9806.022374
951.021517,1850.514855,-2220.617826,-10112.460574
951.021836,740.205942,370.102971,-10342.289223
951.022156,1628.453072,1554.432478,-9959.241474
951.022476,3997.112087,2664.741391,-11184.994271
951.022796,5107.421000,1184.329507,-10112.460574
951.023116,3404.947333,-962.267725,-10265.679673
951.023436,74.020594,-4071.132681,-9269.755526
951.023756,1258.350101,-3478.967927,-9576.193725
951.024076,1554.432478,0.000000,-10418.898773
951.024396,740.205942,518.144159,-10265.679673
951.024715,1924.535449,-1628.453072,-9346.365076
951.025035,4293.194464,-1628.453072,-9729.412825
951.025355,5995.668130,-1776.494261,-9652.803275
951.025675,5255.462188,1258.350101,-10725.336972
951.025995,888.247130,444.123565,-10572.117872
951.026315,-1258.350101,1406.391290,-9882.631924
951.026635,-2072.576638,0.000000,-10648.727422
951.026955,-740.205942,-1406.391290,-9806.022374
951.027274,-148.041188,-2368.659014,-10035.851024
951.027594,-1776.494261,-2590.720797,-9499.584175
951.027914,-1924.535449,0.000000,-9806.022374
951.028234,-814.226536,740.205942,-10801.946522
951.028554,0.000000,-222.061783,-10342.289223
951.028874,592.164754,-370.102971,-9499.584175
951.029194,518.144159,444.123565,-11184.994271
951.029514,-370.102971,2442.679609,-10495.508323
951.029834,0.000000,2516.700203,-10725.336972
951.030153,-222.061783,2072.576638,-10801.946522
951.030473,-1850.514855,74.020594,-10035.851024
951.030793,-2590.720797,-1406.391290,-10265.679673
951.031113,-1406.391290,-2294.638420,-10189.070123
951.031433,1036.288319,-888.247130,-9499.584175
951.031753,-1110.308913,2294.638420,-10572.117872
951.032073,-2220.617826,4071.132681,-10418.898773
951.032393,-2072.576638,2368.659014,-9959.241474
951.032712,-814.226536,148.041188,-9806.022374
951.033032,-518.144159,-1332.370696,-8733.488677
951.033352,-444.123565,-3108.864956,-9806.022374
951.033672,-814.226536,-4367.215058,-9269.755526
951.033992,-592.164754,-740.205942,-8963.317327
951.034312,-1036.288319,1332.370696,-9499.584175
951.034632,-444.123565,3923.091493,-9499.584175
951.034952,1036.288319,2072.576638,-10265.679673
951.035271,2072.576638,1628.453072,-9959.241474
951.035591,4071.132681,1702.473667,-10342.289223
951.035911,2886.803174,2442.679609,-10265.679673
951.036231,1110.308913,1406.391290,-10035.851024
951.036551,1628.453072,-148.041188,-9806.022374
951.036871,1480.411884,-444.123565,-9346.365076
951.037191,296.082377,-1332.370696,-9806.022374
951.037511,444.123565,148.041188,-9959.241474
951.037831,222.061783,1554.432478,-10801.946522
951.038150,0.000000,2072.576638,-10112.460574
951.038470,1406.391290,2442.679609,-10189.070123
951.038790,3256.906145,1702.473667,-10878.556072
951.039110,4367.215058,1258.350101,-11568.042020
951.039430,2516.700203,1480.411884,-10648.727422
951.039750,2368.659014,2516.700203,-10801.946522
951.040070,3627.009116,1406.391290,-10725.336972
951.040390,4737.318029,1184.329507,-10878.556072
951.040709,1332.370696,148.041188,-10955.165621
951.041029,-2368.659014,0.000000,-9806.022374
951.041349,148.041188,1036.288319,-9882.631924
951.041669,1258.350101,1628.453072,-10418.898773
951.041989,2072.576638,1258.350101,-9346.365076
951.042309,74.020594,-1110.308913,-9882.631924
951.042629,-1480.411884,-3849.070898,-9269.755526
951.042949,-222.061783,-2886.803174,-9499.584175
951.043268,-222.061783,296.082377,-9652.803275
951.043588,222.061783,2072.576638,-9959.241474
951.043908,0.000000,2960.823768,-9959.241474
951.044228,296.082377,2590.720797,-9806.022374
951.044548,1184.329507,1628.453072,-9882.631924
951.044868,-592.164754,740.205942,-9806.022374
951.045188,-1628.453072,-888.247130,-9806.022374
951.045508,-2072.576638,-1628.453072,-9193.145976
951.045828,-3182.885551,-2220.617826,-8886.707777
951.046147,-2294.638420,-1702.473667,-9499.584175
951.046467,-1628.453072,-1776.494261,-10189.070123
951.046787,0.000000,-370.102971,-9729.412825
951.047107,1850.514855,2516.700203,-10495.508323
951.047427,2368.659014,4959.379811,-10648.727422
951.047747,888.247130,5551.544565,-10801.946522
951.048067,-444.123565,2072.576638,-11261.603821
951.048387,1110.308913,-1628.453072,-10112.460574
951.048706,2812.782580,-2812.782580,-10265.679673
951.049026,592.164754,-2072.576638,-11184.994271
951.049346,-1702.473667,518.144159,-10112.460574
951.049666,-296.082377,3404.947333,-10801.946522
951.049986,3034.844362,5329.482782,-11491.432470
951.050306,3627.009116,4145.153275,-11031.775171
951.050626,2072.576638,1258.350101,-10955.165621
951.050946,2738.761985,-740.205942,-9806.022374
951.051266,5403.503377,0.000000,-10035.851024
951.051585,5107.421000,74.020594,-10648.727422
951.051905,2590.720797,666.185348,-9806.022374
951.052225,2590.720797,0.000000,-9422.974625
951.052545,1184.329507,2146.597232,-9806.022374
951.052865,370.102971,2590.720797,-9729.412825
951.053185,296.082377,2516.700203,-9039.926876
951.053505,2146.597232,1776.494261,-9499.584175
951.053825,3849.070898,296.082377,-10112.460574
951.054144,4071.132681,0.000000,-9193.145976
951.054464,2442.679609,666.185348,-10035.851024
951.054784,1258.350101,2590.720797,-9269.755526
951.055104,2812.782580,3701.029710,-9652.803275
951.055424,3923.091493,3849.070898,-10725.336972
951.055744,2368.659014,2886.803174,-9269.755526
951.056064,0.000000,1850.514855,-9882.631924
951.056384,0.000000,1406.391290,-9806.022374
951.056703,2886.803174,740.205942,-10189.070123
951.057023,3627.009116,1110.308913,-10418.898773
951.057343,1184.329507,148.041188,-9422.974625
951.057663,-518.144159,1258.350101,-9422.974625
951.057983,1036.288319,2590.720797,-10495.508323
951.058303,4071.132681,4145.153275,-10648.727422
951.058623,3330.926739,4663.297435,-11184.994271
951.058943,370.102971,2886.803174,-10342.289223
951.059263,-444.123565,518.144159,-9806.022374
951.059582,1184.329507,0.000000,-10418.898773
951.059902,2812.782580,740.205942,-10495.508323
951.060222,814.226536,1850.514855,-10342.289223
951.060542,-1332.370696,1628.453072,-10648.727422
951.060862,-888.247130,2738.761985,-10189.070123
951.061182,888.247130,3923.091493,-9959.241474
951.061502,1110.308913,3627.009116,-10955.165621
951.061822,1110.308913,740.205942,-9806.022374
951.062141,740.205942,-296.082377,-9882.631924
951.062461,3182.885551,-148.041188,-9806.022374
951.062781,4589.276840,1332.370696,-9346.365076
951.063101,3775.050304,1628.453072,-9959.241474
951.063421,4219.173869,2590.720797,-9576.193725
951.063741,3108.864956,3034.844362,-9882.631924
951.064061,2072.576638,3108.864956,-10265.679673
951.064381,2368.659014,2738.761985,-9116.536426
951.064700,3108.864956,1998.556043,-10189.070123
951.065020,4219.173869,592.164754,-10035.851024
951.065340,3108.864956,-370.102971,-9346.365076
951.065660,1184.329507,740.205942,-10035.851024
951.065980,1628.453072,2072.576638,-8427.050478
951.066300,2960.823768,3404.947333,-9882.631924
951.066620,4145.153275,4811.338623,-11338.213370
951.066940,4145.153275,3034.844362,-10035.851024
951.067260,5551.544565,4293.194464,-10725.336972
951.067579,5995.668130,3552.988522,-10572.117872
951.067899,5847.626942,4071.132681,-10265.679673
951.068219,3108.864956,4515.256246,-10725.336972
951.068539,1998.556043,4737.318029,-10955.165621
951.068859,2442.679609,3034.844362,-10418.898773
951.069179,2294.638420,1850.514855,-10648.727422
951.069499,1554.432478,1406.391290,-10418.898773
951.069819,888.247130,1850.514855,-9422.974625
951.070138,1998.556043,3478.967927,-10801.946522
951.070458,4811.338623,5107.421000,-11184.994271
951.070778,6365.771101,4441.235652,-10418.898773
951.071098,5477.523971,3997.112087,-11108.384721
951.071418,2664.741391,2664.741391,-9806.022374
951.071738,1184.329507,1998.556043,-9806.022374
951.072058,-518.144159,2886.803174,-9652.803275
951.072378,-148.041188,3404.947333,-9652.803275
951.072698,592.164754,2368.659014,-9729.412825
951.073017,2220.617826,1258.350101,-9269.755526
951.073337,2590.720797,888.247130,-9499.584175
951.073657,2960.823768,888.247130,-9652.803275
951.073977,296.082377,2960.823768,-9346.365076
951.074297,-962.267725,3997.112087,-9422.974625
951.074617,-148.041188,3627.009116,-9346.365076
951.074937,1702.473667,2294.638420,-9346.365076
951.075257,2368.659014,740.205942,-9193.145976
951.075576,4515.256246,1776.494261,-9882.631924
951.075896,3849.070898,3923.091493,-10495.508323
951.076216,1110.308913,5625.565159,-10418.898773
951.076536,74.020594,4737.318029,-9729.412825
951.076856,592.164754,2812.782580,-10265.679673
951.077176,-740.205942,222.061783,-9806.022374
951.077496,0.000000,-888.247130,-9806.022374
951.077816,740.205942,518.144159,-10189.070123
951.078135,2368.659014,2516.700203,-10418.898773
951.078455,3182.885551,4737.318029,-10725.336972
951.078775,2516.700203,5847.626942,-10265.679673
951.079095,2664.741391,6217.729913,-11644.651570
951.079415,3997.112087,4737.318029,-11031.775171
951.079735,3108.864956,3775.050304,-11108.384721
951.080055,1480.411884,2294.638420,-10725.336972
951.080375,1702.473667,1332.370696,-10265.679673
951.080695,3034.844362,444.123565,-10342.289223
951.081015,1850.514855,1776.494261,-10265.679673
951.081335,-296.082377,2812.782580,-9959.241474
951.081655,74.020594,3701.029710,-9652.803275
951.081974,3182.885551,3034.844362,-10342.289223
951.082294,4589.276840,2664.741391,-10112.460574
951.082614,4663.297435,1998.556043,-10112.460574
951.082934,3849.070898,2146.597232,-9729.412825
951.083254,4367.215058,2664.741391,-9729.412825
951.083574,4145.153275,3997.112087,-10189.070123
951.083894,2368.659014,3775.050304,-9806.022374
951.084214,1628.453072,2664.741391,-9193.145976
951.084534,3849.070898,1184.329507,-9882.631924
951.084854,5403.503377,518.144159,-9806.022374
951.085174,3923.091493,740.205942,-9422.974625
951.085494,2220.617826,1480.411884,-9499.584175
951.085814,2886.803174,2738.761985,-9576.193725
951.086133,4441.235652,3404.947333,-10648.727422
951.086453,4367.215058,4219.173869,-10342.289223
951.086773,2516.700203,4219.173869,-10342.289223
951.087093,1850.514855,4071.132681,-10112.460574
951.087413,2812.782580,3627.009116,-10189.070123
951.087733,3849.070898,1998.556043,-10418.898773
951.088053,2516.700203,1036.288319,-10035.851024
951.088373,-74.020594,1184.329507,-10189.070123
951.088693,-888.247130,1628.453072,-10725.336972
951.089013,740.205942,2738.761985,-9806.022374
951.089333,3108.864956,3256.906145,-10801.946522
951.089653,4737.318029,2886.803174,-11108.384721
951.089973,3627.009116,2442.679609,-10572.117872
951.090293,1776.494261,2294.638420,-11951.089769
951.090612,1036.288319,2220.617826,-9729.412825
951.090932,2072.576638,2516.700203,-10495.508323
951.091252,2442.679609,2146.597232,-10878.556072
951.091572,1628.453072,1332.370696,-9806.022374
951.091892,-740.205942,814.226536,-10112.460574
951.092212,-1554.432478,370.102971,-9346.365076
951.092532,-1036.288319,1258.350101,-9269.755526
951.092852,1406.391290,1998.556043,-10418.898773
951.093172,3108.864956,1924.535449,-9346.365076
951.093492,2812.782580,1924.535449,-9882.631924
951.093812,1628.453072,2516.700203,-9959.241474
951.094132,74.020594,2960.823768,-9576.193725
951.094452,1258.350101,3701.029710,-9269.755526
951.094772,3256.906145,2368.659014,-10112.460574
951.095091,4219.173869,1184.329507,-9806.022374
951.095411,2960.823768,592.164754,-10035.851024
951.095731,1998.556043,1554.432478,-9959.241474
951.096051,1776.494261,3478.967927,-9116.536426
951.096371,666.185348,4885.359217,-10189.070123
951.096691,592.164754,3849.070898,-9882.631924
951.097011,2590.720797,1480.411884,-9959.241474
951.097331,3256.906145,370.102971,-10418.898773
951.097651,3034.844362,148.041188,-9806.022374
951.097971,2368.659014,1554.432478,-10265.679673
951.098291,2516.700203,3552.988522,-10495.508323
951.098611,2960.823768,4737.318029,-10572.117872
951.098931,2368.659014,4367.215058,-10418.898773
951.099250,2812.782580,2294.638420,-10342.289223
951.099570,4293.194464,296.082377,-10572.117872
951.099890,4515.256246,814.226536,-10495.508323
951.100210,3701.029710,2516.700203,-10189.070123
951.100530,3627.009116,4219.173869,-10112.460574
951.100850,3997.112087,5181.441594,-10342.289223
951.101170,3034.844362,4885.359217,-10342.289223
951.101490,1702.473667,3849.070898,-10265.679673
951.101810,592.164754,2442.679609,-9959.241474
951.102130,1554.432478,962.267725,-9806.022374
951.102450,3108.864956,0.000000,-9652.803275
951.102770,3330.926739,518.144159,-9652.803275
951.103090,2442.679609,2442.679609,-10725.336972
951.103410,2812.782580,4811.338623,-9729.412825
951.103729,4515.256246,6735.874072,-10112.460574
951.104049,5921.647536,7179.997637,-10572.117872
951.104369,5329.482782,5625.565159,-10495.508323
951.104689,3330.926739,2886.803174,-10112.460574
951.105009,444.123565,814.226536,-9576.193725
951.105329,-1036.288319,370.102971,-9576.193725
951.105649,-962.267725,814.226536,-9269.755526
951.105969,222.061783,1110.308913,-9346.365076
951.106289,1332.370696,1628.453072,-9652.803275
951.106609,2368.659014,1998.556043,-9806.022374
951.106929,2442.679609,3330.926739,-9882.631924
951.107249,3997.112087,4737.318029,-10265.679673
951.107569,6143.709319,5847.626942,-10418.898773
951.107889,5995.668130,5773.606348,-10495.508323
951.108208,4441.235652,4293.194464,-10495.508323
951.108528,2294.638420,2590.720797,-10495.508323
951.108848,1554.432478,1480.411884,-10342.289223
951.109168,370.102971,2368.659014,-10112.460574
951.109488,-666.185348,3034.844362,-10265.679673
951.109808,-1332.370696,2220.617826,-10035.851024
951.110128,-1998.556043,1406.391290,-9806.022374
951.110448,-1184.329507,814.226536,-9652.803275
951.110768,518.144159,1258.350101,-9806.022374
951.111088,3330.926739,2516.700203,-9959.241474
951.111408,5625.565159,3849.070898,-10112.460574
951.111728,6217.729913,4959.379811,-10495.508323
951.112048,5773.606348,5551.544565,-10648.727422
951.112367,4145.153275,5625.565159,-10725.336972
951.112687,2220.617826,4737.318029,-10189.070123
951.113007,1184.329507,3330.926739,-10189.070123
951.113327,518.144159,1554.432478,-9959.241474
951.113647,296.082377,0.000000,-9806.022374
951.113967,-370.102971,-1036.288319,-9499.584175
951.114287,-1036.288319,-222.061783,-9346.365076
951.114607,148.041188,1036.288319,-9269.755526
951.114927,1998.556043,2738.761985,-9652.803275
951.115247,4441.235652,3775.050304,-9882.631924
951.115567,5551.544565,3701.029710,-10112.460574
951.115887,6217.729913,2590.720797,-10035.851024
951.116207,5699.585753,1554.432478,-10035.851024
951.116527,2590.720797,1184.329507,-10035.851024
951.116846,-148.041188,888.247130,-9959.241474
951.117166,-1258.350101,888.247130,-9806.022374
951.117486,-296.082377,74.020594,-10035.851024
951.117806,-814.226536,-222.061783,-9806.022374
951.118126,-296.082377,-444.123565,-10112.460574
951.118446,666.185348,-370.102971,-9806.022374
951.118766,1628.453072,1628.453072,-9806.022374
951.119086,2516.700203,2886.803174,-10112.460574
951.119406,3775.050304,3997.112087,-10572.117872
951.119726,3849.070898,4293.194464,-11108.384721
951.120046,3552.988522,3627.009116,-10801.946522
951.120366,3108.864956,2886.803174,-10112.460574
951.120686,1850.514855,2220.617826,-10648.727422
951.121005,814.226536,1554.432478,-10801.946522
951.121325,296.082377,1110.308913,-10112.460574
951.121645,444.123565,962.267725,-10035.851024
951.121965,1184.329507,1110.308913,-10265.679673
951.122285,2368.659014,1332.370696,-9959.241474
951.122605,3923.091493,2516.700203,-10265.679673
951.122925,4663.297435,3478.967927,-10112.460574
951.123245,5773.606348,4589.276840,-11261.603821
951.123565,6809.894666,4663.297435,-10265.679673
951.123885,7254.018232,4737.318029,-10265.679673
951.124205,6513.812290,4885.359217,-10572.117872
951.124525,4515.256246,5181.441594,-10495.508323
951.124845,2220.617826,4293.194464,-10725.336972
951.125165,74.020594,3256.906145,-10265.679673
951.125484,-296.082377,1406.391290,-9576.193725
951.125804,-222.061783,0.000000,-9269.755526
951.126124,1850.514855,-1332.370696,-9039.926876
951.126444,2738.761985,888.247130,-9269.755526
951.126764,4367.215058,3182.885551,-9882.631924
951.127084,5847.626942,5699.585753,-9959.241474
951.127404,6513.812290,7328.038826,-9806.022374
951.127724,6291.750507,7550.100608,-10495.508323
951.128044,5403.503377,6587.832884,-10342.289223
951.128364,4071.132681,4737.318029,-10265.679673
951.128684,3182.885551,3330.926739,-10112.460574
951.129004,1554.432478,2368.659014,-10035.851024
951.129324,-148.041188,2368.659014,-9806.022374
951.129644,-2516.700203,2886.803174,-9729.412825
951.129963,-2960.823768,3256.906145,-9729.412825
951.130283,-1258.350101,2738.761985,-9806.022374
951.130603,1036.288319,2664.741391,-9882.631924
951.130923,2590.720797,2294.638420,-10035.851024
951.131243,3034.844362,2886.803174,-10035.851024
951.131563,3701.029710,3552.988522,-9806.022374
951.131883,4367.215058,4959.379811,-10112.460574
951.132203,5107.421000,6217.729913,-10495.508323
951.132523,4811.338623,5921.647536,-10878.556072
951.132843,2146.597232,4515.256246,-10648.727422
951.133163,-1184.329507,2960.823768,-9882.631924
951.133483,-3182.885551,1628.453072,-9806.022374
951.133803,-2220.617826,222.061783,-10035.851024
951.134122,-1110.308913,-296.082377,-9729.412825
951.134442,-592.164754,-370.102971,-9652.803275
951.134762,1036.288319,222.061783,-9346.365076
951.135082,3627.009116,2590.720797,-9882.631924
951.135402,5847.626942,4885.359217,-10801.946522
951.135722,6291.750507,6809.894666,-10725.336972
951.136042,5551.544565,7105.977043,-9959.241474
951.136362,4737.318029,5181.441594,-10418.898773
951.136682,3256.906145,2664.741391,-10265.679673
951.137002,1776.494261,296.082377,-9806.022374
951.137322,740.205942,-888.247130,-9576.193725
951.137642,740.205942,-1406.391290,-9652.803275
951.137962,444.123565,-148.041188,-9806.022374
951.138282,0.000000,1406.391290,-9652.803275
951.138601,1036.288319,2590.720797,-9882.631924
951.138921,3552.988522,3775.050304,-11261.603821
951.139241,5847.626942,2442.679609,-10189.070123
951.139561,7105.977043,2146.597232,-10035.851024
951.139881,7402.059420,2516.700203,-10495.508323
951.140201,6439.791695,3478.967927,-11721.261119
951.140521,3849.070898,4145.153275,-10418.898773
951.140841,1628.453072,3627.009116,-10495.508323
951.141161,222.061783,1702.473667,-10265.679673
951.141481,740.205942,-740.205942,-10342.289223
951.141801,592.164754,-1332.370696,-10725.336972
951.142121,148.041188,-1110.308913,-10112.460574
951.142441,-296.082377,444.123565,-9806.022374
951.142761,1036.288319,1628.453072,-10418.898773
951.143080,4071.132681,3330.926739,-10035.851024
951.143400,5995.668130,3182.885551,-10265.679673
951.143720,6439.791695,3552.988522,-10955.165621
951.144040,5625.565159,3256.906145,-10801.946522
951.144360,3701.029710,3775.050304,-11261.603821
951.144680,2368.659014,3034.844362,-10878.556072
951.145000,1332.370696,1628.453072,-9729.412825
951.145320,-592.164754,-444.123565,-10035.851024
951.145640,-3256.906145,-1480.411884,-9499.584175
951.145960,-4959.379811,-1850.514855,-9039.926876
951.146280,-4145.153275,-1332.370696,-9346.365076
951.146600,444.123565,-370.102971,-9499.584175
951.146920,3997.112087,1480.411884,-9422.974625
951.147239,4737.318029,3182.885551,-10189.070123
951.147559,4293.194464,4737.318029,-9806.022374
951.147879,3923.091493,6365.771101,-10265.679673
951.148199,5551.544565,6291.750507,-10572.117872
951.148519,5625.565159,5255.462188,-10265.679673
951.148839,2664.741391,3478.967927,-10342.289223
951.149159,-1036.288319,1036.288319,-9499.584175
951.149479,-2220.617826,-740.205942,-9422.974625
951.149799,-1776.494261,0.000000,-9806.022374
951.150119,-1332.370696,740.205942,-8810.098227
951.150439,-1480.411884,2146.597232,-9652.803275
951.150759,0.000000,2442.679609,-9806.022374
951.151079,3034.844362,3627.009116,-9729.412825
951.151399,5995.668130,4515.256246,-11338.213370
951.151718,6809.894666,6069.688724,-10112.460574
951.152038,5847.626942,6217.729913,-10418.898773
951.152358,5995.668130,5773.606348,-10725.336972
951.152678,6735.874072,4737.318029,-10955.165621
951.152998,4811.338623,3330.926739,-11184.994271
951.153318,1332.370696,3108.864956,-10418.898773
951.153638,0.000000,2590.720797,-10418.898773
951.153958,222.061783,2146.597232,-10035.851024
951.154278,0.000000,1406.391290,-10112.460574
951.154598,444.123565,1110.308913,-9193.145976
951.154918,2294.638420,2220.617826,-9959.241474
951.155238,5255.462188,2812.782580,-9882.631924
951.155558,6217.729913,4737.318029,-10189.070123
951.155877,5699.585753,6069.688724,-9882.631924
951.156197,6143.709319,6291.750507,-9882.631924
951.156517,6883.915261,5995.668130,-10418.898773
951.156837,5329.482782,4737.318029,-10265.679673
951.157157,1924.535449,4071.132681,-9576.193725
951.157477,148.041188,2146.597232,-9806.022374
951.157797,296.082377,666.185348,-9729.412825
951.158117,-1480.411884,740.205942,-9346.365076
951.158437,-2812.782580,814.226536,-9193.145976
951.158757,-1554.432478,1998.556043,-8733.488677
951.159077,1480.411884,3182.885551,-10189.070123
951.159397,4367.215058,4219.173869,-10265.679673
951.159717,4071.132681,4441.235652,-10265.679673
951.160037,4663.297435,4515.256246,-9959.241474
951.160356,4663.297435,3849.070898,-9959.241474
951.160676,3701.029710,4145.153275,-9882.631924
951.160996,2146.597232,3849.070898,-10878.556072
951.161316,666.185348,3108.864956,-10112.460574
951.161636,-2368.659014,1258.350101,-10495.508323
951.161956,-148.041188,740.205942,-10035.851024
951.162276,-444.123565,592.164754,-9806.022374
951.162596,-1110.308913,666.185348,-9346.365076
951.162916,-1554.432478,740.205942,-9959.241474
951.163236,2368.659014,1702.473667,-10495.508323
951.163556,4441.235652,3552.988522,-10112.460574
951.163876,4885.359217,5699.585753,-10495.508323
951.164196,6143.709319,6217.729913,-10725.336972
951.164516,7476.080014,5255.462188,-10112.460574
951.164835,6513.812290,4885.359217,-10801.946522
951.165155,3552.988522,3256.906145,-11184.994271
951.165475,444.123565,0.000000,-9652.803275
951.165795,-1554.432478,-888.247130,-9193.145976
951.166115,-888.247130,-814.226536,-9422.974625
951.166435,-962.267725,444.123565,-9499.584175
951.166755,74.020594,2220.617826,-10265.679673
951.167075,2590.720797,2368.659014,-10955.165621
951.167395,4219.173869,3182.885551,-9422.974625
951.167715,5921.647536,4071.132681,-10572.117872
951.168035,6439.791695,4145.153275,-10801.946522
951.168355,5921.647536,3552.988522,-9806.022374
951.168675,4737.318029,4145.153275,-10725.336972
951.168994,3034.844362,2516.700203,-10801.946522
951.169314,2368.659014,296.082377,-9729.412825
951.169634,740.205942,-740.205942,-10878.556072
951.169954,1258.350101,-1406.391290,-9652.803275
951.170274,1332.370696,-148.041188,-10495.508323
951.170594,444.123565,1258.350101,-10955.165621
951.170914,0.000000,1184.329507,-9806.022374
951.171234,-1110.308913,1406.391290,-9729.412825
951.171554,1036.288319,1406.391290,-10648.727422
951.171874,5403.503377,740.205942,-9806.022374
951.172194,7920.203579,888.247130,-10112.460574
951.172514,7031.956449,2664.741391,-11108.384721
951.172834,5699.585753,3256.906145,-9959.241474
951.173154,4441.235652,4071.132681,-10418.898773
951.173473,3108.864956,3849.070898,-10878.556072
951.173793,370.102971,2886.803174,-9652.803275
951.174113,-3256.906145,1554.432478,-10189.070123
951.174433,-1628.453072,-296.082377,-9116.536426
951.174753,-814.226536,-1554.432478,-9116.536426
951.175073,740.205942,-444.123565,-10265.679673
951.175393,2590.720797,592.164754,-9346.365076
951.175713,2812.782580,1924.535449,-9729.412825
951.176033,5255.462188,4219.173869,-10112.460574
951.176353,4959.379811,4885.359217,-10035.851024
951.176673,3256.906145,4737.318029,-10648.727422
951.176993,518.144159,2368.659014,-10189.070123
951.177313,-1258.350101,814.226536,-9422.974625
951.177633,-740.205942,-592.164754,-10035.851024
951.177952,-148.041188,-296.082377,-9499.584175
951.178272,-1332.370696,1406.391290,-9882.631924
951.178592,-2738.761985,2294.638420,-9806.022374
951.178912,-2516.700203,1554.432478,-9729.412825
951.179232,0.000000,444.123565,-10189.070123
951.179552,1480.411884,-518.144159,-9499.584175
951.179872,2664.741391,0.000000,-9806.022374
951.180192,4441.235652,2516.700203,-10801.946522
951.180512,4219.173869,4293.194464,-10112.460574
951.180832,3552.988522,5551.544565,-10342.289223
951.181152,3478.967927,5477.523971,-10955.165621
951.181472,4219.173869,3701.029710,-10955.165621
951.181792,2886.803174,1628.453072,-10801.946522
951.182111,-2886.803174,222.061783,-9576.193725
951.182431,-3997.112087,592.164754,-9652.803275
951.182751,-1480.411884,0.000000,-9959.241474
951.183071,148.041188,-370.102971,-9193.145976
951.183391,-1480.411884,-1628.453072,-9269.755526
951.183711,-3034.844362,-1110.308913,-9576.193725
951.184031,1110.308913,370.102971,-9806.022374
951.184351,5625.565159,2220.617826,-10418.898773
951.184671,5551.544565,3478.967927,-10418.898773
951.184990,2812.782580,3404.947333,-10189.070123
951.185310,1332.370696,3034.844362,-10342.289223
951.185630,1258.350101,1702.473667,-9806.022374
951.185950,1702.473667,1702.473667,-9193.145976
951.186270,592.164754,518.144159,-10418.898773
951.186590,-740.205942,-2516.700203,-10189.070123
951.186910,-1628.453072,-3627.009116,-9193.145976
951.187230,-666.185348,-3775.050304,-9422.974625
951.187550,1850.514855,-1332.370696,-9269.755526
951.187869,3182.885551,2368.659014,-11338.213370
951.188189,3627.009116,4293.194464,-10342.289223
951.188509,2590.720797,4811.338623,-11338.213370
951.188829,3256.906145,4737.318029,-11261.603821
951.189149,4737.318029,3330.926739,-10955.165621
951.189469,4737.318029,740.205942,-11414.822920
951.189789,3034.844362,-1110.308913,-10725.336972
951.190109,-1628.453072,-1406.391290,-10801.946522
951.190429,-4737.318029,-1554.432478,-10112.460574
951.190748,-4293.194464,-814.226536,-9652.803275
951.191068,-2146.597232,296.082377,-10418.898773
951.191388,-518.144159,222.061783,-10648.727422
951.191708,962.267725,518.144159,-9959.241474
951.192028,1406.391290,-222.061783,-10035.851024
951.192348,2516.700203,-814.226536,-9652.803275
951.192668,3923.091493,-592.164754,-9806.022374
951.192988,3923.091493,1184.329507,-10112.460574
951.193308,2812.782580,1924.535449,-9806.022374
951.193627,444.123565,2294.638420,-9652.803275
951.193947,-4071.132681,0.000000,-9959.241474
951.194267,-4811.338623,-1702.473667,-9116.536426
951.194587,-4737.318029,-2442.679609,-8580.269578
951.194907,-3404.947333,-2442.679609,-9576.193725
951.195227,-2442.679609,-1258.350101,-8656.879127
951.195547,-1406.391290,-222.061783,-9806.022374
951.195867,2664.741391,1258.350101,-9729.412825
951.196187,5995.668130,1406.391290,-10572.117872
951.196506,4885.359217,2368.659014,-10955.165621
951.196826,0.000000,2738.761985,-9882.631924
951.197146,-1480.411884,2960.823768,-10572.117872
951.197466,74.020594,2368.659014,-10265.679673
951.197786,2220.617826,-1776.494261,-10189.070123
951.198106,814.226536,-2664.741391,-10572.117872
951.198426,-2220.617826,-1850.514855,-10035.851024
951.198746,-3330.926739,-444.123565,-10189.070123
951.199066,-4071.132681,2368.659014,-10801.946522
951.199386,-2442.679609,740.205942,-10342.289223
951.199705,-2886.803174,148.041188,-10189.070123
951.200025,-740.205942,-814.226536,-9729.412825
951.200345,666.185348,-740.205942,-10342.289223
951.200665,3478.967927,-518.144159,-10878.556072
951.200985,5477.523971,814.226536,-10189.070123
951.201305,4811.338623,1258.350101,-10572.117872
951.201625,2960.823768,518.144159,-10495.508323
951.201945,814.226536,148.041188,-9806.022374
951.202265,74.020594,888.247130,-10955.165621
951.202584,814.226536,1332.370696,-10418.898773
951.202904,222.061783,518.144159,-10418.898773
951.203224,-518.144159,-1776.494261,-9346.365076
951.203544,-740.205942,-3775.050304,-8886.707777
951.203864,370.102971,-3330.926739,-9422.974625
951.204184,1406.391290,-888.247130,-9806.022374
951.204504,3182.885551,1406.391290,-8733.488677
951.204824,2664.741391,2072.576638,-9959.241474
951.205144,1924.535449,2368.659014,-9959.241474
951.205463,2590.720797,1702.473667,-9806.022374
951.205783,3627.009116,1184.329507,-9499.584175
951.206103,2146.597232,740.205942,-10265.679673
951.206423,-1110.308913,-666.185348,-10035.851024
951.206743,-2220.617826,-1184.329507,-9806.022374
951.207063,-444.123565,-2072.576638,-10189.070123
951.207383,2590.720797,-2146.597232,-9499.584175
951.207703,4071.132681,740.205942,-10725.336972
951.208023,2368.659014,1406.391290,-10648.727422
951.208342,-592.164754,3775.050304,-10418.898773
951.208662,-2368.659014,3330.926739,-10418.898773
951.208982,-2294.638420,1998.556043,-9882.631924
951.209302,-962.267725,-888.247130,-10035.851024
951.209622,962.267725,-2294.638420,-10418.898773
951.209942,2368.659014,-1184.329507,-10495.508323
951.210262,1036.288319,1184.329507,-10572.117872
951.210582,-296.082377,2664.741391,-10572.117872
951.210902,-4515.256246,2516.700203,-9652.803275
951.211221,-4811.338623,2294.638420,-9806.022374
951.211541,-2664.741391,0.000000,-9959.241474
951.211861,740.205942,-1406.391290,-9576.193725
951.212181,2886.803174,-370.102971,-10265.679673
951.212501,2738.761985,1184.329507,-10189.070123
951.212821,1998.556043,2812.782580,-10342.289223
951.213141,148.041188,2812.782580,-10112.460574
951.213461,-1628.453072,1258.350101,-9116.536426
951.213781,-2738.761985,592.164754,-9729.412825
951.214100,-2072.576638,296.082377,-9806.022374
951.214420,-962.267725,-518.144159,-9882.631924
951.214740,888.247130,-2294.638420,-9346.365076
951.215060,3923.091493,-2072.576638,-9652.803275
951.215380,4367.215058,-1184.329507,-9806.022374
951.215700,2220.617826,2072.576638,-10189.070123
951.216020,148.041188,4885.359217,-10495.508323
951.216340,74.020594,6365.771101,-9806.022374
951.216660,-1184.329507,5329.482782,-10955.165621
951.216980,0.000000,296.082377,-9652.803275
951.217299,1258.350101,-5181.441594,-9959.241474
951.217619,74.020594,-6661.853478,-9882.631924
951.217939,1110.308913,-4737.318029,-9269.755526
951.218259,3552.988522,222.061783,-9882.631924
951.218579,4737.318029,3849.070898,-11644.651570
951.218899,3330.926739,3552.988522,-10878.556072
951.219219,1406.391290,1998.556043,-10648.727422
951.219539,1480.411884,222.061783,-10572.117872
951.219859,1628.453072,-370.102971,-10418.898773
951.220178,2590.720797,1924.535449,-11031.775171
951.220498,3775.050304,1332.370696,-11644.651570
951.220818,4515.256246,1406.391290,-10035.851024
951.221138,3256.906145,-444.123565,-11184.994271
951.221458,148.041188,-1406.391290,-9729.412825
951.221778,-2220.617826,-666.185348,-10189.070123
951.222098,-2590.720797,74.020594,-9729.412825
951.222418,-1184.329507,592.164754,-10035.851024
951.222738,-1776.494261,0.000000,-9576.193725
951.223057,-2220.617826,-814.226536,-9882.631924
951.223377,-2590.720797,-1776.494261,-9806.022374
951.223697,-814.226536,-1332.370696,-9652.803275
951.224017,1998.556043,-296.082377,-10112.460574
951.224337,2664.741391,740.205942,-10035.851024
951.224657,444.123565,740.205942,-9346.365076
951.224977,0.000000,-148.041188,-9959.241474
951.225297,518.144159,-1036.288319,-9499.584175
951.225617,-1332.370696,-1480.411884,-9729.412825
951.225936,-2146.597232,-1332.370696,-9499.584175
951.226256,-1702.473667,-518.144159,-9882.631924
951.226576,-888.247130,666.185348,-9882.631924
951.226896,-222.061783,1258.350101,-10648.727422
951.227216,-1554.432478,-444.123565,-9269.755526
951.227536,-4515.256246,-740.205942,-9806.022374
951.227856,-4441.235652,-666.185348,-9269.755526
951.228176,-1998.556043,-962.267725,-9806.022374
951.228496,962.267725,-962.267725,-10265.679673
951.228815,3256.906145,-1702.473667,-10112.460574
951.229135,2664.741391,-740.205942,-10342.289223
951.229455,1480.411884,370.102971,-11184.994271
951.229775,518.144159,3330.926739,-10955.165621
951.230095,-1258.350101,4441.235652,-11184.994271
951.230415,-1184.329507,2516.700203,-11031.775171
951.230735,-444.123565,-1480.411884,-9806.022374
951.231055,-148.041188,-4367.215058,-9806.022374
951.231375,666.185348,-4737.318029,-9806.022374
951.231694,74.020594,-2368.659014,-9959.241474
951.232014,1554.432478,1036.288319,-10265.679673
951.232334,1702.473667,888.247130,-10035.851024
951.232654,3404.947333,1850.514855,-8963.317327
951.232974,3330.926739,-444.123565,-11184.994271
951.233294,3849.070898,0.000000,-9652.803275
951.233614,3256.906145,814.226536,-10572.117872
951.233934,4441.235652,2812.782580,-10112.460574
951.234254,3404.947333,2442.679609,-10418.898773
951.234574,1776.494261,-222.061783,-9959.241474
951.234893,-518.144159,-1036.288319,-10112.460574
951.235213,-1998.556043,-1702.473667,-8810.098227
951.235533,-222.061783,0.000000,-10112.460574
951.235853,222.061783,1850.514855,-10189.070123
951.236173,2738.761985,2516.700203,-10572.117872
951.236493,0.000000,1258.350101,-9729.412825
951.236813,-666.185348,296.082377,-9806.022374
951.237133,962.267725,0.000000,-9959.241474
951.237453,2146.597232,1554.432478,-10189.070123
951.237772,2664.741391,3108.864956,-10648.727422
951.238092,1702.473667,3849.070898,-10265.679673
951.238412,-148.041188,3478.967927,-10648.727422
951.238732,-1406.391290,1628.453072,-10265.679673
951.239052,-1850.514855,-962.267725,-9193.145976
951.239372,-740.205942,-1776.494261,-9729.412825
951.239692,888.247130,-1110.308913,-9729.412825
951.240012,1480.411884,1110.308913,-10035.851024
951.240332,148.041188,2294.638420,-10265.679673
951.240651,-888.247130,1924.535449,-9959.241474
951.240971,-222.061783,2220.617826,-9882.631924
951.241291,296.082377,1554.432478,-10265.679673
951.241611,0.000000,888.247130,-9576.193725
951.241931,740.205942,1258.350101,-10112.460574
951.242251,-1998.556043,-222.061783,-9806.022374
951.242571,-962.267725,740.205942,-10495.508323
951.242891,-1110.308913,1258.350101,-8273.831378
951.243211,-666.185348,1036.288319,-9959.241474
951.243530,-1776.494261,-962.267725,-8963.317327
951.243850,-2738.761985,0.000000,-10342.289223
951.244170,-4441.235652,148.041188,-9499.584175
951.244490,-2812.782580,-148.041188,-9269.755526
951.244810,0.000000,-666.185348,-9576.193725
951.245130,3108.864956,-222.061783,-10265.679673
951.245450,4441.235652,-1110.308913,-9806.022374
951.245770,4145.153275,-1110.308913,-10418.898773
951.246090,1480.411884,74.020594,-9729.412825
951.246409,148.041188,2072.576638,-10112.460574
951.246729,444.123565,2516.700203,-11031.775171
951.247049,814.226536,1924.535449,-10955.165621
951.247369,962.267725,-1554.432478,-9422.974625
951.247689,444.123565,-3182.885551,-10572.117872
951.248009,1924.535449,-3923.091493,-9576.193725
951.248329,3552.988522,-1702.473667,-10955.165621
951.248649,4441.235652,-444.123565,-10878.556072
951.248969,3627.009116,3330.926739,-10648.727422
951.249288,2442.679609,5551.544565,-10878.556072
951.249608,666.185348,5773.606348,-11491.432470
951.249928,-962.267725,3775.050304,-10265.679673
951.250248,-1110.308913,-962.267725,-10955.165621
951.250568,-222.061783,-5625.565159,-10035.851024
951.250888,740.205942,-7772.162391,-9193.145976
951.251208,444.123565,-5847.626942,-10035.851024
951.251528,-370.102971,-2442.679609,-9193.145976
951.251848,740.205942,1924.535449,-10035.851024
951.252168,2368.659014,4219.173869,-10265.679673
951.252487,2590.720797,3478.967927,-10418.898773
951.252807,1998.556043,888.247130,-10342.289223
951.253127,2590.720797,-1258.350101,-10035.851024
951.253447,2146.597232,-2368.659014,-9959.241474
951.253767,1036.288319,-2368.659014,-9729.412825
951.254087,-1554.432478,-1332.370696,-9499.584175
951.254407,-2368.659014,-1110.308913,-9652.803275
951.254727,-1998.556043,-1332.370696,-9269.755526
951.255047,-1480.411884,-962.267725,-9882.631924
951.255366,-2294.638420,1036.288319,-9576.193725
951.255686,-2886.803174,1258.350101,-11108.384721
951.256006,-1480.411884,-148.041188,-9882.631924
951.256326,962.267725,-2220.617826,-9806.022374
951.256646,1184.329507,-2664.741391,-10112.460574
951.256966,592.164754,-1110.308913,-10342.289223
951.257286,-814.226536,1702.473667,-9882.631924
951.257606,740.205942,4959.379811,-10955.165621
951.257926,2294.638420,4737.318029,-11184.994271
951.258245,2368.659014,3182.885551,-10189.070123
951.258565,-1702.473667,-518.144159,-10572.117872
951.258885,-3552.988522,-2516.700203,-10189.070123
951.259205,-3627.009116,-3627.009116,-9882.631924
951.259525,0.000000,-1924.535449,-10495.508323
951.259845,518.144159,518.144159,-9882.631924
951.260165,148.041188,1998.556043,-10265.679673
951.260485,74.020594,2738.761985,-10495.508323
951.260805,2072.576638,592.164754,-10112.460574
951.261124,3330.926739,296.082377,-10189.070123
951.261444,4515.256246,3108.864956,-10495.508323
951.261764,5107.421000,4145.153275,-11031.775171
951.262084,2664.741391,2220.617826,-10112.460574
951.262404,888.247130,740.205942,-9959.241474
951.262724,-1480.411884,-2072.576638,-9346.365076
951.263044,-2072.576638,-2886.803174,-8503.660028
951.263364,-740.205942,-1406.391290,-9576.193725
951.263684,444.123565,444.123565,-9806.022374
951.264003,2220.617826,1998.556043,-9346.365076
951.264323,3849.070898,2812.782580,-11797.870669
951.264643,2590.720797,962.267725,-9729.412825
951.264963,3997.112087,1110.308913,-9806.022374
951.265283,2516.700203,814.226536,-9269.755526
951.265603,2516.700203,2072.576638,-9193.145976
951.265923,2294.638420,3775.050304,-10265.679673
951.266243,1628.453072,2664.741391,-10725.336972
951.266563,1406.391290,518.144159,-10189.070123
951.266882,-1702.473667,-1332.370696,-9499.584175
951.267202,-3849.070898,-2294.638420,-10112.460574
951.267522,-5921.647536,-1110.308913,-9806.022374
951.267842,-2368.659014,-370.102971,-9806.022374
951.268162,592.164754,2294.638420,-10342.289223
951.268482,-740.205942,1554.432478,-10035.851024
951.268802,1480.411884,1776.494261,-10495.508323
951.269122,814.226536,814.226536,-10189.070123
951.269442,1480.411884,962.267725,-10265.679673
951.269762,1554.432478,1258.350101,-10801.946522
951.270081,1554.432478,148.041188,-10495.508323
951.270401,-1776.494261,-1702.473667,-9806.022374
951.270721,-2146.597232,-888.247130,-9959.241474
951.271041,-3034.844362,0.000000,-9499.584175
951.271361,-2368.659014,1776.494261,-10035.851024
951.271681,-74.020594,518.144159,-10035.851024
951.272001,-740.205942,-814.226536,-10112.460574
951.272321,-222.061783,-1850.514855,-9959.241474
951.272641,1036.288319,-1776.494261,-10112.460574
951.272960,2294.638420,-888.247130,-10265.679673
951.273280,-592.164754,-148.041188,-9346.365076
951.273600,-666.185348,888.247130,-10112.460574
951.273920,666.185348,148.041188,-9269.755526
951.274240,2220.617826,-888.247130,-9346.365076
951.274560,1332.370696,-1036.288319,-9806.022374
951.274880,0.000000,-1332.370696,-10725.336972
951.275200,-1480.411884,-1628.453072,-9576.193725
951.275520,0.000000,-740.205942,-9882.631924
951.275839,1480.411884,-592.164754,-9806.022374
951.276159,3108.864956,-1184.329507,-9959.241474
951.276479,1036.288319,-1258.350101,-10265.679673
951.276799,444.123565,-1776.494261,-9806.022374
951.277119,1850.514855,370.102971,-9193.145976
951.277439,3849.070898,962.267725,-11108.384721
951.277759,6735.874072,1776.494261,-11031.775171
951.278079,5773.606348,1776.494261,-10878.556072
951.278399,2812.782580,1850.514855,-11184.994271
951.278718,-888.247130,-444.123565,-9806.022374
951.279038,-222.061783,-888.247130,-10572.117872
951.279358,444.123565,-2368.659014,-10112.460574
951.279678,370.102971,-2368.659014,-9806.022374
951.279998,-962.267725,74.020594,-11797.870669
951.280318,-1702.473667,592.164754,-10189.070123
951.280638,1406.391290,2442.679609,-10418.898773
951.280957,2664.741391,814.226536,-10495.508323
951.281277,2516.700203,-444.123565,-9882.631924
951.281597,222.061783,-888.247130,-10648.727422
951.281916,74.020594,-888.247130,-9882.631924
951.282236,1332.370696,962.267725,-10342.289223
951.282556,2368.659014,3256.906145,-11184.994271
951.282876,1036.288319,3478.967927,-10801.946522
951.283196,-2072.576638,4145.153275,-10342.289223
951.283516,-2516.700203,3256.906145,-10112.460574
951.283836,-1850.514855,1110.308913,-9959.241474
951.284156,-1776.494261,-666.185348,-8886.707777
951.284476,-1406.391290,-4219.173869,-9576.193725
951.284796,-2072.576638,-5403.503377,-8963.317327
951.285116,-3182.885551,-5181.441594,-8886.707777
951.285436,-2442.679609,-222.061783,-9039.926876
951.285756,1480.411884,5255.462188,-10342.289223
951.286076,1924.535449,7402.059420,-10572.117872
951.286396,2146.597232,6957.935855,-10878.556072
951.286716,-148.041188,2886.803174,-10265.679673
951.287036,-296.082377,-888.247130,-11338.213370
951.287356,-1628.453072,-2886.803174,-9346.365076
951.287676,-1406.391290,-2812.782580,-9806.022374
951.287996,-296.082377,-666.185348,-9346.365076
951.288316,-666.185348,1110.308913,-9269.755526
951.288636,-444.123565,2368.659014,-10035.851024
951.288956,0.000000,3182.885551,-10801.946522
951.289276,1406.391290,2368.659014,-10648.727422
951.289596,1332.370696,2590.720797,-10035.851024
951.289915,740.205942,2960.823768,-11184.994271
951.290235,148.041188,2812.782580,-10342.289223
951.290555,222.061783,0.000000,-10035.851024
951.290875,2812.782580,-814.226536,-10112.460574
951.291195,4589.276840,-148.041188,-10189.070123
951.291515,3256.906145,1184.329507,-10418.898773
951.291835,740.205942,3182.885551,-9806.022374
951.292155,370.102971,3478.967927,-9882.631924
951.292475,1554.432478,1258.350101,-9652.803275
951.292795,2294.638420,-2590.720797,-9729.412825
951.293115,3034.844362,-3627.009116,-9269.755526
951.293435,2664.741391,-2442.679609,-9499.584175
951.293755,3701.029710,740.205942,-10112.460574
951.294075,3552.988522,2886.803174,-9959.241474
951.294395,1702.473667,3404.947333,-9652.803275
951.294715,1850.514855,2442.679609,-10342.289223
951.295035,1850.514855,-740.205942,-9652.803275
951.295355,2590.720797,-1924.535449,-9882.631924
951.295675,814.226536,-888.247130,-12027.699319
951.295995,-592.164754,0.000000,-9652.803275
951.296315,-666.185348,962.267725,-9959.241474
951.296635,1258.350101,592.164754,-9806.022374
951.296955,1036.288319,222.061783,-9882.631924
951.297275,-1110.308913,-1998.556043,-10495.508323
951.297595,-1332.370696,-2442.679609,-9806.022374
951.297914,-1184.329507,-1332.370696,-9806.022374
951.298234,666.185348,-74.020594,-10265.679673
951.298554,-1184.329507,1110.308913,-9806.022374
951.298874,-3701.029710,222.061783,-10801.946522
951.299194,-592.164754,-370.102971,-10189.070123
951.299514,1036.288319,-814.226536,-10418.898773
951.299834,888.247130,222.061783,-11108.384721
951.300154,1406.391290,0.000000,-10418.898773
951.300474,1332.370696,444.123565,-10495.508323
951.300794,518.144159,814.226536,-10801.946522
951.301114,-3034.844362,370.102971,-10112.460574
951.301434,-5551.544565,444.123565,-10572.117872
951.301754,-5921.647536,0.000000,-10112.460574
951.302074,-2146.597232,-1332.370696,-9193.145976
951.302394,-444.123565,-3627.009116,-10342.289223
951.302714,1776.494261,-6365.771101,-9269.755526
951.303034,-74.020594,-5033.400406,-9346.365076
951.303354,-1184.329507,-1628.453072,-9882.631924
951.303674,222.061783,1258.350101,-10112.460574
951.303994,3404.947333,2960.823768,-10495.508323
951.304314,2516.700203,2146.597232,-9806.022374
951.304634,0.000000,1406.391290,-10342.289223
951.304954,370.102971,0.000000,-10112.460574
951.305274,1332.370696,-1702.473667,-9882.631924
951.305594,2516.700203,-1258.350101,-10342.289223
951.305913,2590.720797,-1924.535449,-10648.727422
951.306233,888.247130,-962.267725,-9499.584175
951.306553,962.267725,0.000000,-10035.851024
951.306873,2294.638420,888.247130,-10189.070123
951.307193,2516.700203,1480.411884,-10265.679673
951.307513,1850.514855,2516.700203,-10725.336972
951.307833,3034.844362,2220.617826,-10112.460574
951.308153,3182.885551,1406.391290,-10035.851024
951.308473,4219.173869,592.164754,-10112.460574
951.308793,3256.906145,666.185348,-11184.994271
951.309113,1702.473667,1850.514855,-11184.994271
951.309433,-222.061783,1702.473667,-10112.460574
951.309753,-1628.453072,1850.514855,-9806.022374
951.310073,-2590.720797,1406.391290,-10189.070123
951.310393,-1110.308913,148.041188,-9652.803275
951.310713,740.205942,-1406.391290,-9882.631924
951.311033,2812.782580,-666.185348,-10265.679673
951.311353,2590.720797,1110.308913,-9422.974625
951.311673,1554.432478,3034.844362,-10418.898773
951.311993,1036.288319,3404.947333,-10112.460574
951.312313,1702.473667,3256.906145,-9959.241474
951.312633,222.061783,1924.535449,-9116.536426
951.312953,-444.123565,814.226536,-9729.412825
951.313273,-2220.617826,1480.411884,-9576.193725
