#time,accel_x,accel_y,accel_z
813.424835,666.185348,0.000000,-9346.365076
813.425155,444.123565,370.102971,-10035.851024
813.425475,518.144159,518.144159,-10112.460574
813.425795,592.164754,592.164754,-10035.851024
813.426115,296.082377,592.164754,-10189.070123
813.426435,-444.123565,888.247130,-10035.851024
813.426755,222.061783,296.082377,-10265.679673
813.427075,444.123565,0.000000,-10112.460574
813.427395,222.061783,0.000000,-10035.851024
813.427715,740.205942,0.000000,-10035.851024
813.428035,592.164754,444.123565,-9959.241474
813.428355,962.267725,444.123565,-9959.241474
813.428675,1036.288319,148.041188,-10342.289223
813.428995,666.185348,-148.041188,-10035.851024
813.429315,0.000000,-518.144159,-9959.241474
813.429635,74.020594,-592.164754,-9882.631924
813.429955,592.164754,-296.082377,-10112.460574
813.430275,0.000000,148.041188,-9806.022374
813.430595,370.102971,592.164754,-10035.851024
813.430915,518.144159,518.144159,-10112.460574
813.431235,1110.308913,370.102971,-10265.679673
813.431555,814.226536,296.082377,-10265.679673
813.431875,518.144159,0.000000,-10112.460574
813.432195,370.102971,-296.082377,-10265.679673
813.432515,814.226536,-296.082377,-9806.022374
813.432835,370.102971,-370.102971,-10035.851024
813.433155,-444.123565,-814.226536,-9806.022374
813.433475,0.000000,-1110.308913,-10265.679673
813.433795,-222.061783,-518.144159,-9959.241474
813.434115,-222.061783,-444.123565,-10265.679673
813.434435,-962.267725,-296.082377,-10418.898773
813.434755,0.000000,-814.226536,-9882.631924
813.435075,0.000000,-444.123565,-10189.070123
813.435395,592.164754,-740.205942,-9959.241474
813.435715,-222.061783,-1036.288319,-9959.241474
813.436035,-148.041188,-1702.473667,-9806.022374
813.436355,0.000000,-1258.350101,-9959.241474
813.436675,-222.061783,-1332.370696,-9882.631924
813.436995,-1332.370696,-1554.432478,-9806.022374
813.437315,-2368.659014,-1702.473667,-9806.022374
813.437635,-1924.535449,-1850.514855,-9576.193725
813.437955,-1258.350101,-1628.453072,-9806.022374
813.438275,-1184.329507,-1258.350101,-10418.898773
813.438595,-1924.535449,-1480.411884,-10495.508323
813.438915,-1480.411884,-1702.473667,-9806.022374
813.439235,-592.164754,-666.185348,-10725.336972
813.439554,-888.247130,-1110.308913,-10112.460574
813.439874,-2146.597232,-1924.535449,-10265.679673
813.440194,-3256.906145,-2738.761985,-10189.070123
813.440514,-3182.885551,-3182.885551,-11184.994271
813.440834,-2886.803174,-3552.988522,-9806.022374
813.441154,-2590.720797,-3330.926739,-9882.631924
813.441474,-3330.926739,-3627.009116,-10265.679673
813.441794,-3034.844362,-3330.926739,-9729.412825
813.442114,-1702.473667,-2960.823768,-9882.631924
813.442434,-222.061783,-1924.535449,-10189.070123
813.442754,-148.041188,-296.082377,-10189.070123
813.443074,-1480.411884,-148.041188,-10495.508323
813.443394,-2368.659014,-1628.453072,-10648.727422
813.443714,-3627.009116,-1998.556043,-10265.679673
813.444034,-4589.276840,-3478.967927,-10112.460574
813.444354,-5921.647536,-4441.235652,-9729.412825
813.444674,-4737.318029,-5033.400406,-9499.584175
813.444994,-2664.741391,-5551.544565,-9806.022374
813.445314,-740.205942,-4071.132681,-10112.460574
813.445634,296.082377,-2146.597232,-10342.289223
813.445954,444.123565,222.061783,-10725.336972
813.446274,1554.432478,1776.494261,-12257.527968
813.446594,2516.700203,2442.679609,-10878.556072
813.446914,2664.741391,1184.329507,-11108.384721
813.447234,1332.370696,-1406.391290,-10495.508323
813.447554,-888.247130,-2886.803174,-9652.803275
813.447874,-3182.885551,-3404.947333,-9959.241474
813.448194,-5107.421000,-3404.947333,-9652.803275
813.448514,-5107.421000,-3478.967927,-9499.584175
813.448834,-3552.988522,-4367.215058,-9346.365076
813.449154,-1258.350101,-4367.215058,-9576.193725
813.449474,1998.556043,-3404.947333,-9959.241474
813.449794,2886.803174,-1184.329507,-10035.851024
813.450114,4071.132681,740.205942,-10035.851024
813.450434,5699.585753,2368.659014,-10112.460574
813.450754,4737.318029,2960.823768,-11031.775171
813.451074,1332.370696,1332.370696,-10342.289223
813.451394,-3256.906145,-1036.288319,-10189.070123
813.451714,-5477.523971,-4071.132681,-9499.584175
813.452034,-4885.359217,-5329.482782,-9576.193725
813.452354,-3849.070898,-6069.688724,-9652.803275
813.452674,-3849.070898,-5329.482782,-9652.803275
813.452994,-2590.720797,-3997.112087,-9576.193725
813.453314,0.000000,-1554.432478,-10189.070123
813.453634,1776.494261,1998.556043,-10648.727422
813.453954,2516.700203,3404.947333,-10648.727422
813.454274,1998.556043,3404.947333,-10878.556072
813.454594,2368.659014,1850.514855,-10495.508323
813.454914,1110.308913,-296.082377,-11491.432470
813.455234,-1850.514855,-1406.391290,-10572.117872
813.455554,-4293.194464,-1924.535449,-10265.679673
813.455874,-5921.647536,-2146.597232,-10112.460574
813.456194,-6735.874072,-3256.906145,-10572.117872
813.456514,-8956.491898,-4219.173869,-9806.022374
813.456834,-7772.162391,-4959.379811,-9039.926876
813.457154,-4293.194464,-5107.421000,-9269.755526
813.457474,518.144159,-3034.844362,-9039.926876
813.457794,2738.761985,0.000000,-11108.384721
813.458114,1924.535449,2664.741391,-10725.336972
813.458434,1036.288319,3997.112087,-10648.727422
813.458754,962.267725,3923.091493,-10648.727422
813.459073,814.226536,962.267725,-10725.336972
813.459393,-962.267725,-2442.679609,-10112.460574
813.459713,-3923.091493,-4885.359217,-10189.070123
813.460033,-6661.853478,-5625.565159,-9576.193725
813.460353,-8216.285956,-5329.482782,-9499.584175
813.460673,-8660.409521,-4663.297435,-8810.098227
813.460993,-5107.421000,-5033.400406,-8886.707777
813.461313,-148.041188,-4663.297435,-9269.755526
813.461633,3182.885551,-3478.967927,-10418.898773
813.461953,3627.009116,-1258.350101,-10189.070123
813.462273,3775.050304,666.185348,-10725.336972
813.462593,4885.359217,2812.782580,-10648.727422
813.462913,4515.256246,4145.153275,-11184.994271
813.463233,1924.535449,2516.700203,-11108.384721
813.463553,-2812.782580,1480.411884,-10955.165621
813.463873,-5033.400406,-1628.453072,-10265.679673
813.464193,-6069.688724,-4737.318029,-10035.851024
813.464513,-6513.812290,-7402.059420,-9116.536426
813.464833,-5625.565159,-8956.491898,-9039.926876
813.465153,-3552.988522,-8216.285956,-9193.145976
813.465473,-1554.432478,-5699.585753,-9729.412825
813.465793,1036.288319,-1998.556043,-9806.022374
813.466113,5033.400406,1924.535449,-11568.042020
813.466433,8068.244768,3627.009116,-11414.822920
813.466753,7254.018232,5625.565159,-11874.480219
813.467073,1406.391290,4441.235652,-10725.336972
813.467393,-2664.741391,1258.350101,-10648.727422
813.467713,-3404.947333,-2590.720797,-9576.193725
813.468033,-2590.720797,-5847.626942,-9652.803275
813.468353,-4663.297435,-6883.915261,-9652.803275
813.468673,-7328.038826,-8290.306550,-8886.707777
813.468993,-4811.338623,-8290.306550,-8963.317327
813.469313,-1406.391290,-4145.153275,-9269.755526
813.469633,1554.432478,-518.144159,-10342.289223
813.469953,1776.494261,1776.494261,-10572.117872
813.470273,1850.514855,2886.803174,-9499.584175
813.470593,2812.782580,3997.112087,-10112.460574
813.470913,5033.400406,3552.988522,-10418.898773
813.471233,5403.503377,2368.659014,-11108.384721
813.471553,2294.638420,-814.226536,-10572.117872
813.471873,-2590.720797,-2960.823768,-11031.775171
813.472193,-4959.379811,-4219.173869,-9576.193725
813.472513,-4367.215058,-3108.864956,-9806.022374
813.472833,-2812.782580,-2146.597232,-9652.803275
813.473153,-2516.700203,370.102971,-10035.851024
813.473473,-814.226536,2368.659014,-9806.022374
813.473793,2442.679609,814.226536,-10342.289223
813.474113,4441.235652,0.000000,-10112.460574
813.474433,4219.173869,1036.288319,-10495.508323
813.474753,2516.700203,3256.906145,-10265.679673
813.475073,2146.597232,4441.235652,-11031.775171
813.475393,2220.617826,4959.379811,-10878.556072
813.475713,-888.247130,3849.070898,-11184.994271
813.476033,-3182.885551,370.102971,-9729.412825
813.476353,-2960.823768,-2294.638420,-9039.926876
813.476673,-1776.494261,-4663.297435,-9806.022374
813.476993,148.041188,-4293.194464,-9269.755526
813.477313,1258.350101,-2368.659014,-9882.631924
813.477633,4293.194464,74.020594,-9576.193725
813.477953,5921.647536,2812.782580,-9959.241474
813.478273,4219.173869,5033.400406,-10648.727422
813.478593,1406.391290,6513.812290,-10572.117872
813.478912,1628.453072,5033.400406,-10265.679673
813.479232,2220.617826,2294.638420,-10112.460574
813.479552,1110.308913,-1036.288319,-9882.631924
813.479872,-1036.288319,-3478.967927,-9652.803275
813.480192,-3404.947333,-3478.967927,-9269.755526
813.480512,-2812.782580,-2294.638420,-9499.584175
813.480832,-2664.741391,-518.144159,-9576.193725
813.481152,-2590.720797,370.102971,-9806.022374
813.481472,-1924.535449,666.185348,-9882.631924
813.481792,1406.391290,370.102971,-11721.261119
813.482112,4737.318029,814.226536,-10342.289223
813.482432,5625.565159,2590.720797,-11031.775171
813.482752,4441.235652,3775.050304,-10801.946522
813.483072,2738.761985,3775.050304,-11797.870669
813.483392,2590.720797,3478.967927,-10495.508323
813.483712,888.247130,1628.453072,-11491.432470
813.484032,-2368.659014,1036.288319,-10725.336972
813.484351,-4515.256246,-1924.535449,-10265.679673
813.484671,-3701.029710,-3627.009116,-9576.193725
813.484991,-2146.597232,-3849.070898,-9806.022374
813.485311,-1258.350101,-3108.864956,-9882.631924
813.485631,-518.144159,222.061783,-10035.851024
813.485951,1332.370696,2368.659014,-10801.946522
813.486271,4145.153275,3256.906145,-10725.336972
813.486591,3627.009116,4959.379811,-11338.213370
813.486911,1702.473667,3997.112087,-10342.289223
813.487231,740.205942,1554.432478,-10342.289223
813.487551,1110.308913,148.041188,-8963.317327
813.487871,1036.288319,-2294.638420,-10878.556072
813.488191,-592.164754,-3256.906145,-9269.755526
813.488511,-3330.926739,-4293.194464,-9422.974625
813.488831,-2590.720797,-3256.906145,-8733.488677
813.489151,-222.061783,-814.226536,-9346.365076
813.489471,962.267725,1036.288319,-10495.508323
813.489790,222.061783,1628.453072,-10112.460574
813.490110,592.164754,222.061783,-9652.803275
813.490430,4145.153275,-1628.453072,-9652.803275
813.490750,4737.318029,-1258.350101,-9652.803275
813.491070,3034.844362,-592.164754,-9806.022374
813.491390,2146.597232,222.061783,-9806.022374
813.491710,2072.576638,1480.411884,-9882.631924
813.492030,592.164754,296.082377,-10725.336972
813.492350,-2442.679609,-1036.288319,-9882.631924
813.492670,-5107.421000,-1554.432478,-9882.631924
813.492990,-3923.091493,-3478.967927,-9422.974625
813.493310,-2146.597232,-3182.885551,-9652.803275
813.493630,1480.411884,-2886.803174,-10035.851024
813.493950,1480.411884,-1628.453072,-10495.508323
813.494270,2294.638420,-296.082377,-10189.070123
813.494590,3552.988522,1702.473667,-10878.556072
813.494910,2664.741391,3404.947333,-11184.994271
813.495229,888.247130,3108.864956,-10955.165621
813.495549,-888.247130,1554.432478,-10955.165621
813.495869,-1406.391290,-592.164754,-10035.851024
813.496189,-1332.370696,-3108.864956,-10572.117872
813.496509,-1776.494261,-1998.556043,-10035.851024
813.496829,-1924.535449,-1850.514855,-9959.241474
813.497149,0.000000,-814.226536,-10342.289223
813.497469,1258.350101,0.000000,-10035.851024
813.497789,370.102971,-962.267725,-9806.022374
813.498109,-1850.514855,-740.205942,-9269.755526
813.498429,-1036.288319,-1036.288319,-9346.365076
813.498749,1924.535449,370.102971,-8503.660028
813.499069,4219.173869,814.226536,-9729.412825
813.499389,2220.617826,1258.350101,-9806.022374
813.499709,148.041188,814.226536,-9959.241474
813.500029,0.000000,962.267725,-9422.974625
813.500349,592.164754,1258.350101,-9806.022374
813.500668,-666.185348,1110.308913,-9576.193725
813.500988,-2812.782580,1110.308913,-9882.631924
813.501308,-1036.288319,-814.226536,-9499.584175
813.501628,1480.411884,0.000000,-10265.679673
813.501948,1776.494261,296.082377,-9806.022374
813.502268,1702.473667,962.267725,-10495.508323
813.502588,2516.700203,1702.473667,-9806.022374
813.502908,3182.885551,1998.556043,-10418.898773
813.503228,1406.391290,4367.215058,-11031.775171
813.503548,370.102971,4293.194464,-10572.117872
813.503868,-1480.411884,1332.370696,-10878.556072
813.504188,-518.144159,-592.164754,-9882.631924
813.504508,-888.247130,-1628.453072,-10189.070123
813.504828,-444.123565,-888.247130,-10112.460574
813.505148,-370.102971,-296.082377,-10265.679673
813.505468,1332.370696,0.000000,-9959.241474
813.505788,2294.638420,370.102971,-10418.898773
813.506107,1924.535449,592.164754,-10112.460574
813.506427,2146.597232,1998.556043,-10265.679673
813.506747,1258.350101,1554.432478,-10418.898773
813.507067,2590.720797,2368.659014,-10035.851024
813.507387,1628.453072,2516.700203,-10572.117872
813.507707,1332.370696,1110.308913,-10112.460574
813.508027,296.082377,-296.082377,-9806.022374
813.508347,148.041188,-1702.473667,-9806.022374
813.508667,148.041188,-1554.432478,-9806.022374
813.508987,-1480.411884,-814.226536,-9576.193725
813.509307,-4293.194464,-296.082377,-9346.365076
813.509627,-2886.803174,-370.102971,-9346.365076
813.509947,-222.061783,370.102971,-9499.584175
813.510267,1628.453072,370.102971,-9576.193725
813.510587,2516.700203,-518.144159,-9499.584175
813.510907,3849.070898,-518.144159,-10035.851024
813.511227,4145.153275,814.226536,-10035.851024
813.511546,2442.679609,1480.411884,-11184.994271
813.511866,-814.226536,1998.556043,-10265.679673
813.512186,-3034.844362,592.164754,-10418.898773
813.512506,-1998.556043,-814.226536,-9806.022374
813.512826,0.000000,-1628.453072,-10189.070123
813.513146,-296.082377,-1332.370696,-10112.460574
813.513466,-740.205942,-1850.514855,-10035.851024
813.513786,518.144159,-2516.700203,-10189.070123
813.514106,1406.391290,-296.082377,-10189.070123
813.514426,1702.473667,1776.494261,-10725.336972
813.514746,-222.061783,3034.844362,-10955.165621
813.515066,444.123565,2738.761985,-10725.336972
813.515386,2146.597232,1554.432478,-10648.727422
813.515706,2886.803174,-444.123565,-10495.508323
813.516026,2442.679609,-962.267725,-10189.070123
813.516346,444.123565,-1998.556043,-10342.289223
813.516666,0.000000,-2664.741391,-9652.803275
813.516985,0.000000,-1776.494261,-10035.851024
813.517305,-1258.350101,296.082377,-10189.070123
813.517625,-2960.823768,1184.329507,-10342.289223
813.517945,-1628.453072,222.061783,-9729.412825
813.518265,1110.308913,-370.102971,-9806.022374
813.518585,2368.659014,-740.205942,-10342.289223
813.518905,2294.638420,222.061783,-9882.631924
813.519225,2812.782580,518.144159,-10112.460574
813.519545,3404.947333,1332.370696,-10112.460574
813.519865,2220.617826,1184.329507,-10265.679673
813.520185,-148.041188,1850.514855,-10265.679673
813.520505,-2590.720797,-148.041188,-10035.851024
813.520825,-2442.679609,-1036.288319,-9422.974625
813.521145,-1258.350101,-1628.453072,-10035.851024
813.521465,-1924.535449,-2368.659014,-9652.803275
813.521785,-1702.473667,-888.247130,-9576.193725
813.522105,1184.329507,-148.041188,-10035.851024
813.522424,2738.761985,1036.288319,-10725.336972
813.522744,2368.659014,1554.432478,-10648.727422
813.523064,-962.267725,2146.597232,-10418.898773
813.523384,-2220.617826,1258.350101,-10265.679673
813.523704,-222.061783,1036.288319,-10035.851024
813.524024,1406.391290,962.267725,-10648.727422
813.524344,222.061783,0.000000,-10342.289223
813.524664,-592.164754,-1110.308913,-10035.851024
813.524984,444.123565,-444.123565,-9959.241474
813.525304,1258.350101,0.000000,-10418.898773
813.525624,74.020594,814.226536,-10112.460574
813.525944,-1702.473667,1480.411884,-9959.241474
813.526264,-592.164754,666.185348,-9806.022374
813.526584,2072.576638,1406.391290,-9959.241474
813.526904,2812.782580,1332.370696,-10418.898773
813.527224,1776.494261,1110.308913,-9806.022374
813.527544,2072.576638,592.164754,-9729.412825
813.527863,2664.741391,1184.329507,-9806.022374
813.528183,1628.453072,296.082377,-9959.241474
813.528503,148.041188,1850.514855,-9959.241474
813.528823,-370.102971,2664.741391,-8656.879127
813.529143,0.000000,1628.453072,-9806.022374
813.529463,1036.288319,0.000000,-10035.851024
813.529783,814.226536,-1406.391290,-9652.803275
813.530103,1110.308913,-740.205942,-9806.022374
813.530423,2590.720797,74.020594,-9652.803275
813.530743,3997.112087,2220.617826,-10801.946522
813.531063,3034.844362,2812.782580,-10342.289223
813.531383,962.267725,3923.091493,-10265.679673
813.531703,-370.102971,3478.967927,-10878.556072
813.532023,1628.453072,2516.700203,-10725.336972
813.532343,1776.494261,444.123565,-10342.289223
813.532663,0.000000,-1332.370696,-10265.679673
813.532983,-814.226536,-2368.659014,-8963.317327
813.533302,148.041188,-1258.350101,-9882.631924
813.533622,1702.473667,370.102971,-10189.070123
813.533942,1036.288319,1850.514855,-10418.898773
813.534262,-814.226536,2442.679609,-10189.070123
813.534582,0.000000,1850.514855,-9806.022374
813.534902,1332.370696,740.205942,-10265.679673
813.535222,1850.514855,444.123565,-10342.289223
813.535542,-296.082377,-370.102971,-9806.022374
813.535862,740.205942,-296.082377,-9729.412825
813.536182,1924.535449,148.041188,-10035.851024
813.536502,592.164754,666.185348,-10418.898773
813.536822,-1850.514855,814.226536,-9882.631924
813.537142,-3849.070898,222.061783,-9652.803275
813.537462,-2664.741391,74.020594,-9269.755526
813.537782,-444.123565,-1110.308913,-10035.851024
813.538102,740.205942,-1258.350101,-10035.851024
813.538422,740.205942,-1332.370696,-9806.022374
813.538741,1036.288319,-666.185348,-9882.631924
813.539061,2738.761985,-370.102971,-9882.631924
813.539381,2368.659014,1258.350101,-10112.460574
813.539701,222.061783,2220.617826,-10035.851024
813.540021,-740.205942,592.164754,-9959.241474
813.540341,-222.061783,-666.185348,-9882.631924
813.540661,74.020594,-2146.597232,-10112.460574
813.540981,-1036.288319,-1480.411884,-9729.412825
813.541301,-592.164754,-1406.391290,-9882.631924
813.541621,2442.679609,-592.164754,-9959.241474
813.541941,3775.050304,148.041188,-10418.898773
813.542261,1406.391290,740.205942,-10418.898773
813.542581,-1406.391290,148.041188,-10418.898773
813.542901,-740.205942,0.000000,-9729.412825
813.543221,1332.370696,-296.082377,-10112.460574
813.543541,1924.535449,-814.226536,-10189.070123
813.543861,1036.288319,-370.102971,-10189.070123
813.544180,1406.391290,-1406.391290,-10265.679673
813.544500,3923.091493,-592.164754,-9959.241474
813.544820,2516.700203,296.082377,-10725.336972
813.545140,-1332.370696,1036.288319,-10035.851024
813.545460,-2960.823768,0.000000,-9882.631924
813.545780,-888.247130,-296.082377,-9422.974625
813.546100,74.020594,0.000000,-10112.460574
813.546420,444.123565,592.164754,-10725.336972
813.546740,-370.102971,-444.123565,-10035.851024
813.547060,1258.350101,-1480.411884,-10112.460574
813.547380,3108.864956,0.000000,-9959.241474
813.547700,444.123565,1036.288319,-10648.727422
813.548020,-1628.453072,1924.535449,-10342.289223
813.548340,-1554.432478,1036.288319,-10189.070123
813.548660,0.000000,1258.350101,-10342.289223
813.548980,370.102971,222.061783,-10725.336972
813.549300,-888.247130,74.020594,-10035.851024
813.549619,-1702.473667,-888.247130,-9422.974625
813.549939,1406.391290,0.000000,-10112.460574
813.550259,888.247130,1036.288319,-10189.070123
813.550579,-666.185348,1998.556043,-10495.508323
813.550899,-2516.700203,1924.535449,-9806.022374
813.551219,-1776.494261,148.041188,-9652.803275
813.551539,888.247130,-1480.411884,-9652.803275
813.551859,740.205942,-1406.391290,-9882.631924
813.552179,-740.205942,296.082377,-9729.412825
813.552499,-296.082377,666.185348,-9576.193725
813.552819,2516.700203,1480.411884,-10189.070123
813.553139,2516.700203,1628.453072,-10342.289223
813.553459,-444.123565,814.226536,-9652.803275
813.553779,-2442.679609,-962.267725,-9806.022374
813.554099,444.123565,-1702.473667,-9729.412825
813.554419,1332.370696,-592.164754,-9499.584175
813.554739,518.144159,518.144159,-10189.070123
813.555058,222.061783,814.226536,-9806.022374
813.555378,2590.720797,2072.576638,-10112.460574
813.555698,4145.153275,3404.947333,-10418.898773
813.556018,2590.720797,3404.947333,-10725.336972
813.556338,296.082377,3552.988522,-10495.508323
813.556658,888.247130,2072.576638,-10035.851024
813.556978,2072.576638,1036.288319,-10112.460574
813.557298,2368.659014,222.061783,-10955.165621
813.557618,0.000000,0.000000,-10189.070123
813.557938,-222.061783,962.267725,-10189.070123
813.558258,1850.514855,2368.659014,-10265.679673
813.558578,1924.535449,3701.029710,-10572.117872
813.558898,-370.102971,3478.967927,-10342.289223
813.559218,-1776.494261,2294.638420,-10189.070123
813.559538,1258.350101,222.061783,-9882.631924
813.559858,3478.967927,-740.205942,-10189.070123
813.560178,3552.988522,-1184.329507,-9346.365076
813.560497,2590.720797,-518.144159,-9729.412825
813.560817,1258.350101,-222.061783,-10112.460574
813.561137,1332.370696,1110.308913,-9959.241474
813.561457,592.164754,1184.329507,-10112.460574
813.561777,-2220.617826,1110.308913,-9806.022374
813.562097,-1554.432478,740.205942,-9499.584175
813.562417,962.267725,-296.082377,-10112.460574
813.562737,2886.803174,-2220.617826,-10035.851024
813.563057,1628.453072,-2368.659014,-9346.365076
813.563377,-1184.329507,-1850.514855,-9806.022374
813.563697,-1258.350101,592.164754,-9806.022374
813.564017,296.082377,1850.514855,-9959.241474
813.564337,-592.164754,2960.823768,-10418.898773
813.564657,-2146.597232,1036.288319,-9806.022374
813.564977,-2146.597232,-814.226536,-9882.631924
813.565297,222.061783,-1628.453072,-9806.022374
813.565617,814.226536,-1480.411884,-10112.460574
813.565936,-1110.308913,-148.041188,-9882.631924
813.566256,-222.061783,148.041188,-9652.803275
813.566576,666.185348,592.164754,-10035.851024
813.566896,148.041188,444.123565,-10648.727422
813.567216,-814.226536,592.164754,-10035.851024
813.567536,-2590.720797,444.123565,-10112.460574
813.567856,-74.020594,0.000000,-10189.070123
813.568176,2368.659014,-296.082377,-10418.898773
813.568496,2220.617826,-962.267725,-10725.336972
813.568816,74.020594,-1480.411884,-9959.241474
813.569136,148.041188,-1110.308913,-10265.679673
813.569456,1406.391290,-444.123565,-10342.289223
813.569776,666.185348,-74.020594,-10572.117872
813.570096,-962.267725,1776.494261,-9422.974625
813.570416,-296.082377,814.226536,-9959.241474
813.570736,2442.679609,-444.123565,-10495.508323
813.571056,3034.844362,-1110.308913,-10189.070123
813.571375,2368.659014,-1184.329507,-9806.022374
813.571695,1480.411884,-740.205942,-9959.241474
813.572015,1628.453072,-962.267725,-9806.022374
813.572335,2072.576638,-148.041188,-10495.508323
813.572655,-592.164754,370.102971,-10035.851024
813.572975,-1850.514855,1184.329507,-9729.412825
813.573295,-148.041188,962.267725,-10189.070123
813.573615,2812.782580,888.247130,-10265.679673
813.573935,2664.741391,0.000000,-10189.070123
813.574255,296.082377,-148.041188,-10342.289223
813.574575,814.226536,-296.082377,-9806.022374
813.574895,1110.308913,1110.308913,-10035.851024
813.575215,148.041188,1924.535449,-10418.898773
813.575535,-444.123565,1702.473667,-10418.898773
813.575855,-1998.556043,1036.288319,-9882.631924
813.576175,296.082377,-444.123565,-10189.070123
813.576495,1776.494261,-148.041188,-10112.460574
813.576814,1554.432478,0.000000,-10265.679673
813.577134,-148.041188,1332.370696,-10035.851024
813.577454,0.000000,1332.370696,-10189.070123
813.577774,814.226536,814.226536,-9959.241474
813.578094,-444.123565,444.123565,-10418.898773
813.578414,-2294.638420,296.082377,-9806.022374
813.578734,-2146.597232,1702.473667,-10112.460574
813.579054,666.185348,1184.329507,-10342.289223
813.579374,1332.370696,-518.144159,-10342.289223
813.579694,518.144159,518.144159,-10035.851024
813.580014,-1036.288319,1554.432478,-9499.584175
813.580334,962.267725,1110.308913,-10418.898773
813.580654,1776.494261,1480.411884,-10265.679673
813.580974,-592.164754,370.102971,-9882.631924
813.581294,-1776.494261,296.082377,-9499.584175
813.581614,-740.205942,888.247130,-9806.022374
813.581934,740.205942,2516.700203,-9959.241474
813.582254,1554.432478,3775.050304,-10189.070123
813.582574,444.123565,1332.370696,-9729.412825
813.582894,814.226536,1480.411884,-10418.898773
813.583215,1036.288319,-592.164754,-9729.412825
813.583535,3478.967927,0.000000,-10418.898773
813.583855,518.144159,370.102971,-9499.584175
813.584175,-740.205942,1036.288319,-9882.631924
813.584495,740.205942,592.164754,-9499.584175
813.584815,2072.576638,518.144159,-10112.460574
813.585135,1406.391290,814.226536,-9806.022374
813.585455,0.000000,1184.329507,-9806.022374
813.585775,1998.556043,888.247130,-9882.631924
813.586096,2146.597232,-370.102971,-9882.631924
813.586416,1702.473667,-444.123565,-10418.898773
813.586736,0.000000,1110.308913,-10112.460574
813.587056,-1184.329507,0.000000,-9882.631924
813.587376,1036.288319,888.247130,-10112.460574
813.587696,1850.514855,1036.288319,-10495.508323
813.588016,2146.597232,814.226536,-10572.117872
813.588336,666.185348,-148.041188,-9959.241474
813.588657,2220.617826,-296.082377,-10189.070123
813.588977,2072.576638,518.144159,-10572.117872
813.589297,-1184.329507,518.144159,-10112.460574
813.589617,-2146.597232,1406.391290,-10035.851024
813.589937,-1850.514855,888.247130,-9959.241474
813.590257,370.102971,222.061783,-10189.070123
813.590577,1406.391290,-148.041188,-10112.460574
813.590897,666.185348,-2664.741391,-9882.631924
813.591217,1406.391290,-2442.679609,-9959.241474
813.591538,2368.659014,-592.164754,-9729.412825
813.591858,962.267725,962.267725,-10418.898773
813.592178,-1110.308913,1702.473667,-10035.851024
813.592498,-1480.411884,740.205942,-10112.460574
813.592818,-1702.473667,-148.041188,-9806.022374
813.593138,-444.123565,-1036.288319,-9959.241474
813.593458,0.000000,-1998.556043,-10112.460574
813.593778,-148.041188,-1332.370696,-9729.412825
813.594099,888.247130,-1628.453072,-9959.241474
813.594419,1480.411884,74.020594,-10572.117872
813.594739,814.226536,0.000000,-10495.508323
813.595059,-1406.391290,0.000000,-10189.070123
813.595379,-518.144159,222.061783,-10495.508323
813.595699,1628.453072,592.164754,-9806.022374
813.596019,1036.288319,-296.082377,-10725.336972
813.596339,-296.082377,1110.308913,-10648.727422
813.596660,-444.123565,814.226536,-10342.289223
813.596980,1480.411884,0.000000,-9882.631924
813.597300,2812.782580,-222.061783,-10418.898773
813.597620,1110.308913,74.020594,-10572.117872
813.597940,-1258.350101,-296.082377,-9882.631924
813.598260,-1184.329507,-592.164754,-10418.898773
813.598580,1998.556043,-1776.494261,-9422.974625
813.598900,3404.947333,-2294.638420,-10648.727422
813.599220,592.164754,-1702.473667,-9729.412825
813.599541,-592.164754,-1184.329507,-10035.851024
813.599861,888.247130,370.102971,-9806.022374
813.600181,2590.720797,740.205942,-10495.508323
813.600501,888.247130,222.061783,-9806.022374
813.600821,-1480.411884,-1036.288319,-9576.193725
813.601141,-1036.288319,-3182.885551,-9116.536426
813.601461,962.267725,-1776.494261,-9652.803275
813.601781,1110.308913,-888.247130,-10189.070123
813.602102,296.082377,592.164754,-9806.022374
813.602422,666.185348,1702.473667,-9729.412825
813.602742,1776.494261,2368.659014,-10495.508323
813.603062,814.226536,2442.679609,-10418.898773
813.603382,-2590.720797,1702.473667,-10189.070123
813.603702,-2368.659014,444.123565,-9576.193725
813.604022,1110.308913,-592.164754,-10035.851024
813.604342,3256.906145,-1110.308913,-10265.679673
813.604662,666.185348,-814.226536,-10418.898773
813.604983,-1332.370696,-444.123565,-10265.679673
813.605303,370.102971,1258.350101,-10418.898773
813.605623,1702.473667,1776.494261,-11491.432470
813.605943,-666.185348,962.267725,-11031.775171
813.606263,-3108.864956,2146.597232,-10572.117872
813.606583,-3701.029710,0.000000,-10418.898773
813.606903,296.082377,-148.041188,-10572.117872
813.607223,1258.350101,74.020594,-11031.775171
813.607544,-1036.288319,370.102971,-10265.679673
813.607864,-592.164754,518.144159,-10572.117872
813.608184,2368.659014,1258.350101,-10572.117872
813.608504,2442.679609,3552.988522,-10418.898773
813.608824,-1110.308913,4071.132681,-10342.289223
813.609144,-1480.411884,4145.153275,-10189.070123
813.609464,148.041188,1184.329507,-9729.412825
813.609784,3404.947333,-370.102971,-10342.289223
813.610105,1702.473667,-74.020594,-9652.803275
813.610425,444.123565,148.041188,-9576.193725
813.610745,1332.370696,444.123565,-9652.803275
813.611065,2812.782580,2442.679609,-9729.412825
813.611385,1776.494261,4219.173869,-11261.603821
813.611705,-740.205942,3701.029710,-9576.193725
813.612025,-1258.350101,1776.494261,-9729.412825
813.612345,370.102971,-592.164754,-9576.193725
813.612665,2738.761985,-888.247130,-9959.241474
813.612986,2516.700203,-1628.453072,-9576.193725
813.613306,1850.514855,-666.185348,-9882.631924
813.613626,1776.494261,518.144159,-9882.631924
813.613946,3034.844362,2368.659014,-10418.898773
813.614266,1628.453072,3552.988522,-10342.289223
813.614586,-1554.432478,3256.906145,-10342.289223
813.614906,0.000000,2812.782580,-10265.679673
813.615226,1850.514855,962.267725,-10495.508323
813.615547,2368.659014,-888.247130,-10035.851024
813.615867,-222.061783,-2294.638420,-9959.241474
813.616187,-592.164754,-2368.659014,-10112.460574
813.616507,1406.391290,-814.226536,-10112.460574
813.616827,2516.700203,1184.329507,-10801.946522
813.617147,518.144159,2368.659014,-9806.022374
813.617467,-1924.535449,1554.432478,-10189.070123
813.617787,-296.082377,296.082377,-10112.460574
813.618107,1776.494261,-740.205942,-10418.898773
813.618428,962.267725,-740.205942,-9652.803275
813.618748,-1110.308913,-1998.556043,-9576.193725
813.619068,74.020594,-1850.514855,-9652.803275
813.619388,1998.556043,-1480.411884,-9882.631924
813.619708,1110.308913,-962.267725,-10112.460574
813.620028,-1702.473667,814.226536,-9422.974625
813.620348,-2886.803174,814.226536,-9346.365076
813.620668,296.082377,222.061783,-10035.851024
813.620989,740.205942,-1184.329507,-9806.022374
813.621309,592.164754,-3256.906145,-9193.145976
813.621629,-296.082377,-3182.885551,-9039.926876
813.621949,740.205942,-3034.844362,-9652.803275
813.622269,2146.597232,0.000000,-10418.898773
813.622589,592.164754,962.267725,-10035.851024
813.622909,-3108.864956,1702.473667,-10418.898773
813.623229,-1998.556043,222.061783,-10189.070123
813.623550,666.185348,-1332.370696,-10342.289223
813.623870,222.061783,-2294.638420,-10495.508323
813.624190,444.123565,-1924.535449,-10572.117872
813.624510,518.144159,-1480.411884,-10495.508323
813.624830,2368.659014,-1406.391290,-10495.508323
813.625150,2146.597232,-296.082377,-11338.213370
813.625470,-222.061783,1628.453072,-9806.022374
813.625790,-1258.350101,2220.617826,-10955.165621
813.626110,-444.123565,1480.411884,-10572.117872
813.626431,2146.597232,0.000000,-11031.775171
813.626751,2368.659014,-2368.659014,-10725.336972
813.627071,-814.226536,-1776.494261,-8656.879127
813.627391,296.082377,-1628.453072,-9806.022374
813.627711,2886.803174,-592.164754,-9882.631924
813.628031,1850.514855,1036.288319,-10801.946522
813.628351,-1332.370696,2516.700203,-9729.412825
813.628671,-1628.453072,1702.473667,-10035.851024
813.628992,74.020594,0.000000,-9729.412825
813.629312,1702.473667,-1554.432478,-9959.241474
813.629632,1702.473667,-1702.473667,-9806.022374
813.629952,740.205942,-444.123565,-8886.707777
813.630272,3256.906145,370.102971,-9806.022374
813.630592,4441.235652,1554.432478,-10878.556072
813.630912,888.247130,2146.597232,-10112.460574
813.631232,-3478.967927,740.205942,-9652.803275
813.631552,-2590.720797,148.041188,-9576.193725
813.631873,1702.473667,-592.164754,-9729.412825
813.632193,1776.494261,0.000000,-10648.727422
813.632513,-2368.659014,1480.411884,-9959.241474
813.632833,-2368.659014,1924.535449,-9806.022374
813.633153,2516.700203,1406.391290,-10265.679673
813.633473,2516.700203,1554.432478,-10878.556072
813.633793,148.041188,1406.391290,-10342.289223
813.634113,-2812.782580,-74.020594,-9729.412825
813.634434,-888.247130,-518.144159,-10112.460574
813.634754,1628.453072,888.247130,-10265.679673
813.635074,0.000000,1110.308913,-10572.117872
813.635394,-666.185348,518.144159,-9806.022374
813.635714,444.123565,148.041188,-9806.022374
813.636034,2516.700203,0.000000,-10495.508323
813.636354,1628.453072,370.102971,-10265.679673
813.636674,-2738.761985,444.123565,-9729.412825
813.636995,-2812.782580,1332.370696,-9806.022374
813.637315,518.144159,0.000000,-9806.022374
813.637635,2368.659014,-592.164754,-10189.070123
813.637955,148.041188,74.020594,-9652.803275
813.638275,-592.164754,1184.329507,-9576.193725
813.638595,2294.638420,2442.679609,-9806.022374
813.638915,4219.173869,2812.782580,-10648.727422
813.639235,2368.659014,1702.473667,-9806.022374
813.639555,-518.144159,370.102971,-9576.193725
813.639876,-814.226536,0.000000,-10189.070123
813.640196,1924.535449,-370.102971,-9576.193725
813.640516,1406.391290,1184.329507,-10035.851024
813.640836,0.000000,1998.556043,-9729.412825
813.641156,1702.473667,2442.679609,-9959.241474
813.641476,2812.782580,1554.432478,-10572.117872
813.641796,2368.659014,740.205942,-10572.117872
813.642116,-592.164754,0.000000,-10035.851024
813.642437,-1332.370696,-518.144159,-9729.412825
813.642757,888.247130,296.082377,-9959.241474
813.643077,3034.844362,1480.411884,-10648.727422
813.643397,2146.597232,888.247130,-10342.289223
813.643717,0.000000,592.164754,-10418.898773
813.644037,1554.432478,518.144159,-10112.460574
813.644357,3849.070898,0.000000,-10878.556072
813.644677,2220.617826,0.000000,-10955.165621
813.644997,-2590.720797,-370.102971,-9269.755526
813.645318,-2072.576638,-1184.329507,-9806.022374
813.645638,814.226536,-1110.308913,-10572.117872
813.645958,1258.350101,-1184.329507,-10265.679673
813.646278,-296.082377,-222.061783,-9806.022374
813.646598,-222.061783,962.267725,-9806.022374
813.646918,740.205942,1184.329507,-10495.508323
813.647238,3478.967927,962.267725,-10265.679673
813.647558,148.041188,0.000000,-9806.022374
813.647879,-3552.988522,-740.205942,-9269.755526
813.648199,-592.164754,-1110.308913,-9652.803275
813.648519,1776.494261,-666.185348,-9806.022374
813.648839,1258.350101,-222.061783,-10189.070123
813.649159,-888.247130,0.000000,-9729.412825
813.649479,-444.123565,-888.247130,-9806.022374
813.649799,1998.556043,296.082377,-10878.556072
813.650119,1776.494261,518.144159,-10418.898773
813.650440,0.000000,1110.308913,-10189.070123
813.650760,-2960.823768,-814.226536,-9729.412825
813.651080,-148.041188,-2368.659014,-9882.631924
813.651400,1480.411884,-1850.514855,-10035.851024
813.651720,296.082377,-740.205942,-10189.070123
813.652040,-740.205942,518.144159,-10572.117872
813.652360,1110.308913,1110.308913,-10648.727422
813.652680,2664.741391,1554.432478,-10801.946522
813.653000,1184.329507,0.000000,-10955.165621
813.653321,-1036.288319,0.000000,-10189.070123
813.653641,-1036.288319,-814.226536,-10342.289223
813.653961,2960.823768,-518.144159,-10189.070123
813.654281,3478.967927,-1184.329507,-10801.946522
813.654601,1110.308913,-444.123565,-10265.679673
813.654921,-666.185348,0.000000,-10035.851024
813.655241,1110.308913,1036.288319,-10112.460574
813.655561,2812.782580,1406.391290,-10648.727422
813.655882,518.144159,2368.659014,-10648.727422
813.656202,-2294.638420,1554.432478,-10189.070123
813.656522,-814.226536,0.000000,-9959.241474
813.656842,1184.329507,-1406.391290,-9806.022374
813.657162,1924.535449,-2146.597232,-9806.022374
813.657482,740.205942,-962.267725,-9576.193725
813.657802,740.205942,1110.308913,-9959.241474
813.658122,2146.597232,2368.659014,-9959.241474
813.658442,1702.473667,2072.576638,-10495.508323
813.658763,-888.247130,1850.514855,-9806.022374
813.659083,-2368.659014,0.000000,-9193.145976
813.659403,-592.164754,-296.082377,-9576.193725
813.659723,888.247130,0.000000,-9729.412825
813.660043,1036.288319,0.000000,-9806.022374
813.660363,-1332.370696,-222.061783,-9806.022374
813.660683,-1480.411884,148.041188,-9882.631924
813.661003,1258.350101,0.000000,-9806.022374
813.661324,1554.432478,-296.082377,-10342.289223
813.661644,-1850.514855,518.144159,-9652.803275
813.661964,-2442.679609,814.226536,-9652.803275
813.662284,962.267725,666.185348,-10112.460574
813.662604,2442.679609,-370.102971,-10878.556072
813.662924,370.102971,-592.164754,-9729.412825
813.663244,-888.247130,-1258.350101,-9576.193725
813.663564,592.164754,0.000000,-10112.460574
813.663885,1776.494261,1480.411884,-10495.508323
813.664205,1184.329507,1776.494261,-10572.117872
813.664525,-2072.576638,2812.782580,-10189.070123
813.664845,-1184.329507,1258.350101,-9882.631924
813.665165,2516.700203,888.247130,-10265.679673
813.665485,3182.885551,0.000000,-10035.851024
813.665805,370.102971,74.020594,-9729.412825
813.666125,-666.185348,666.185348,-10112.460574
813.666445,1406.391290,2146.597232,-9959.241474
813.666766,2442.679609,3034.844362,-10572.117872
813.667086,1184.329507,2516.700203,-9806.022374
813.667406,-962.267725,1332.370696,-9269.755526
813.667726,0.000000,0.000000,-9882.631924
813.668046,2442.679609,-888.247130,-9882.631924
813.668366,1628.453072,-1184.329507,-9652.803275
813.668686,0.000000,-444.123565,-9652.803275
813.669006,666.185348,-444.123565,-9576.193725
813.669327,2960.823768,1480.411884,-10035.851024
813.669647,740.205942,2146.597232,-10418.898773
813.669967,-370.102971,2294.638420,-10189.070123
813.670287,-1480.411884,1332.370696,-10035.851024
813.670607,666.185348,-148.041188,-9882.631924
813.670927,2664.741391,-740.205942,-10035.851024
813.671247,888.247130,-1258.350101,-11184.994271
813.671567,-666.185348,-1110.308913,-9652.803275
813.671888,1554.432478,0.000000,-10035.851024
813.672208,3034.844362,370.102971,-10495.508323
813.672528,1036.288319,1998.556043,-10112.460574
813.672848,-1776.494261,1110.308913,-9959.241474
813.673168,-814.226536,592.164754,-10112.460574
813.673488,1776.494261,0.000000,-10265.679673
813.673808,2738.761985,-1998.556043,-10572.117872
813.674128,0.000000,-666.185348,-9729.412825
813.674448,-1184.329507,-666.185348,-9576.193725
813.674769,1184.329507,222.061783,-10189.070123
813.675089,2812.782580,-444.123565,-10342.289223
813.675409,-888.247130,74.020594,-10265.679673
813.675729,-2886.803174,-1258.350101,-9652.803275
813.676049,592.164754,-444.123565,-9882.631924
813.676369,888.247130,-518.144159,-10112.460574
813.676689,1036.288319,740.205942,-10572.117872
813.677009,-740.205942,1184.329507,-10035.851024
813.677330,-444.123565,-296.082377,-9422.974625
813.677650,1628.453072,-222.061783,-10572.117872
813.677970,888.247130,0.000000,-10035.851024
813.678290,-1406.391290,296.082377,-10035.851024
813.678610,-1406.391290,-222.061783,-9959.241474
813.678930,1184.329507,-1628.453072,-9576.193725
813.679250,2368.659014,-1184.329507,-10648.727422
813.679570,-592.164754,-518.144159,-9959.241474
813.679890,-1628.453072,0.000000,-10265.679673
813.680211,370.102971,1036.288319,-10265.679673
813.680531,2442.679609,888.247130,-10495.508323
813.680851,1554.432478,-148.041188,-10035.851024
813.681171,-2516.700203,-592.164754,-10112.460574
813.681491,-1258.350101,-1258.350101,-10035.851024
813.681811,1850.514855,-740.205942,-9806.022374
813.682131,2516.700203,518.144159,-10725.336972
813.682451,592.164754,1924.535449,-10342.289223
813.682772,296.082377,814.226536,-10112.460574
813.683092,2368.659014,1702.473667,-10572.117872
813.683412,2590.720797,370.102971,-10495.508323
813.683732,740.205942,-148.041188,-10189.070123
813.684052,-1480.411884,-888.247130,-9652.803275
813.684372,296.082377,592.164754,-9499.584175
813.684692,2072.576638,1776.494261,-11031.775171
813.685012,2220.617826,1480.411884,-10342.289223
813.685332,0.000000,1036.288319,-10495.508323
813.685652,444.123565,1184.329507,-9959.241474
813.685972,2368.659014,1702.473667,-10342.289223
813.686292,2368.659014,1184.329507,-10878.556072
813.686612,-888.247130,1184.329507,-9959.241474
813.686932,-2146.597232,0.000000,-9806.022374
813.687252,888.247130,-1036.288319,-9806.022374
813.687572,2960.823768,-814.226536,-10801.946522
813.687892,1184.329507,296.082377,-9959.241474
813.688213,-962.267725,1924.535449,-10112.460574
813.688533,296.082377,2738.761985,-10418.898773
813.688853,1628.453072,3701.029710,-11031.775171
813.689173,370.102971,2072.576638,-10495.508323
813.689493,-2812.782580,222.061783,-9346.365076
813.689813,-1258.350101,-1998.556043,-9806.022374
813.690133,1406.391290,-1332.370696,-9806.022374
813.690453,1850.514855,-1406.391290,-9806.022374
813.690773,-740.205942,-592.164754,-9652.803275
813.691093,-1702.473667,0.000000,-9729.412825
813.691413,148.041188,1258.350101,-9882.631924
813.691733,1702.473667,1184.329507,-10418.898773
813.692053,-1480.411884,1998.556043,-10342.289223
813.692373,-2146.597232,1332.370696,-9576.193725
813.692693,518.144159,-444.123565,-8810.098227
813.693013,2960.823768,-1480.411884,-9882.631924
813.693333,2368.659014,-1850.514855,-9806.022374
813.693653,-518.144159,-666.185348,-9806.022374
813.693973,-296.082377,592.164754,-9806.022374
813.694293,2516.700203,2072.576638,-9959.241474
813.694614,2368.659014,3404.947333,-10265.679673
813.694934,-1110.308913,2738.761985,-9806.022374
813.695254,-1036.288319,962.267725,-10265.679673
813.695574,2220.617826,-370.102971,-10342.289223
813.695894,3330.926739,-962.267725,-10725.336972
813.696214,1406.391290,-666.185348,-10189.070123
813.696534,-296.082377,0.000000,-9882.631924
813.696854,1628.453072,740.205942,-10648.727422
813.697174,2368.659014,2812.782580,-10878.556072
813.697494,-222.061783,2368.659014,-10725.336972
813.697814,-2738.761985,2146.597232,-10112.460574
813.698134,-888.247130,-370.102971,-10189.070123
813.698454,1406.391290,-2294.638420,-10035.851024
813.698774,2664.741391,-2220.617826,-10189.070123
813.699094,296.082377,-814.226536,-9806.022374
813.699414,-296.082377,222.061783,-10189.070123
813.699734,1110.308913,1184.329507,-9882.631924
813.700054,1184.329507,1628.453072,-11031.775171
813.700374,370.102971,1776.494261,-9882.631924
813.700694,-1258.350101,592.164754,-10112.460574
813.701014,1554.432478,-148.041188,-9806.022374
813.701335,3552.988522,-1406.391290,-10112.460574
813.701655,2294.638420,-2294.638420,-9806.022374
813.701975,-1702.473667,-1110.308913,-9576.193725
813.702295,-518.144159,-222.061783,-9576.193725
813.702615,1332.370696,2146.597232,-10112.460574
813.702935,148.041188,1628.453072,-10495.508323
813.703255,-2072.576638,2072.576638,-9499.584175
813.703575,-2664.741391,0.000000,-9499.584175
813.703895,444.123565,-740.205942,-9729.412825
813.704215,1850.514855,-1480.411884,-9959.241474
813.704535,222.061783,-1406.391290,-9806.022374
813.704855,-1036.288319,-962.267725,-9882.631924
813.705175,222.061783,74.020594,-10112.460574
813.705495,2368.659014,1850.514855,-11491.432470
813.705815,444.123565,2368.659014,-10572.117872
813.706135,-2738.761985,1924.535449,-10342.289223
813.706455,-1258.350101,888.247130,-9729.412825
813.706775,1036.288319,-296.082377,-10265.679673
813.707095,2590.720797,-814.226536,-10955.165621
813.707415,888.247130,-666.185348,-10112.460574
813.707736,592.164754,-296.082377,-10035.851024
813.708056,2368.659014,1110.308913,-10725.336972
813.708376,2516.700203,518.144159,-10418.898773
813.708696,-148.041188,1184.329507,-10801.946522
813.709016,-1998.556043,1628.453072,-10112.460574
813.709336,-148.041188,962.267725,-10035.851024
813.709656,2294.638420,-444.123565,-10878.556072
813.709976,3404.947333,-1184.329507,-10342.289223
813.710296,962.267725,-740.205942,-10035.851024
813.710616,1480.411884,-222.061783,-10035.851024
813.710936,1998.556043,740.205942,-10189.070123
813.711256,1110.308913,1480.411884,-10342.289223
813.711576,-888.247130,2368.659014,-9882.631924
813.711896,-1924.535449,666.185348,-9652.803275
813.712216,1258.350101,592.164754,-9729.412825
813.712536,2072.576638,-1184.329507,-9959.241474
813.712856,962.267725,-1184.329507,-9499.584175
813.713176,-666.185348,-962.267725,-9806.022374
813.713496,148.041188,1258.350101,-10265.679673
813.713816,2072.576638,1554.432478,-10265.679673
813.714137,222.061783,1924.535449,-10112.460574
813.714457,-3034.844362,2072.576638,-9806.022374
813.714777,-740.205942,1924.535449,-10035.851024
813.715097,1628.453072,666.185348,-10342.289223
813.715417,1554.432478,-1110.308913,-10265.679673
813.715737,-1554.432478,-740.205942,-9652.803275
813.716057,-1628.453072,-1184.329507,-9882.631924
813.716377,1036.288319,148.041188,-9959.241474
813.716697,1776.494261,518.144159,-11031.775171
813.717017,666.185348,1702.473667,-10189.070123
813.717337,-2738.761985,1184.329507,-9806.022374
813.717657,148.041188,-814.226536,-9882.631924
813.717977,2368.659014,-1332.370696,-10418.898773
813.718297,814.226536,-1110.308913,-9806.022374
813.718617,-740.205942,-148.041188,-9959.241474
813.718937,-888.247130,222.061783,-10265.679673
813.719257,1332.370696,888.247130,-10725.336972
813.719577,518.144159,296.082377,-10495.508323
813.719897,-2294.638420,962.267725,-9422.974625
813.720217,-3256.906145,0.000000,-9729.412825
813.720538,1554.432478,518.144159,-9806.022374
813.720858,2368.659014,-148.041188,-10189.070123
813.721178,592.164754,0.000000,-9806.022374
813.721498,-814.226536,-1036.288319,-9652.803275
813.721818,1776.494261,-888.247130,-9806.022374
813.722138,3330.926739,814.226536,-9959.241474
813.722458,3034.844362,2294.638420,-10495.508323
813.722778,666.185348,3701.029710,-10035.851024
813.723098,-444.123565,1184.329507,-9806.022374
813.723418,0.000000,-740.205942,-9806.022374
813.723738,962.267725,-2368.659014,-9499.584175
813.724058,0.000000,-2516.700203,-8733.488677
813.724378,370.102971,-1036.288319,-10189.070123
813.724698,2368.659014,370.102971,-9959.241474
813.725018,3108.864956,1332.370696,-11031.775171
813.725338,888.247130,962.267725,-10495.508323
813.725658,-2072.576638,1184.329507,-10265.679673
813.725978,-1110.308913,1332.370696,-9959.241474
813.726298,2146.597232,1776.494261,-10112.460574
813.726618,3108.864956,666.185348,-10648.727422
813.726938,2442.679609,666.185348,-10189.070123
813.727259,2812.782580,74.020594,-10189.070123
813.727579,2960.823768,148.041188,-10572.117872
813.727899,2812.782580,1554.432478,-10955.165621
813.728219,74.020594,3256.906145,-9806.022374
813.728539,-1036.288319,3182.885551,-10418.898773
813.728859,740.205942,1702.473667,-9882.631924
813.729179,2220.617826,-518.144159,-10035.851024
813.729499,1184.329507,-1998.556043,-9729.412825
813.729819,222.061783,-1998.556043,-9652.803275
813.730139,1184.329507,-1628.453072,-9576.193725
813.730459,2516.700203,814.226536,-10035.851024
813.730779,1924.535449,1850.514855,-9882.631924
813.731099,-1036.288319,1702.473667,-9346.365076
813.731419,-1998.556043,962.267725,-9576.193725
813.731739,0.000000,370.102971,-9806.022374
813.732059,1036.288319,444.123565,-10035.851024
813.732379,0.000000,-148.041188,-9652.803275
813.732699,-1184.329507,-1924.535449,-9576.193725
813.733019,148.041188,-370.102971,-10035.851024
813.733339,444.123565,740.205942,-10342.289223
813.733660,-2220.617826,1258.350101,-10112.460574
813.733980,-3108.864956,1110.308913,-9806.022374
813.734300,-1406.391290,444.123565,-10265.679673
813.734620,518.144159,518.144159,-10265.679673
813.734940,-518.144159,-222.061783,-10342.289223
813.735260,-2960.823768,0.000000,-10265.679673
813.735580,-2294.638420,370.102971,-10265.679673
813.735900,1184.329507,1702.473667,-10648.727422
813.736220,1184.329507,1628.453072,-11108.384721
813.736540,-1776.494261,444.123565,-10418.898773
813.736860,-1924.535449,-1110.308913,-9729.412825
813.737180,0.000000,-1850.514855,-9652.803275
813.737500,2294.638420,-962.267725,-11031.775171
813.737820,1258.350101,518.144159,-10189.070123
813.738140,-222.061783,666.185348,-9806.022374
813.738460,1258.350101,1184.329507,-9806.022374
813.738780,3552.988522,962.267725,-10648.727422
813.739100,2516.700203,222.061783,-10342.289223
813.739420,-962.267725,592.164754,-10035.851024
813.739740,-222.061783,740.205942,-10418.898773
813.740061,1924.535449,-444.123565,-9729.412825
813.740381,2812.782580,-2072.576638,-9882.631924
813.740701,1110.308913,-2664.741391,-9422.974625
813.741021,370.102971,-2072.576638,-8503.660028
813.741341,2220.617826,740.205942,-9806.022374
813.741661,3182.885551,2664.741391,-10878.556072
813.741981,1184.329507,2146.597232,-10189.070123
813.742301,-1110.308913,0.000000,-9882.631924
813.742621,370.102971,-740.205942,-9652.803275
813.742941,2146.597232,-1332.370696,-10035.851024
813.743261,666.185348,-2220.617826,-10189.070123
813.743581,-518.144159,-1110.308913,-10035.851024
813.743901,-148.041188,0.000000,-10418.898773
813.744221,1702.473667,1258.350101,-10418.898773
813.744541,1406.391290,1332.370696,-10801.946522
813.744861,-1480.411884,1628.453072,-10725.336972
813.745181,-2368.659014,1258.350101,-10265.679673
813.745501,-370.102971,1554.432478,-10572.117872
813.745821,1776.494261,740.205942,-10955.165621
813.746141,888.247130,518.144159,-10265.679673
813.746462,-1258.350101,0.000000,-10418.898773
813.746782,-962.267725,148.041188,-10035.851024
813.747102,518.144159,2072.576638,-10955.165621
813.747422,-518.144159,1998.556043,-10265.679673
813.747742,-3552.988522,1406.391290,-9652.803275
813.748062,-3034.844362,0.000000,-9959.241474
813.748382,296.082377,-592.164754,-9499.584175
813.748702,666.185348,-444.123565,-10189.070123
813.749022,-1702.473667,444.123565,-9652.803275
813.749342,-1184.329507,1036.288319,-9806.022374
813.749662,222.061783,1406.391290,-9576.193725
813.749982,2812.782580,2368.659014,-10725.336972
813.750302,74.020594,1036.288319,-9499.584175
813.750622,-1110.308913,222.061783,-9729.412825
813.750942,-222.061783,-740.205942,-8886.707777
813.751262,2886.803174,-1258.350101,-10265.679673
813.751582,2294.638420,-666.185348,-9806.022374
813.751902,-518.144159,148.041188,-9499.584175
813.752222,-1036.288319,962.267725,-9346.365076
813.752542,2294.638420,3552.988522,-11261.603821
813.752862,3108.864956,3552.988522,-10725.336972
813.753183,148.041188,2368.659014,-10265.679673
813.753503,0.000000,370.102971,-9806.022374
813.753823,1554.432478,-1628.453072,-10801.946522
813.754143,4293.194464,-1924.535449,-10801.946522
813.754463,2220.617826,-296.082377,-10342.289223
813.754783,148.041188,1850.514855,-10495.508323
813.755103,1110.308913,3627.009116,-10572.117872
813.755423,2960.823768,4219.173869,-11108.384721
813.755743,2072.576638,3478.967927,-10955.165621
813.756063,-148.041188,1184.329507,-10418.898773
813.756383,296.082377,-1702.473667,-10035.851024
813.756703,3552.988522,-2664.741391,-10035.851024
813.757023,4071.132681,-2738.761985,-10035.851024
813.757343,1554.432478,-888.247130,-10265.679673
813.757663,444.123565,1036.288319,-10112.460574
813.757983,2516.700203,3627.009116,-10725.336972
813.758303,2960.823768,4589.276840,-10955.165621
813.758623,888.247130,2960.823768,-10418.898773
813.758943,-1776.494261,74.020594,-9806.022374
813.759263,-296.082377,-3330.926739,-9576.193725
813.759584,2368.659014,-4219.173869,-9193.145976
813.759904,370.102971,-3701.029710,-9499.584175
813.760224,-2072.576638,-1702.473667,-9422.974625
813.760544,-1332.370696,666.185348,-9576.193725
813.760864,814.226536,2442.679609,-10189.070123
813.761184,888.247130,2812.782580,-9116.536426
813.761504,-2664.741391,1998.556043,-9652.803275
813.761824,-2960.823768,-666.185348,-9499.584175
813.762144,1184.329507,-1998.556043,-9806.022374
813.762464,2738.761985,-3404.947333,-10112.460574
813.762784,592.164754,-2368.659014,-9576.193725
813.763104,-2368.659014,-1480.411884,-9729.412825
813.763424,-888.247130,370.102971,-10035.851024
813.763744,1184.329507,2516.700203,-10878.556072
813.764064,740.205942,3775.050304,-11031.775171
813.764384,-2220.617826,2146.597232,-10265.679673
813.764704,-592.164754,-148.041188,-10189.070123
813.765024,962.267725,-2442.679609,-10189.070123
813.765344,2146.597232,-3701.029710,-10342.289223
813.765664,-962.267725,-2220.617826,-9806.022374
813.765985,-1998.556043,-666.185348,-9806.022374
813.766305,518.144159,2220.617826,-10878.556072
813.766625,2590.720797,4071.132681,-11261.603821
813.766945,148.041188,2516.700203,-10725.336972
813.767265,-2368.659014,1036.288319,-10495.508323
813.767585,518.144159,-1184.329507,-9806.022374
813.767905,2812.782580,-2442.679609,-10265.679673
813.768225,3034.844362,-2072.576638,-9959.241474
813.768545,-444.123565,-1628.453072,-9116.536426
813.768865,-518.144159,-148.041188,-9959.241474
813.769185,2072.576638,1850.514855,-10189.070123
813.769505,2146.597232,3330.926739,-10725.336972
813.769825,-1036.288319,3182.885551,-9959.241474
813.770145,-740.205942,1850.514855,-9806.022374
813.770465,1110.308913,-518.144159,-9499.584175
813.770785,2442.679609,-3182.885551,-9729.412825
813.771105,148.041188,-4145.153275,-9269.755526
813.771425,0.000000,-1924.535449,-9193.145976
813.771745,962.267725,444.123565,-9729.412825
813.772065,2886.803174,2738.761985,-10189.070123
813.772385,1702.473667,2664.741391,-10189.070123
813.772706,-1850.514855,2146.597232,-10035.851024
813.773026,-1554.432478,-296.082377,-9422.974625
813.773346,1332.370696,-1332.370696,-9576.193725
813.773666,2072.576638,-1702.473667,-10112.460574
813.773986,148.041188,-888.247130,-9959.241474
813.774306,-370.102971,-1258.350101,-10035.851024
813.774626,1924.535449,296.082377,-10035.851024
813.774946,1998.556043,962.267725,-10495.508323
813.775266,0.000000,2442.679609,-10418.898773
813.775586,-2738.761985,2886.803174,-10265.679673
813.775906,-1406.391290,1924.535449,-10801.946522
813.776226,592.164754,222.061783,-10418.898773
813.776546,-296.082377,-148.041188,-10495.508323
813.776866,-1258.350101,-222.061783,-10112.460574
813.777186,444.123565,740.205942,-10342.289223
813.777506,2664.741391,1850.514855,-11108.384721
813.777826,2812.782580,2516.700203,-10495.508323
813.778146,-444.123565,2812.782580,-10572.117872
813.778466,-2220.617826,1628.453072,-9729.412825
813.778786,74.020594,814.226536,-10265.679673
813.779107,2516.700203,222.061783,-10189.070123
813.779427,1554.432478,444.123565,-10035.851024
813.779747,1258.350101,-518.144159,-9806.022374
813.780067,1480.411884,-888.247130,-9499.584175
813.780387,2664.741391,0.000000,-9806.022374
813.780707,666.185348,592.164754,-9499.584175
813.781027,-1776.494261,1702.473667,-9499.584175
813.781347,-1332.370696,1998.556043,-9346.365076
813.781667,962.267725,962.267725,-9499.584175
813.781987,1554.432478,-814.226536,-9576.193725
813.782307,-518.144159,-2072.576638,-9346.365076
813.782627,-444.123565,-1924.535449,-9346.365076
813.782947,2220.617826,-222.061783,-9806.022374
813.783267,2442.679609,1332.370696,-10265.679673
813.783587,1258.350101,2886.803174,-10189.070123
813.783907,-1110.308913,1850.514855,-10035.851024
813.784228,0.000000,1924.535449,-10495.508323
813.784548,1480.411884,888.247130,-10418.898773
813.784868,2294.638420,370.102971,-10878.556072
813.785188,0.000000,-296.082377,-10112.460574
813.785508,370.102971,-370.102971,-10265.679673
813.785828,2220.617826,148.041188,-10648.727422
813.786148,1998.556043,444.123565,-10342.289223
813.786468,-370.102971,1554.432478,-10725.336972
813.786788,-1184.329507,1258.350101,-11568.042020
813.787108,222.061783,1628.453072,-10801.946522
813.787428,666.185348,1184.329507,-10878.556072
813.787749,-592.164754,0.000000,-10112.460574
813.788069,-370.102971,-592.164754,-10495.508323
813.788389,1184.329507,-1332.370696,-10265.679673
813.788709,3330.926739,-740.205942,-10801.946522
813.789029,1702.473667,0.000000,-10648.727422
813.789349,-1332.370696,592.164754,-9806.022374
813.789669,-222.061783,370.102971,-10035.851024
813.789989,1184.329507,814.226536,-9882.631924
813.790309,1998.556043,-592.164754,-10035.851024
813.790629,814.226536,-1258.350101,-9806.022374
813.790950,222.061783,-1332.370696,-9116.536426
813.791270,1776.494261,-1406.391290,-9806.022374
813.791590,2812.782580,-296.082377,-10035.851024
813.791910,666.185348,-148.041188,-9729.412825
813.792230,-444.123565,-666.185348,-9499.584175
813.792550,518.144159,296.082377,-9806.022374
813.792870,1332.370696,-148.041188,-10112.460574
813.793190,1406.391290,-370.102971,-10495.508323
813.793510,-370.102971,-740.205942,-9882.631924
813.793830,592.164754,0.000000,-9652.803275
813.794150,2072.576638,1258.350101,-10725.336972
813.794471,1332.370696,1406.391290,-10878.556072
813.794791,-370.102971,1776.494261,-10342.289223
813.795111,-1924.535449,814.226536,-9959.241474
813.795431,-740.205942,-370.102971,-10418.898773
813.795751,74.020594,-1184.329507,-10418.898773
813.796071,-666.185348,-888.247130,-10112.460574
813.796391,-1406.391290,-370.102971,-9959.241474
813.796711,296.082377,370.102971,-10189.070123
813.797031,2220.617826,1036.288319,-10572.117872
813.797351,0.000000,740.205942,-10495.508323
813.797671,-1924.535449,740.205942,-10112.460574
813.797992,-2146.597232,592.164754,-9882.631924
813.798312,444.123565,-666.185348,-10112.460574
813.798632,814.226536,-1184.329507,-10035.851024
813.798952,-962.267725,-740.205942,-9959.241474
813.799272,-592.164754,-1332.370696,-9499.584175
813.799592,2516.700203,-296.082377,-9499.584175
813.799912,2516.700203,148.041188,-10725.336972
813.800232,0.000000,1480.411884,-9959.241474
813.800552,-2516.700203,1406.391290,-10035.851024
813.800872,-296.082377,592.164754,-9959.241474
813.801193,1924.535449,0.000000,-9806.022374
813.801513,1110.308913,-1332.370696,-9882.631924
813.801833,296.082377,-962.267725,-9499.584175
813.802153,370.102971,-296.082377,-9806.022374
813.802473,3256.906145,1924.535449,-10342.289223
813.802793,3701.029710,3330.926739,-10801.946522
813.803113,148.041188,2812.782580,-10112.460574
813.803433,-1332.370696,1258.350101,-9806.022374
813.803753,592.164754,518.144159,-10265.679673
813.804073,2368.659014,0.000000,-10265.679673
813.804393,592.164754,-148.041188,-10112.460574
813.804714,-1554.432478,222.061783,-9806.022374
813.805034,-222.061783,1332.370696,-9806.022374
813.805354,1998.556043,2960.823768,-10801.946522
813.805674,0.000000,1628.453072,-10725.336972
813.805994,-222.061783,1184.329507,-9882.631924
813.806314,-592.164754,666.185348,-9806.022374
813.806634,1628.453072,518.144159,-9806.022374
813.806954,1850.514855,296.082377,-10189.070123
813.807274,0.000000,666.185348,-10035.851024
813.807594,592.164754,296.082377,-9729.412825
813.807915,1850.514855,962.267725,-10418.898773
813.808235,2886.803174,1480.411884,-10035.851024
813.808555,1036.288319,1850.514855,-10648.727422
813.808875,-962.267725,1110.308913,-10265.679673
813.809195,-444.123565,1628.453072,-10418.898773
813.809515,888.247130,592.164754,-10955.165621
813.809835,-740.205942,-814.226536,-9576.193725
813.810155,-1924.535449,-1110.308913,-9576.193725
813.810475,-518.144159,-962.267725,-9346.365076
813.810795,2738.761985,296.082377,-10265.679673
813.811115,2072.576638,1036.288319,-10342.289223
813.811436,-666.185348,1480.411884,-10495.508323
813.811756,-1480.411884,2220.617826,-10112.460574
813.812076,0.000000,2072.576638,-10495.508323
813.812396,1110.308913,296.082377,-10418.898773
813.812716,148.041188,-370.102971,-9882.631924
813.813036,-1184.329507,-1110.308913,-10112.460574
813.813356,814.226536,-1924.535449,-9806.022374
813.813676,2368.659014,-1554.432478,-10112.460574
813.813996,888.247130,-518.144159,-10572.117872
813.814316,-1998.556043,444.123565,-9959.241474
813.814636,-1924.535449,814.226536,-9882.631924
813.814957,-148.041188,666.185348,-10189.070123
813.815277,1776.494261,370.102971,-10418.898773
813.815597,0.000000,-370.102971,-9882.631924
813.815917,370.102971,-1406.391290,-10112.460574
813.816237,2738.761985,-1110.308913,-10265.679673
813.816557,3330.926739,-296.082377,-10648.727422
813.816877,962.267725,148.041188,-10112.460574
813.817197,-962.267725,74.020594,-10112.460574
813.817517,444.123565,-592.164754,-9959.241474
813.817837,2442.679609,0.000000,-9959.241474
813.818158,1850.514855,-222.061783,-10725.336972
813.818478,222.061783,-296.082377,-10342.289223
813.818798,370.102971,-518.144159,-9959.241474
813.819118,2294.638420,-592.164754,-10342.289223
813.819438,3256.906145,296.082377,-10418.898773
813.819758,222.061783,1258.350101,-9959.241474
813.820078,0.000000,1184.329507,-9959.241474
813.820398,1628.453072,518.144159,-9959.241474
813.820718,2442.679609,-222.061783,-10342.289223
813.821038,0.000000,-1184.329507,-9806.022374
813.821358,-518.144159,-1184.329507,-9729.412825
813.821679,518.144159,-518.144159,-10189.070123
813.821999,2590.720797,888.247130,-10265.679673
813.822319,2812.782580,962.267725,-10878.556072
813.822639,-222.061783,1258.350101,-9959.241474
813.822959,-1110.308913,0.000000,-9806.022374
813.823279,1036.288319,-592.164754,-10265.679673
813.823599,1258.350101,-1998.556043,-10035.851024
813.823919,-444.123565,-1702.473667,-9576.193725
813.824239,-1850.514855,-222.061783,-9806.022374
813.824559,370.102971,1406.391290,-10342.289223
813.824879,1776.494261,2294.638420,-10648.727422
813.825200,-592.164754,2220.617826,-9346.365076
813.825520,-2812.782580,1554.432478,-9806.022374
813.825840,-2294.638420,-296.082377,-9729.412825
813.826160,222.061783,-1332.370696,-9882.631924
813.826480,518.144159,-1258.350101,-9882.631924
813.826800,-370.102971,-74.020594,-9269.755526
813.827120,74.020594,740.205942,-10035.851024
813.827440,1924.535449,1776.494261,-10418.898773
813.827760,1258.350101,1998.556043,-10189.070123
813.828080,-1776.494261,2294.638420,-9882.631924
813.828401,-2368.659014,1036.288319,-9729.412825
813.828721,-296.082377,0.000000,-9806.022374
813.829041,666.185348,0.000000,-10035.851024
813.829361,-592.164754,0.000000,-9882.631924
813.829681,-2368.659014,666.185348,-9959.241474
813.830001,0.000000,740.205942,-10035.851024
813.830321,1628.453072,1702.473667,-10418.898773
813.830641,370.102971,1776.494261,-10342.289223
813.830961,-1110.308913,1702.473667,-9576.193725
813.831281,148.041188,222.061783,-10112.460574
813.831601,2368.659014,0.000000,-10035.851024
813.831922,1776.494261,-962.267725,-9882.631924
813.832242,-666.185348,-296.082377,-9576.193725
813.832562,-148.041188,518.144159,-9729.412825
813.832882,2812.782580,2072.576638,-10495.508323
813.833202,3627.009116,2812.782580,-10725.336972
813.833522,148.041188,2294.638420,-10189.070123
813.833842,-740.205942,1776.494261,-9576.193725
813.834162,518.144159,888.247130,-10112.460574
813.834482,3034.844362,740.205942,-10418.898773
813.834802,2442.679609,0.000000,-10112.460574
813.835122,74.020594,-370.102971,-9652.803275
813.835443,962.267725,-370.102971,-9806.022374
813.835763,2442.679609,1258.350101,-10418.898773
813.836083,2886.803174,2886.803174,-10648.727422
813.836403,296.082377,3256.906145,-10572.117872
813.836723,-740.205942,2516.700203,-10342.289223
813.837043,2294.638420,888.247130,-10342.289223
813.837363,2590.720797,-518.144159,-10725.336972
813.837683,296.082377,-1258.350101,-10112.460574
813.838003,-1406.391290,-740.205942,-11031.775171
813.838323,-222.061783,592.164754,-10418.898773
813.838644,2294.638420,1702.473667,-10572.117872
813.838964,1924.535449,2072.576638,-10725.336972
813.839284,-888.247130,1554.432478,-10418.898773
813.839604,-814.226536,148.041188,-10035.851024
813.839924,74.020594,-1332.370696,-9806.022374
813.840244,0.000000,-2294.638420,-10342.289223
813.840564,-1998.556043,-1110.308913,-9729.412825
813.840884,-1628.453072,-814.226536,-9729.412825
813.841204,1776.494261,1554.432478,-10495.508323
813.841524,1850.514855,2368.659014,-10801.946522
813.841844,-666.185348,2220.617826,-10418.898773
813.842165,-2368.659014,1480.411884,-9729.412825
813.842485,0.000000,-740.205942,-9729.412825
813.842805,1776.494261,-2368.659014,-9729.412825
813.843125,1036.288319,-2664.741391,-9806.022374
813.843445,-666.185348,-2294.638420,-9193.145976
813.843765,-666.185348,-814.226536,-9652.803275
813.844085,1258.350101,1628.453072,-10418.898773
813.844405,222.061783,2146.597232,-10265.679673
813.844725,-1554.432478,2072.576638,-9959.241474
813.845045,-2590.720797,296.082377,-9652.803275
813.845366,814.226536,-814.226536,-9806.022374
813.845686,2960.823768,-1258.350101,-10265.679673
813.846006,1554.432478,-1702.473667,-10035.851024
813.846326,0.000000,-444.123565,-9806.022374
813.846646,962.267725,592.164754,-10189.070123
813.846966,2812.782580,1332.370696,-10955.165621
813.847286,1628.453072,1110.308913,-10801.946522
813.847606,-1184.329507,1184.329507,-10112.460574
813.847926,-370.102971,1036.288319,-9882.631924
813.848246,2368.659014,370.102971,-10342.289223
813.848566,2738.761985,-1036.288319,-10648.727422
813.848887,592.164754,-1184.329507,-10265.679673
813.849207,-370.102971,-2442.679609,-10035.851024
813.849527,2664.741391,-1554.432478,-9806.022374
813.849847,3256.906145,370.102971,-10725.336972
813.850167,1628.453072,1258.350101,-10112.460574
813.850487,-814.226536,1628.453072,-10035.851024
813.850807,-148.041188,518.144159,-9806.022374
813.851127,1998.556043,-1110.308913,-9806.022374
813.851447,1332.370696,-2368.659014,-9806.022374
813.851767,222.061783,-2442.679609,-9422.974625
813.852087,962.267725,-1332.370696,-9422.974625
813.852408,3552.988522,0.000000,-10112.460574
813.852728,3182.885551,444.123565,-9959.241474
813.853048,1258.350101,888.247130,-9959.241474
813.853368,-296.082377,740.205942,-9576.193725
813.853688,1332.370696,-148.041188,-9959.241474
813.854008,3182.885551,-296.082377,-9882.631924
813.854328,1776.494261,-1850.514855,-10495.508323
813.854648,222.061783,-2072.576638,-9806.022374
813.854968,592.164754,-1628.453072,-10112.460574
813.855288,1036.288319,0.000000,-10265.679673
813.855609,-740.205942,1702.473667,-10418.898773
813.855929,-2812.782580,2812.782580,-10418.898773
813.856249,-2516.700203,2738.761985,-10648.727422
813.856569,814.226536,1480.411884,-10572.117872
813.856889,1776.494261,-296.082377,-10725.336972
813.857209,-74.020594,-1924.535449,-9959.241474
813.857529,-518.144159,-1850.514855,-10342.289223
813.857849,-444.123565,-740.205942,-10418.898773
813.858169,74.020594,1480.411884,-10572.117872
813.858489,-3182.885551,2220.617826,-10878.556072
813.858809,-5995.668130,1554.432478,-10189.070123
813.859130,-5403.503377,666.185348,-10112.460574
813.859450,-2738.761985,74.020594,-9193.145976
813.859770,-1480.411884,-222.061783,-9729.412825
813.860090,-1924.535449,-740.205942,-9882.631924
813.860410,-1628.453072,-666.185348,-9576.193725
813.860730,0.000000,0.000000,-9806.022374
813.861050,-1332.370696,296.082377,-9499.584175
813.861370,-1776.494261,1258.350101,-9269.755526
813.861690,-1628.453072,666.185348,-9422.974625
813.862010,1628.453072,74.020594,-9269.755526
813.862330,1628.453072,-148.041188,-9729.412825
813.862651,592.164754,296.082377,-9269.755526
813.862971,0.000000,1702.473667,-9422.974625
813.863291,1998.556043,2220.617826,-9652.803275
813.863611,3923.091493,2072.576638,-10495.508323
813.863931,2368.659014,1332.370696,-9806.022374
813.864251,-592.164754,74.020594,-9806.022374
813.864571,-222.061783,0.000000,-9959.241474
813.864891,1850.514855,148.041188,-10342.289223
813.865211,3997.112087,962.267725,-10648.727422
813.865531,2294.638420,1480.411884,-10495.508323
813.865852,1776.494261,2220.617826,-10648.727422
813.866172,2368.659014,1702.473667,-11108.384721
813.866492,2590.720797,1554.432478,-11184.994271
813.866812,1554.432478,2072.576638,-11031.775171
813.867132,0.000000,2146.597232,-10801.946522
813.867452,2442.679609,2072.576638,-11108.384721
813.867772,5033.400406,1332.370696,-11414.822920
813.868092,3627.009116,-296.082377,-10572.117872
813.868412,1480.411884,-592.164754,-9806.022374
813.868732,1702.473667,0.000000,-9729.412825
813.869052,3997.112087,1036.288319,-10648.727422
813.869373,3552.988522,1258.350101,-9269.755526
813.869693,-814.226536,444.123565,-9959.241474
813.870013,-1332.370696,-148.041188,-9193.145976
813.870333,1332.370696,-444.123565,-9806.022374
813.870653,2072.576638,-666.185348,-9576.193725
813.870973,1406.391290,-962.267725,-10112.460574
813.871293,222.061783,-1036.288319,-9346.365076
813.871613,0.000000,-1628.453072,-9039.926876
813.871933,1406.391290,-518.144159,-9499.584175
813.872253,-444.123565,592.164754,-10342.289223
813.872574,-2442.679609,888.247130,-9806.022374
813.872894,-2590.720797,370.102971,-9576.193725
813.873214,-222.061783,518.144159,-9806.022374
813.873534,0.000000,-666.185348,-9422.974625
813.873854,-1184.329507,0.000000,-9806.022374
813.874174,-666.185348,-592.164754,-9806.022374
813.874494,-370.102971,518.144159,-10418.898773
813.874814,0.000000,1406.391290,-11184.994271
813.875134,-2368.659014,666.185348,-10801.946522
813.875454,-3627.009116,-444.123565,-9882.631924
813.875774,-2368.659014,-1036.288319,-10265.679673
813.876095,518.144159,-1184.329507,-10572.117872
813.876415,-444.123565,0.000000,-10725.336972
813.876735,-1628.453072,74.020594,-10418.898773
813.877055,-666.185348,518.144159,-10265.679673
813.877375,1998.556043,1776.494261,-11568.042020
813.877695,740.205942,1480.411884,-11108.384721
813.878015,-1702.473667,666.185348,-9269.755526
813.878335,-1702.473667,0.000000,-9959.241474
813.878655,1554.432478,-148.041188,-10342.289223
813.878975,3552.988522,-740.205942,-10495.508323
813.879295,1184.329507,-592.164754,-9959.241474
813.879616,-962.267725,-592.164754,-9652.803275
813.879936,0.000000,-222.061783,-9652.803275
813.880256,1628.453072,962.267725,-10189.070123
813.880576,592.164754,1702.473667,-10112.460574
813.880896,-1850.514855,1406.391290,-10112.460574
813.881216,0.000000,-296.082377,-9422.974625
813.881536,3923.091493,-1258.350101,-9499.584175
813.881856,3775.050304,-2072.576638,-10035.851024
813.882176,222.061783,-1406.391290,-10189.070123
813.882496,-370.102971,-74.020594,-9499.584175
813.882817,2516.700203,1628.453072,-9882.631924
813.883137,3701.029710,1628.453072,-10495.508323
813.883457,1406.391290,1036.288319,-9959.241474
813.883777,74.020594,-814.226536,-9193.145976
813.884097,2220.617826,-1628.453072,-9806.022374
813.884417,4515.256246,-888.247130,-10112.460574
813.884737,2590.720797,148.041188,-10648.727422
813.885057,0.000000,1702.473667,-10189.070123
813.885377,296.082377,1554.432478,-10572.117872
813.885697,2294.638420,2368.659014,-11184.994271
813.886017,2442.679609,1702.473667,-10878.556072
813.886337,-666.185348,962.267725,-10342.289223
813.886657,-814.226536,444.123565,-10189.070123
813.886977,2072.576638,0.000000,-10112.460574
813.887297,2738.761985,222.061783,-10725.336972
813.887617,444.123565,74.020594,-10265.679673
813.887937,-1850.514855,518.144159,-10189.070123
813.888257,518.144159,1850.514855,-10035.851024
813.888577,2442.679609,3330.926739,-10648.727422
813.888897,1184.329507,3849.070898,-10418.898773
813.889216,-1258.350101,1776.494261,-10112.460574
813.889536,0.000000,-444.123565,-10418.898773
813.889856,2294.638420,-1184.329507,-9959.241474
813.890176,814.226536,-1036.288319,-9882.631924
813.890496,-2220.617826,0.000000,-9346.365076
813.890816,-2368.659014,74.020594,-9576.193725
813.891136,444.123565,2368.659014,-9959.241474
813.891456,1924.535449,3034.844362,-10418.898773
813.891776,-1036.288319,1776.494261,-9422.974625
813.892096,-1628.453072,814.226536,-9269.755526
813.892416,148.041188,-1184.329507,-9652.803275
813.892736,2442.679609,-1184.329507,-10112.460574
813.893056,370.102971,-2072.576638,-9652.803275
813.893376,-3108.864956,-962.267725,-9576.193725
813.893696,-1998.556043,1110.308913,-9806.022374
813.894016,962.267725,3108.864956,-10725.336972
813.894336,888.247130,3701.029710,-11108.384721
813.894656,-2220.617826,2442.679609,-10418.898773
813.894976,-1776.494261,-222.061783,-10342.289223
813.895295,1554.432478,-1332.370696,-10112.460574
813.895615,2146.597232,-2886.803174,-10265.679673
813.895935,-518.144159,-1702.473667,-10265.679673
813.896255,-2072.576638,-444.123565,-10112.460574
813.896575,148.041188,1628.453072,-10648.727422
813.896895,2516.700203,2738.761985,-10955.165621
813.897215,888.247130,2664.741391,-10648.727422
813.897535,-1258.350101,1480.411884,-10418.898773
813.897855,296.082377,0.000000,-10265.679673
813.898175,2590.720797,-1776.494261,-10035.851024
813.898495,2072.576638,-3034.844362,-10342.289223
813.898815,-1258.350101,-2738.761985,-9422.974625
813.899135,-1628.453072,-1998.556043,-9499.584175
813.899455,1776.494261,444.123565,-9729.412825
813.899775,3330.926739,1850.514855,-10342.289223
813.900095,1036.288319,1850.514855,-10035.851024
813.900415,-518.144159,1480.411884,-9806.022374
813.900735,1184.329507,0.000000,-9806.022374
813.901054,2146.597232,-2442.679609,-9729.412825
813.901374,1924.535449,-2664.741391,-9729.412825
813.901694,0.000000,-2442.679609,-9576.193725
813.902014,740.205942,-2220.617826,-9346.365076
813.902334,2146.597232,-296.082377,-9959.241474
813.902654,1554.432478,1258.350101,-10342.289223
813.902974,-1110.308913,2368.659014,-9959.241474
813.903294,0.000000,2368.659014,-10342.289223
813.903614,2664.741391,1998.556043,-10265.679673
813.903934,3849.070898,-296.082377,-10189.070123
813.904254,2220.617826,-2072.576638,-10265.679673
813.904574,518.144159,-3034.844362,-9806.022374
813.904894,1628.453072,-1480.411884,-9806.022374
813.905214,3182.885551,1110.308913,-10112.460574
813.905534,1628.453072,3478.967927,-10572.117872
813.905854,-1332.370696,3330.926739,-10572.117872
813.906174,-814.226536,1998.556043,-10342.289223
813.906494,888.247130,222.061783,-10495.508323
813.906814,592.164754,-1480.411884,-10189.070123
813.907133,-1628.453072,-2442.679609,-9882.631924
813.907453,-1628.453072,-2220.617826,-10112.460574
813.907773,222.061783,-222.061783,-10112.460574
813.908093,1258.350101,2812.782580,-10878.556072
813.908413,-666.185348,2220.617826,-10189.070123
813.908733,-1406.391290,2442.679609,-10265.679673
813.909053,0.000000,666.185348,-10418.898773
813.909373,2220.617826,-518.144159,-9729.412825
813.909693,1184.329507,-2294.638420,-9882.631924
813.910013,-1110.308913,-1924.535449,-9499.584175
813.910333,-370.102971,-1036.288319,-9652.803275
813.910653,1850.514855,518.144159,-10112.460574
813.910973,1850.514855,740.205942,-10418.898773
813.911293,-1036.288319,1184.329507,-9806.022374
813.911613,-1480.411884,592.164754,-10035.851024
813.911933,0.000000,222.061783,-9959.241474
813.912253,0.000000,-444.123565,-9806.022374
813.912573,-2442.679609,-222.061783,-9806.022374
813.912892,-3330.926739,222.061783,-9576.193725
813.913212,0.000000,1036.288319,-9959.241474
813.913532,3182.885551,1702.473667,-10648.727422
813.913852,1998.556043,1110.308913,-9576.193725
813.914172,-962.267725,1036.288319,-9806.022374
813.914492,370.102971,148.041188,-9882.631924
813.914812,2294.638420,0.000000,-10265.679673
813.915132,1628.453072,148.041188,-10189.070123
813.915452,222.061783,0.000000,-9882.631924
813.915772,370.102971,-666.185348,-10112.460574
813.916092,2368.659014,888.247130,-10265.679673
813.916412,2146.597232,2072.576638,-11031.775171
813.916732,148.041188,3478.967927,-10495.508323
813.917052,370.102971,2146.597232,-10572.117872
813.917372,1850.514855,74.020594,-10189.070123
813.917692,3034.844362,-1184.329507,-10189.070123
813.918012,0.000000,-1036.288319,-9882.631924
813.918332,-888.247130,148.041188,-9652.803275
813.918652,1258.350101,1850.514855,-10035.851024
813.918971,3775.050304,2886.803174,-10878.556072
813.919291,2812.782580,1924.535449,-10572.117872
813.919611,296.082377,1406.391290,-10189.070123
813.919931,74.020594,370.102971,-9806.022374
813.920251,1258.350101,740.205942,-9882.631924
813.920571,2146.597232,1554.432478,-10112.460574
813.920891,148.041188,1628.453072,-9959.241474
813.921211,-518.144159,1554.432478,-9422.974625
813.921531,1184.329507,962.267725,-9806.022374
813.921851,2442.679609,74.020594,-10189.070123
813.922171,1258.350101,-370.102971,-9806.022374
813.922491,-1998.556043,0.000000,-9422.974625
813.922811,-962.267725,888.247130,-9882.631924
813.923131,666.185348,1998.556043,-10112.460574
813.923451,-222.061783,2072.576638,-10495.508323
813.923771,-2590.720797,740.205942,-9806.022374
813.924091,-1184.329507,-962.267725,-9652.803275
813.924411,2220.617826,-1998.556043,-9882.631924
813.924730,3330.926739,-1406.391290,-10418.898773
813.925050,962.267725,-222.061783,-10035.851024
813.925370,-518.144159,222.061783,-10035.851024
813.925690,740.205942,0.000000,-10112.460574
813.926010,1998.556043,592.164754,-10418.898773
813.926330,-148.041188,518.144159,-10418.898773
813.926650,-2886.803174,0.000000,-10112.460574
813.926970,-592.164754,0.000000,-10572.117872
813.927290,2220.617826,518.144159,-10648.727422
813.927610,1628.453072,-370.102971,-10878.556072
813.927930,-888.247130,-1036.288319,-10265.679673
813.928250,-1628.453072,-1184.329507,-10189.070123
813.928570,1036.288319,444.123565,-10265.679673
813.928890,888.247130,962.267725,-10725.336972
813.929210,-1332.370696,1036.288319,-10189.070123
813.929530,-1628.453072,592.164754,-11108.384721
813.929850,296.082377,74.020594,-10265.679673
813.930170,1998.556043,74.020594,-10648.727422
813.930490,370.102971,-222.061783,-10418.898773
813.930809,-1702.473667,0.000000,-8733.488677
813.931129,444.123565,-444.123565,-9729.412825
813.931449,2886.803174,-888.247130,-9806.022374
813.931769,1998.556043,-1110.308913,-10112.460574
813.932089,-296.082377,-814.226536,-9806.022374
813.932409,296.082377,-148.041188,-9499.584175
813.932729,2146.597232,1628.453072,-9882.631924
813.933049,2590.720797,444.123565,-10495.508323
813.933369,222.061783,-444.123565,-9729.412825
813.933689,-1702.473667,-1628.453072,-9116.536426
813.934009,74.020594,-2146.597232,-9499.584175
813.934329,1998.556043,-1406.391290,-10112.460574
813.934649,370.102971,74.020594,-10189.070123
813.934969,-1628.453072,1110.308913,-9806.022374
813.935289,0.000000,1036.288319,-9882.631924
813.935609,2072.576638,148.041188,-10418.898773
813.935929,1628.453072,-444.123565,-10495.508323
813.936249,-1998.556043,-962.267725,-9652.803275
813.936569,-1702.473667,296.082377,-9882.631924
813.936888,1258.350101,518.144159,-10572.117872
813.937208,814.226536,222.061783,-10342.289223
813.937528,-814.226536,222.061783,-10418.898773
813.937848,-962.267725,370.102971,-9959.241474
813.938168,1036.288319,1850.514855,-10189.070123
813.938488,2590.720797,1998.556043,-10801.946522
813.938808,962.267725,1480.411884,-10035.851024
813.939128,-1776.494261,296.082377,-9882.631924
813.939448,-666.185348,-814.226536,-9806.022374
813.939768,1184.329507,-1110.308913,-9806.022374
813.940088,1036.288319,-666.185348,-10342.289223
813.940408,0.000000,444.123565,-9959.241474
813.940728,0.000000,1924.535449,-9959.241474
813.941048,1628.453072,2220.617826,-9806.022374
813.941368,1924.535449,1998.556043,-10495.508323
813.941688,444.123565,296.082377,-10189.070123
813.942008,-888.247130,-222.061783,-9806.022374
813.942328,888.247130,444.123565,-9116.536426
813.942647,2886.803174,296.082377,-10035.851024
813.942967,1702.473667,222.061783,-9882.631924
813.943287,-740.205942,0.000000,-9729.412825
813.943607,0.000000,1406.391290,-10648.727422
813.943927,2072.576638,2146.597232,-10342.289223
813.944247,1998.556043,2146.597232,-10342.289223
813.944567,222.061783,1702.473667,-9806.022374
813.944887,0.000000,962.267725,-9806.022374
813.945207,1406.391290,444.123565,-10189.070123
813.945527,3034.844362,-222.061783,-10112.460574
813.945847,2146.597232,444.123565,-10035.851024
813.946167,666.185348,1628.453072,-9882.631924
813.946487,1702.473667,1998.556043,-10342.289223
813.946807,1776.494261,2442.679609,-10418.898773
813.947127,-222.061783,1924.535449,-10648.727422
813.947447,-2294.638420,1406.391290,-9806.022374
813.947767,-740.205942,148.041188,-9882.631924
813.948087,2442.679609,148.041188,-10342.289223
813.948407,1850.514855,-370.102971,-10189.070123
813.948726,-740.205942,-370.102971,-10035.851024
813.949046,-592.164754,370.102971,-9882.631924
813.949366,1776.494261,1406.391290,-10495.508323
813.949686,2738.761985,2220.617826,-10801.946522
813.950006,-148.041188,2516.700203,-10725.336972
813.950326,-1850.514855,1332.370696,-10265.679673
813.950646,518.144159,148.041188,-10035.851024
813.950966,2368.659014,-1036.288319,-10189.070123
813.951286,814.226536,-1258.350101,-10265.679673
813.951606,-1776.494261,0.000000,-9806.022374
813.951926,-1406.391290,-148.041188,-9959.241474
813.952246,1110.308913,1776.494261,-10189.070123
813.952566,814.226536,1110.308913,-10265.679673
813.952886,-1554.432478,296.082377,-9806.022374
813.953206,-888.247130,-962.267725,-9576.193725
813.953526,1924.535449,-1258.350101,-9729.412825
813.953846,2886.803174,-888.247130,-10265.679673
813.954166,148.041188,-444.123565,-9959.241474
813.954485,-888.247130,74.020594,-9652.803275
813.954805,222.061783,1406.391290,-9806.022374
813.955125,1776.494261,1628.453072,-11414.822920
813.955445,-148.041188,666.185348,-10035.851024
813.955765,-962.267725,-296.082377,-9652.803275
813.956085,74.020594,-2368.659014,-9729.412825
813.956405,2590.720797,-2664.741391,-8886.707777
813.956725,2442.679609,-1702.473667,-9729.412825
813.957045,-444.123565,-1184.329507,-9959.241474
813.957365,-296.082377,0.000000,-9652.803275
813.957685,1406.391290,962.267725,-10265.679673
813.958005,2812.782580,1110.308913,-10189.070123
813.958325,-370.102971,962.267725,-9806.022374
813.958645,-962.267725,296.082377,-10265.679673
813.958965,2072.576638,-962.267725,-9959.241474
813.959285,3330.926739,-592.164754,-10189.070123
813.959605,2072.576638,-1184.329507,-10112.460574
813.959925,-666.185348,-962.267725,-9959.241474
813.960245,518.144159,0.000000,-10112.460574
813.960564,1998.556043,1184.329507,-10801.946522
813.960884,-444.123565,1184.329507,-11031.775171
813.961204,-2368.659014,296.082377,-10189.070123
813.961524,-370.102971,-592.164754,-10265.679673
813.961844,2220.617826,-592.164754,-10342.289223
813.962164,2442.679609,-370.102971,-10648.727422
813.962484,-666.185348,0.000000,-10112.460574
813.962804,-1998.556043,-148.041188,-9882.631924
813.963124,74.020594,-592.164754,-10189.070123
813.963444,1184.329507,-296.082377,-10725.336972
813.963764,-1924.535449,-370.102971,-9959.241474
813.964084,-4145.153275,-444.123565,-9806.022374
813.964404,-1258.350101,-1036.288319,-10035.851024
813.964724,2664.741391,592.164754,-10495.508323
813.965044,1554.432478,1332.370696,-10878.556072
813.965364,-1110.308913,888.247130,-10189.070123
813.965684,-1480.411884,296.082377,-9806.022374
813.966004,1332.370696,1036.288319,-9959.241474
813.966323,1554.432478,444.123565,-10572.117872
813.966643,-592.164754,0.000000,-9806.022374
813.966963,-296.082377,-1258.350101,-9422.974625
813.967283,1036.288319,-666.185348,-9806.022374
813.967603,1628.453072,74.020594,-10342.289223
813.967923,-1184.329507,740.205942,-11261.603821
813.968243,-2960.823768,222.061783,-9729.412825
813.968563,-2368.659014,962.267725,-9652.803275
813.968883,296.082377,1850.514855,-10035.851024
813.969203,592.164754,2368.659014,-9806.022374
813.969523,-666.185348,2294.638420,-9882.631924
813.969843,740.205942,1110.308913,-10189.070123
813.970163,3923.091493,592.164754,-10035.851024
813.970483,3108.864956,-222.061783,-10189.070123
813.970803,814.226536,-666.185348,-9652.803275
813.971123,-222.061783,888.247130,-10265.679673
813.971443,1924.535449,2072.576638,-9959.241474
813.971763,2072.576638,2516.700203,-10725.336972
813.972083,666.185348,1776.494261,-9806.022374
813.972402,-148.041188,0.000000,-10035.851024
813.972722,1628.453072,-1036.288319,-9882.631924
813.973042,3478.967927,296.082377,-10648.727422
813.973362,1628.453072,1554.432478,-10648.727422
813.973682,-740.205942,2368.659014,-10265.679673
813.974002,74.020594,1776.494261,-10189.070123
813.974322,2220.617826,1628.453072,-10189.070123
813.974642,2294.638420,148.041188,-10725.336972
813.974962,-444.123565,666.185348,-9806.022374
813.975282,-518.144159,888.247130,-9652.803275
813.975602,962.267725,962.267725,-9882.631924
813.975922,2516.700203,1554.432478,-9882.631924
813.976242,1110.308913,1184.329507,-10189.070123
813.976562,-296.082377,148.041188,-9806.022374
813.976882,1258.350101,-444.123565,-9499.584175
813.977202,2442.679609,148.041188,-10035.851024
813.977522,1554.432478,888.247130,-9729.412825
813.977842,74.020594,74.020594,-9652.803275
813.978162,518.144159,148.041188,-9806.022374
813.978481,2442.679609,296.082377,-10265.679673
813.978801,1776.494261,1258.350101,-10265.679673
813.979121,-1628.453072,1480.411884,-9806.022374
813.979441,-2886.803174,518.144159,-9882.631924
813.979761,-148.041188,-222.061783,-9959.241474
813.980081,370.102971,-1184.329507,-10112.460574
813.980401,-666.185348,-2072.576638,-9959.241474
813.980721,-1702.473667,-592.164754,-9806.022374
813.981041,444.123565,-444.123565,-10035.851024
813.981361,2886.803174,148.041188,-10801.946522
813.981681,2368.659014,296.082377,-10648.727422
813.982001,-1554.432478,740.205942,-11184.994271
813.982321,-1850.514855,1184.329507,-10648.727422
813.982641,1332.370696,1184.329507,-10725.336972
813.982961,1998.556043,1258.350101,-11031.775171
813.983281,-962.267725,74.020594,-10342.289223
813.983601,-1628.453072,-740.205942,-10112.460574
813.983921,444.123565,-2368.659014,-9959.241474
813.984240,1998.556043,-1850.514855,-10801.946522
813.984560,1628.453072,-148.041188,-10342.289223
813.984880,-666.185348,888.247130,-10189.070123
813.985200,-444.123565,1554.432478,-10112.460574
813.985520,1110.308913,1332.370696,-10342.289223
813.985840,666.185348,296.082377,-10265.679673
813.986160,-296.082377,-592.164754,-9806.022374
813.986480,1110.308913,-962.267725,-9806.022374
813.986800,3404.947333,-666.185348,-10189.070123
813.987120,2960.823768,370.102971,-10035.851024
813.987440,-148.041188,1110.308913,-9729.412825
813.987760,-1332.370696,666.185348,-9116.536426
813.988080,888.247130,0.000000,-9882.631924
813.988400,1258.350101,-370.102971,-10112.460574
813.988720,-444.123565,-740.205942,-9959.241474
813.989040,-1036.288319,-1702.473667,-9499.584175
813.989360,592.164754,-1480.411884,-9882.631924
813.989680,2442.679609,-962.267725,-10035.851024
813.990000,1332.370696,370.102971,-10035.851024
813.990320,-1258.350101,1406.391290,-9882.631924
813.990639,-370.102971,518.144159,-10035.851024
813.990959,1850.514855,1036.288319,-10495.508323
813.991279,2294.638420,-296.082377,-10572.117872
813.991599,148.041188,-1332.370696,-9959.241474
813.991919,-666.185348,-1110.308913,-9806.022374
813.992239,814.226536,-814.226536,-10878.556072
813.992559,1184.329507,1184.329507,-10878.556072
813.992879,-370.102971,1998.556043,-10189.070123
813.993199,-2368.659014,1998.556043,-10035.851024
813.993519,-444.123565,1924.535449,-9269.755526
813.993839,1258.350101,962.267725,-10878.556072
813.994159,148.041188,888.247130,-10572.117872
813.994479,-888.247130,888.247130,-9882.631924
813.994799,148.041188,222.061783,-9959.241474
813.995119,1480.411884,222.061783,-9499.584175
813.995439,1628.453072,0.000000,-10342.289223
813.995759,-444.123565,0.000000,-9729.412825
813.996079,-1036.288319,444.123565,-9729.412825
813.996399,1184.329507,1406.391290,-9422.974625
813.996719,1628.453072,1406.391290,-10112.460574
813.997038,-666.185348,1184.329507,-9882.631924
813.997358,-1258.350101,740.205942,-9806.022374
813.997678,592.164754,148.041188,-10495.508323
813.997998,1702.473667,370.102971,-9959.241474
813.998318,1110.308913,-592.164754,-9652.803275
813.998638,-222.061783,592.164754,-9806.022374
813.998958,1332.370696,1628.453072,-9959.241474
813.999278,1776.494261,2368.659014,-10035.851024
813.999598,2368.659014,2812.782580,-10418.898773
813.999918,-666.185348,1554.432478,-10189.070123
814.000238,-444.123565,296.082377,-10035.851024
814.000558,2220.617826,-592.164754,-9806.022374
814.000878,2516.700203,-666.185348,-10265.679673
814.001198,1406.391290,0.000000,-9882.631924
814.001518,74.020594,1776.494261,-10189.070123
814.001838,1628.453072,2812.782580,-10342.289223
814.002158,2960.823768,3256.906145,-10648.727422
814.002478,740.205942,2590.720797,-10572.117872
814.002798,-1332.370696,592.164754,-9882.631924
814.003118,0.000000,-592.164754,-9806.022374
814.003437,1480.411884,-962.267725,-10189.070123
814.003757,1850.514855,-1110.308913,-10342.289223
814.004077,-370.102971,-814.226536,-9806.022374
814.004397,-740.205942,1258.350101,-9959.241474
814.004717,740.205942,2146.597232,-10035.851024
814.005037,148.041188,3404.947333,-10265.679673
814.005357,-814.226536,1850.514855,-10648.727422
814.005677,-1110.308913,74.020594,-9652.803275
814.005997,2294.638420,-2368.659014,-9806.022374
814.006317,4219.173869,-2738.761985,-11491.432470
814.006637,1850.514855,-1776.494261,-10112.460574
814.006957,-1776.494261,814.226536,-9959.241474
814.007277,-1258.350101,2368.659014,-9959.241474
814.007597,1554.432478,2590.720797,-10495.508323
814.007917,1850.514855,1554.432478,-11414.822920
814.008237,-1332.370696,-814.226536,-10035.851024
814.008557,-2368.659014,-2368.659014,-9652.803275
814.008877,-666.185348,-2738.761985,-10112.460574
814.009197,1480.411884,-1776.494261,-10342.289223
814.009517,148.041188,148.041188,-10189.070123
814.009836,-1406.391290,1924.535449,-9652.803275
814.010156,444.123565,1702.473667,-10189.070123
814.010476,2072.576638,1998.556043,-10878.556072
814.010796,1406.391290,148.041188,-10265.679673
814.011116,-1628.453072,-1184.329507,-9806.022374
814.011436,-370.102971,-2368.659014,-9652.803275
814.011756,962.267725,-2072.576638,-9959.241474
814.012076,1628.453072,-1258.350101,-10035.851024
814.012396,0.000000,-740.205942,-9652.803275
814.012716,962.267725,444.123565,-9806.022374
814.013036,1702.473667,962.267725,-10189.070123
814.013356,1924.535449,2072.576638,-10495.508323
814.013676,444.123565,222.061783,-10112.460574
814.013996,-666.185348,-888.247130,-9576.193725
814.014316,1110.308913,-2072.576638,-9882.631924
814.014636,2368.659014,-1850.514855,-9806.022374
814.014956,1554.432478,-1110.308913,-9806.022374
814.015276,740.205942,-222.061783,-9882.631924
814.015596,1332.370696,888.247130,-10112.460574
814.015916,2294.638420,1998.556043,-10265.679673
814.016235,888.247130,2220.617826,-10342.289223
814.016555,-592.164754,1184.329507,-10189.070123
814.016875,-814.226536,0.000000,-9882.631924
814.017195,1110.308913,-1850.514855,-10342.289223
814.017515,1406.391290,-1776.494261,-9806.022374
814.017835,-740.205942,-1554.432478,-9806.022374
814.018155,-666.185348,-1258.350101,-9806.022374
814.018475,74.020594,1406.391290,-10189.070123
814.018795,1406.391290,2886.803174,-10572.117872
814.019115,222.061783,2072.576638,-10418.898773
814.019435,-1406.391290,1332.370696,-10112.460574
814.019755,-1036.288319,0.000000,-10265.679673
814.020075,2146.597232,-1332.370696,-10495.508323
814.020395,1998.556043,-2442.679609,-10112.460574
814.020715,592.164754,-2886.803174,-9806.022374
814.021035,-148.041188,-962.267725,-10035.851024
814.021355,222.061783,1258.350101,-10035.851024
814.021675,0.000000,3627.009116,-11261.603821
814.021995,-2294.638420,3552.988522,-9959.241474
814.022315,-2738.761985,2220.617826,-10265.679673
814.022635,0.000000,-296.082377,-9959.241474
814.022954,2294.638420,-2738.761985,-9959.241474
814.023274,518.144159,-3330.926739,-9346.365076
814.023594,-444.123565,-1406.391290,-9882.631924
814.023914,518.144159,1850.514855,-9806.022374
814.024234,2294.638420,4071.132681,-10495.508323
814.024554,444.123565,5033.400406,-10495.508323
814.024874,-2590.720797,3182.885551,-9959.241474
814.025194,-2886.803174,-296.082377,-8810.098227
814.025514,370.102971,-1554.432478,-10189.070123
814.025834,1258.350101,-2516.700203,-9652.803275
814.026154,740.205942,-1628.453072,-9729.412825
814.026474,888.247130,0.000000,-9576.193725
814.026794,2590.720797,2220.617826,-9806.022374
814.027114,3108.864956,3404.947333,-10418.898773
814.027434,1702.473667,3627.009116,-10418.898773
814.027754,74.020594,2664.741391,-9729.412825
814.028074,740.205942,740.205942,-9652.803275
814.028394,2886.803174,-1998.556043,-10265.679673
814.028714,2812.782580,-2590.720797,-9959.241474
814.029034,296.082377,-1776.494261,-9039.926876
814.029353,-592.164754,0.000000,-9882.631924
814.029673,1554.432478,3849.070898,-10648.727422
814.029993,1998.556043,5847.626942,-11108.384721
814.030313,2220.617826,4885.359217,-10801.946522
814.030633,1776.494261,2368.659014,-10112.460574
814.030953,2590.720797,-592.164754,-10265.679673
814.031273,3182.885551,-2664.741391,-10342.289223
814.031593,2368.659014,-2516.700203,-9729.412825
814.031913,-296.082377,222.061783,-9806.022374
814.032233,518.144159,2220.617826,-9576.193725
814.032553,1554.432478,3552.988522,-10801.946522
814.032873,296.082377,3701.029710,-10418.898773
814.033193,-2368.659014,3256.906145,-10342.289223
814.033513,-2812.782580,888.247130,-9806.022374
814.033833,0.000000,-1924.535449,-9422.974625
814.034153,1924.535449,-3108.864956,-9806.022374
814.034473,444.123565,-2590.720797,-9652.803275
814.034793,0.000000,-2072.576638,-9576.193725
814.035113,888.247130,370.102971,-9729.412825
814.035433,1406.391290,2072.576638,-10572.117872
814.035752,-962.267725,2960.823768,-10265.679673
814.036072,-2590.720797,2738.761985,-10189.070123
814.036392,-1702.473667,740.205942,-10035.851024
814.036712,222.061783,-1554.432478,-9882.631924
814.037032,0.000000,-3034.844362,-9959.241474
814.037352,-1258.350101,-3849.070898,-9806.022374
814.037672,-814.226536,-2886.803174,-9346.365076
814.037992,888.247130,-888.247130,-10265.679673
814.038312,962.267725,888.247130,-10648.727422
814.038632,0.000000,1998.556043,-10112.460574
814.038952,-222.061783,1924.535449,-10418.898773
814.039272,1036.288319,888.247130,-10801.946522
814.039592,2072.576638,-518.144159,-10572.117872
814.039912,2072.576638,-1924.535449,-10189.070123
814.040232,1480.411884,-1924.535449,-10418.898773
814.040552,2294.638420,0.000000,-10265.679673
814.040872,2442.679609,888.247130,-11261.603821
814.041192,444.123565,3034.844362,-10955.165621
814.041512,-2146.597232,3478.967927,-10648.727422
814.041832,-1480.411884,2072.576638,-12104.308868
814.042151,888.247130,-666.185348,-10189.070123
814.042471,1924.535449,-2368.659014,-10495.508323
814.042791,740.205942,-2442.679609,-10189.070123
814.043111,888.247130,-1406.391290,-9576.193725
814.043431,2220.617826,962.267725,-10648.727422
814.043751,1480.411884,2072.576638,-10495.508323
814.044071,0.000000,1850.514855,-9959.241474
814.044391,-1406.391290,444.123565,-9806.022374
814.044711,0.000000,-740.205942,-9806.022374
814.045031,1850.514855,-1850.514855,-10112.460574
814.045351,1406.391290,-2294.638420,-9576.193725
814.045671,666.185348,-1406.391290,-9882.631924
814.045991,1184.329507,-518.144159,-9882.631924
814.046311,1480.411884,-148.041188,-9882.631924
814.046631,666.185348,888.247130,-10265.679673
814.046951,-1036.288319,1628.453072,-10112.460574
814.047271,-2072.576638,1702.473667,-10035.851024
814.047591,-370.102971,814.226536,-9269.755526
814.047911,-148.041188,-222.061783,-10265.679673
814.048231,-148.041188,-2294.638420,-9652.803275
814.048550,-814.226536,-1480.411884,-9959.241474
814.048870,0.000000,-222.061783,-9959.241474
814.049190,148.041188,1110.308913,-9806.022374
814.049510,-1258.350101,2664.741391,-10495.508323
814.049830,-2368.659014,2590.720797,-10112.460574
814.050150,-1036.288319,2146.597232,-9959.241474
814.050470,1036.288319,1258.350101,-9652.803275
814.050790,2072.576638,-666.185348,-10342.289223
814.051110,1110.308913,-592.164754,-10189.070123
814.051430,1036.288319,-740.205942,-9959.241474
814.051750,2516.700203,370.102971,-10035.851024
814.052070,1406.391290,1110.308913,-10112.460574
814.052390,-74.020594,2664.741391,-10189.070123
814.052710,-1036.288319,2738.761985,-10495.508323
814.053030,-592.164754,1998.556043,-10189.070123
814.053350,888.247130,-370.102971,-10112.460574
814.053670,444.123565,-1554.432478,-9806.022374
814.053990,740.205942,-1776.494261,-9806.022374
814.054310,1702.473667,-444.123565,-9959.241474
814.054630,2590.720797,1036.288319,-10265.679673
814.054949,2294.638420,2812.782580,-10265.679673
814.055269,222.061783,3182.885551,-10342.289223
814.055589,296.082377,1628.453072,-10035.851024
814.055909,1628.453072,666.185348,-10189.070123
814.056229,2146.597232,-814.226536,-9806.022374
814.056549,2072.576638,-962.267725,-9729.412825
814.056869,962.267725,-370.102971,-9806.022374
814.057189,1554.432478,74.020594,-9882.631924
814.057509,1406.391290,1332.370696,-8963.317327
814.057829,666.185348,2368.659014,-10265.679673
814.058149,-740.205942,2368.659014,-10035.851024
814.058469,-1184.329507,1258.350101,-10189.070123
814.058789,1184.329507,-148.041188,-10112.460574
814.059109,2294.638420,-1628.453072,-9499.584175
814.059429,592.164754,-1406.391290,-9806.022374
814.059749,962.267725,-592.164754,-9806.022374
814.060069,1480.411884,1110.308913,-10265.679673
814.060389,1628.453072,3108.864956,-11031.775171
814.060709,0.000000,3256.906145,-10342.289223
814.061029,-1184.329507,1480.411884,-10342.289223
814.061348,-888.247130,222.061783,-10265.679673
814.061668,74.020594,-1036.288319,-10189.070123
814.061988,1184.329507,-1480.411884,-9806.022374
814.062308,222.061783,-1554.432478,-9882.631924
814.062628,-740.205942,-296.082377,-9959.241474
814.062948,0.000000,592.164754,-10112.460574
814.063268,1184.329507,888.247130,-9959.241474
814.063588,222.061783,1776.494261,-10189.070123
814.063908,-296.082377,962.267725,-10035.851024
814.064228,740.205942,444.123565,-10035.851024
814.064548,1258.350101,-1258.350101,-10265.679673
814.064868,222.061783,-2294.638420,-9576.193725
814.065188,222.061783,-3034.844362,-9729.412825
814.065508,0.000000,-1924.535449,-9422.974625
814.065828,0.000000,0.000000,-9959.241474
814.066148,370.102971,1036.288319,-9959.241474
814.066468,-370.102971,2368.659014,-10112.460574
814.066788,-740.205942,1776.494261,-10342.289223
814.067108,1036.288319,0.000000,-9959.241474
814.067428,1702.473667,-1258.350101,-9882.631924
814.067747,1110.308913,-2368.659014,-9806.022374
814.068067,1332.370696,-1258.350101,-9806.022374
814.068387,962.267725,592.164754,-9959.241474
814.068707,1480.411884,2072.576638,-10725.336972
814.069027,1036.288319,2738.761985,-10495.508323
814.069347,296.082377,1406.391290,-10495.508323
814.069667,0.000000,74.020594,-10112.460574
814.069987,-296.082377,-962.267725,-9806.022374
814.070307,-296.082377,-2220.617826,-10955.165621
814.070627,-296.082377,-2368.659014,-10035.851024
814.070947,444.123565,-888.247130,-9806.022374
814.071267,1776.494261,74.020594,-10189.070123
814.071587,2368.659014,2294.638420,-10342.289223
814.071907,1332.370696,3182.885551,-11338.213370
814.072227,-148.041188,1998.556043,-10495.508323
814.072547,-814.226536,518.144159,-9882.631924
814.072867,-148.041188,-592.164754,-10112.460574
814.073187,370.102971,-1258.350101,-9959.241474
814.073507,0.000000,-2368.659014,-9959.241474
814.073827,814.226536,-1406.391290,-9652.803275
814.074146,592.164754,370.102971,-10035.851024
814.074466,1332.370696,1406.391290,-10035.851024
814.074786,-1184.329507,2590.720797,-10495.508323
814.075106,-1258.350101,1406.391290,-9729.412825
814.075426,1036.288319,370.102971,-10112.460574
814.075746,1258.350101,-666.185348,-10035.851024
814.076066,-296.082377,-1184.329507,-10648.727422
814.076386,-370.102971,-740.205942,-9652.803275
814.076706,888.247130,222.061783,-10112.460574
814.077026,2294.638420,1554.432478,-10648.727422
814.077346,1998.556043,2516.700203,-10495.508323
814.077666,-740.205942,2146.597232,-10572.117872
814.077986,-2072.576638,1406.391290,-9806.022374
814.078306,-444.123565,592.164754,-10265.679673
814.078626,0.000000,74.020594,-10189.070123
814.078946,-666.185348,-370.102971,-10342.289223
814.079266,-296.082377,-888.247130,-9422.974625
814.079586,1184.329507,444.123565,-10342.289223
814.079906,1998.556043,1406.391290,-10495.508323
814.080226,888.247130,2220.617826,-10265.679673
814.080545,-1332.370696,2812.782580,-9959.241474
814.080865,-666.185348,1628.453072,-9882.631924
814.081185,1184.329507,222.061783,-9806.022374
814.081505,740.205942,-296.082377,-9422.974625
814.081825,-592.164754,-1554.432478,-9193.145976
814.082145,148.041188,-1110.308913,-9039.926876
814.082465,2590.720797,-148.041188,-9806.022374
814.082785,2960.823768,592.164754,-9882.631924
814.083105,1406.391290,1184.329507,-9499.584175
814.083425,-222.061783,1554.432478,-9729.412825
814.083745,370.102971,888.247130,-9576.193725
814.084065,1332.370696,0.000000,-10342.289223
814.084385,0.000000,-814.226536,-9806.022374
814.084705,-222.061783,0.000000,-10189.070123
814.085025,1776.494261,296.082377,-9959.241474
814.085345,4589.276840,1184.329507,-10801.946522
814.085665,2368.659014,1406.391290,-10495.508323
814.085985,-888.247130,1702.473667,-10189.070123
814.086305,-1702.473667,1258.350101,-10265.679673
814.086625,-888.247130,148.041188,-10648.727422
814.086944,1036.288319,-148.041188,-10189.070123
814.087264,-296.082377,-1110.308913,-10112.460574
814.087584,0.000000,-592.164754,-9422.974625
814.087904,2738.761985,1184.329507,-10418.898773
814.088224,3701.029710,2072.576638,-10878.556072
814.088544,2368.659014,2294.638420,-10878.556072
814.088864,-444.123565,1554.432478,-10418.898773
814.089184,-814.226536,296.082377,-9959.241474
814.089504,1110.308913,-814.226536,-10265.679673
814.089824,1036.288319,-1628.453072,-9882.631924
814.090144,-518.144159,-1924.535449,-10035.851024
814.090464,-888.247130,-888.247130,-9422.974625
814.090784,1480.411884,666.185348,-10418.898773
814.091104,296.082377,888.247130,-10035.851024
814.091424,-1850.514855,1110.308913,-10418.898773
814.091744,-2886.803174,888.247130,-9729.412825
814.092064,74.020594,-444.123565,-10035.851024
814.092384,1628.453072,-1628.453072,-9806.022374
814.092704,444.123565,-2146.597232,-10189.070123
814.093024,-296.082377,-1554.432478,-9652.803275
814.093344,1702.473667,-666.185348,-9806.022374
814.093664,2590.720797,518.144159,-10572.117872
814.093984,148.041188,1332.370696,-10418.898773
814.094303,-3034.844362,370.102971,-9729.412825
814.094623,-2516.700203,-592.164754,-9652.803275
814.094943,0.000000,-1702.473667,-9882.631924
814.095263,666.185348,-1554.432478,-10189.070123
814.095583,-370.102971,-1406.391290,-10035.851024
814.095903,-296.082377,0.000000,-9806.022374
814.096223,1554.432478,814.226536,-10265.679673
814.096543,3182.885551,1406.391290,-10725.336972
814.096863,666.185348,962.267725,-10495.508323
814.097183,-2146.597232,518.144159,-10265.679673
814.097503,-222.061783,1184.329507,-10265.679673
814.097823,2442.679609,222.061783,-10725.336972
814.098143,2072.576638,740.205942,-10725.336972
814.098463,-1554.432478,74.020594,-9959.241474
814.098783,-222.061783,518.144159,-9959.241474
814.099103,1258.350101,814.226536,-10418.898773
814.099423,1924.535449,444.123565,-10342.289223
814.099743,-296.082377,592.164754,-10189.070123
814.100063,-1184.329507,296.082377,-9652.803275
814.100383,1998.556043,-592.164754,-10112.460574
814.100703,2590.720797,296.082377,-10112.460574
814.101023,74.020594,814.226536,-10342.289223
814.101342,-2590.720797,1110.308913,-9346.365076
814.101662,-444.123565,666.185348,-9576.193725
814.101982,3330.926739,74.020594,-10189.070123
814.102302,3330.926739,0.000000,-10035.851024
814.102622,-666.185348,74.020594,-9729.412825
814.102942,-1850.514855,-444.123565,-9652.803275
814.103262,1628.453072,0.000000,-10035.851024
814.103582,1628.453072,296.082377,-10035.851024
814.103902,-518.144159,74.020594,-9959.241474
814.104222,-1480.411884,148.041188,-9729.412825
814.104542,888.247130,1480.411884,-10112.460574
814.104862,2664.741391,2294.638420,-10725.336972
814.105182,518.144159,2294.638420,-10418.898773
814.105502,-2146.597232,1850.514855,-10342.289223
814.105822,-962.267725,666.185348,-9806.022374
814.106142,1184.329507,0.000000,-10112.460574
814.106462,740.205942,-148.041188,-10112.460574
814.106782,-814.226536,0.000000,-9882.631924
814.107102,-740.205942,74.020594,-9806.022374
814.107422,1184.329507,666.185348,-10418.898773
814.107742,1702.473667,1184.329507,-10725.336972
814.108062,-1036.288319,1628.453072,-10648.727422
814.108382,-1258.350101,2294.638420,-9882.631924
814.108701,1702.473667,1850.514855,-10418.898773
814.109021,2960.823768,592.164754,-10189.070123
814.109341,1554.432478,74.020594,-10189.070123
814.109661,0.000000,-962.267725,-9806.022374
814.109981,814.226536,-814.226536,-9806.022374
814.110301,2368.659014,444.123565,-10495.508323
814.110621,1258.350101,1924.535449,-10648.727422
814.110941,-1184.329507,1036.288319,-9806.022374
814.111261,0.000000,0.000000,-9959.241474
814.111581,1036.288319,-296.082377,-10189.070123
814.111901,1332.370696,-148.041188,-9652.803275
814.112221,-148.041188,148.041188,-9729.412825
814.112541,0.000000,222.061783,-9576.193725
814.112861,3775.050304,1332.370696,-10265.679673
814.113181,5107.421000,1258.350101,-9806.022374
814.113501,2072.576638,814.226536,-9652.803275
814.113821,-592.164754,74.020594,-9882.631924
814.114141,74.020594,0.000000,-9499.584175
814.114461,2442.679609,296.082377,-10189.070123
814.114781,2146.597232,370.102971,-9882.631924
814.115101,-888.247130,-962.267725,-9499.584175
814.115421,-888.247130,-592.164754,-10035.851024
814.115741,962.267725,518.144159,-10189.070123
814.116060,1554.432478,1702.473667,-9806.022374
814.116380,222.061783,814.226536,-9806.022374
814.116700,-1850.514855,74.020594,-9576.193725
814.117020,962.267725,222.061783,-10418.898773
814.117340,2590.720797,-592.164754,-10035.851024
814.117660,1036.288319,-1036.288319,-10418.898773
814.117980,-296.082377,222.061783,-10572.117872
814.118300,0.000000,962.267725,-10418.898773
814.118620,1628.453072,1110.308913,-11031.775171
814.118940,962.267725,148.041188,-10265.679673
814.119260,-1850.514855,0.000000,-10418.898773
814.119580,-1406.391290,0.000000,-9882.631924
814.119900,1480.411884,0.000000,-10572.117872
814.120220,2590.720797,-888.247130,-9576.193725
814.120540,0.000000,-592.164754,-10495.508323
814.120860,-814.226536,-1036.288319,-9422.974625
814.121180,1406.391290,0.000000,-10265.679673
814.121500,1184.329507,666.185348,-10265.679673
814.121820,-1406.391290,740.205942,-9806.022374
814.122140,-3108.864956,740.205942,-9652.803275
814.122460,-1184.329507,444.123565,-9729.412825
814.122780,1702.473667,296.082377,-10035.851024
814.123099,1258.350101,-296.082377,-9652.803275
814.123419,-592.164754,-1702.473667,-9806.022374
814.123739,0.000000,-1480.411884,-8963.317327
814.124059,2294.638420,-444.123565,-9806.022374
814.124379,2220.617826,814.226536,-10112.460574
814.124699,-666.185348,370.102971,-9806.022374
814.125019,-1110.308913,0.000000,-9806.022374
814.125339,1184.329507,0.000000,-9882.631924
814.125659,2590.720797,-296.082377,-10265.679673
814.125979,888.247130,1628.453072,-11568.042020
814.126299,-2442.679609,1406.391290,-10035.851024
814.126619,0.000000,1110.308913,-10572.117872
814.126939,2368.659014,0.000000,-9882.631924
814.127259,1554.432478,-962.267725,-10112.460574
814.127579,-2516.700203,-962.267725,-10265.679673
814.127899,-1184.329507,-888.247130,-10265.679673
814.128219,1406.391290,666.185348,-10648.727422
814.128539,1850.514855,1702.473667,-10878.556072
814.128859,296.082377,1480.411884,-10572.117872
814.129179,-666.185348,1184.329507,-10418.898773
814.129499,1554.432478,1406.391290,-10878.556072
814.129819,2886.803174,1406.391290,-10955.165621
814.130139,296.082377,518.144159,-10112.460574
814.130458,-1628.453072,0.000000,-9806.022374
814.130778,592.164754,-1110.308913,-9959.241474
814.131098,3404.947333,-1480.411884,-10189.070123
814.131418,1924.535449,-962.267725,-10112.460574
814.131738,-592.164754,-444.123565,-9882.631924
814.132058,-518.144159,0.000000,-9806.022374
814.132378,2294.638420,1036.288319,-10572.117872
814.132698,1554.432478,592.164754,-9882.631924
814.133018,-1924.535449,74.020594,-10265.679673
814.133338,-2590.720797,-222.061783,-9499.584175
814.133658,444.123565,-296.082377,-10265.679673
814.133978,1776.494261,222.061783,-9959.241474
814.134298,0.000000,370.102971,-10342.289223
814.134618,-1036.288319,1110.308913,-10265.679673
814.134938,-1110.308913,296.082377,-9346.365076
814.135258,296.082377,0.000000,-10035.851024
814.135578,0.000000,1258.350101,-9959.241474
814.135898,-2738.761985,444.123565,-10265.679673
814.136218,-888.247130,740.205942,-10035.851024
814.136538,1184.329507,-444.123565,-9422.974625
814.136858,2886.803174,148.041188,-10342.289223
814.137178,370.102971,-370.102971,-9346.365076
814.137497,-592.164754,666.185348,-9806.022374
814.137817,518.144159,814.226536,-9652.803275
814.138137,1628.453072,444.123565,-10189.070123
814.138457,1184.329507,518.144159,-10112.460574
814.138777,-370.102971,296.082377,-9806.022374
814.139097,-222.061783,740.205942,-10189.070123
814.139417,1554.432478,222.061783,-10495.508323
814.139737,1998.556043,1480.411884,-10342.289223
814.140057,-222.061783,370.102971,-9806.022374
814.140377,666.185348,962.267725,-10495.508323
814.140697,1924.535449,1480.411884,-10342.289223
814.141017,2738.761985,1258.350101,-10801.946522
814.141337,1332.370696,1628.453072,-10801.946522
814.141657,74.020594,814.226536,-8963.317327
814.141977,2368.659014,1628.453072,-10189.070123
814.142297,2664.741391,814.226536,-10112.460574
814.142617,1554.432478,888.247130,-9959.241474
814.142937,0.000000,888.247130,-9806.022374
814.143257,1406.391290,296.082377,-9806.022374
814.143577,2220.617826,1480.411884,-10572.117872
814.143897,888.247130,1036.288319,-10112.460574
814.144217,-1036.288319,-148.041188,-9346.365076
814.144537,296.082377,-518.144159,-8580.269578
814.144856,2590.720797,-740.205942,-9959.241474
814.145176,2368.659014,666.185348,-10112.460574
814.145496,444.123565,888.247130,-9806.022374
814.145816,-814.226536,1258.350101,-9576.193725
814.146136,0.000000,740.205942,-9882.631924
814.146456,666.185348,222.061783,-10418.898773
814.146776,-592.164754,-592.164754,-10342.289223
814.147096,-2442.679609,-1332.370696,-9499.584175
814.147416,148.041188,-1702.473667,-9882.631924
814.147736,1184.329507,-370.102971,-9882.631924
814.148056,1480.411884,0.000000,-10342.289223
814.148376,-518.144159,148.041188,-10265.679673
814.148696,-222.061783,0.000000,-9806.022374
814.149016,1184.329507,0.000000,-10725.336972
814.149336,666.185348,74.020594,-10648.727422
814.149656,-1924.535449,-222.061783,-10495.508323
814.149976,-1998.556043,-740.205942,-9882.631924
814.150296,0.000000,-888.247130,-9806.022374
814.150616,1850.514855,-444.123565,-10418.898773
814.150936,222.061783,0.000000,-10418.898773
814.151256,-962.267725,0.000000,-10342.289223
814.151576,296.082377,1184.329507,-9499.584175
814.151896,1702.473667,1036.288319,-10418.898773
814.152215,1258.350101,740.205942,-10265.679673
814.152535,-740.205942,-888.247130,-10112.460574
814.152855,-370.102971,-1406.391290,-9652.803275
814.153175,1480.411884,0.000000,-9652.803275
814.153495,3701.029710,1036.288319,-10418.898773
814.153815,2072.576638,1258.350101,-10418.898773
814.154135,148.041188,518.144159,-9959.241474
814.154455,2072.576638,1110.308913,-10572.117872
814.154775,2072.576638,962.267725,-9882.631924
814.155095,-74.020594,-296.082377,-9806.022374
814.155415,-1258.350101,-1850.514855,-9269.755526
814.155735,148.041188,-1110.308913,-9959.241474
814.156055,1924.535449,-962.267725,-9882.631924
814.156375,2886.803174,74.020594,-9729.412825
814.156695,-74.020594,1184.329507,-10035.851024
814.157015,-1332.370696,2146.597232,-9882.631924
814.157335,1554.432478,1184.329507,-10189.070123
814.157655,2294.638420,1110.308913,-10495.508323
814.157975,148.041188,-444.123565,-10112.460574
814.158295,-1036.288319,-1776.494261,-9576.193725
814.158615,518.144159,-1924.535449,-9959.241474
814.158935,2220.617826,-592.164754,-10495.508323
814.159254,1184.329507,0.000000,-10189.070123
814.159574,-1998.556043,1776.494261,-9806.022374
814.159894,-1258.350101,2368.659014,-9882.631924
814.160214,1036.288319,2812.782580,-10878.556072
814.160534,0.000000,2664.741391,-10725.336972
814.160854,-2368.659014,296.082377,-10189.070123
814.161174,-2960.823768,-1258.350101,-9499.584175
814.161494,-1406.391290,-1036.288319,-10189.070123
814.161814,-370.102971,-962.267725,-10035.851024
814.162134,-1332.370696,962.267725,-10265.679673
814.162454,-2590.720797,2368.659014,-9806.022374
814.162774,296.082377,3256.906145,-10572.117872
814.163094,2072.576638,2220.617826,-10572.117872
814.163414,-148.041188,1036.288319,-10265.679673
814.163734,-1924.535449,-666.185348,-9806.022374
814.164054,518.144159,-1184.329507,-9882.631924
814.164374,3701.029710,-222.061783,-9959.241474
814.164694,3478.967927,444.123565,-10342.289223
814.165014,-148.041188,1332.370696,-10035.851024
814.165334,-740.205942,2146.597232,-9882.631924
814.165654,2368.659014,1850.514855,-10265.679673
814.165974,2442.679609,1628.453072,-11644.651570
814.166294,0.000000,74.020594,-9806.022374
814.166613,-1332.370696,-1406.391290,-9652.803275
814.166933,444.123565,-2146.597232,-9576.193725
814.167253,2294.638420,-1332.370696,-9882.631924
814.167573,888.247130,666.185348,-10112.460574
814.167893,-814.226536,1850.514855,-10035.851024
814.168213,296.082377,2590.720797,-9882.631924
814.168533,3775.050304,1850.514855,-10418.898773
814.168853,4589.276840,1184.329507,-10495.508323
814.169173,1110.308913,-962.267725,-10035.851024
814.169493,1184.329507,-1110.308913,-9422.974625
814.169813,2886.803174,-1554.432478,-9882.631924
814.170133,3108.864956,296.082377,-9806.022374
814.170453,148.041188,1184.329507,-10342.289223
814.170773,-1184.329507,1702.473667,-9806.022374
814.171093,1036.288319,2516.700203,-10572.117872
814.171413,2146.597232,1110.308913,-10572.117872
814.171733,296.082377,148.041188,-10648.727422
814.172053,-3182.885551,-1406.391290,-9422.974625
814.172373,-1036.288319,-1702.473667,-10112.460574
814.172693,1406.391290,-1036.288319,-9806.022374
814.173013,1480.411884,-518.144159,-9882.631924
814.173333,-296.082377,1036.288319,-10189.070123
814.173652,-814.226536,1332.370696,-9576.193725
814.173972,1998.556043,1628.453072,-10725.336972
814.174292,2368.659014,74.020594,-10342.289223
814.174612,-666.185348,-1110.308913,-9806.022374
814.174932,-2664.741391,-1480.411884,-9499.584175
814.175252,222.061783,-2516.700203,-9806.022374
814.175572,2146.597232,-2072.576638,-10112.460574
814.175892,148.041188,0.000000,-10342.289223
814.176212,-2294.638420,444.123565,-9729.412825
814.176532,-296.082377,1924.535449,-9959.241474
814.176852,1850.514855,2368.659014,-10801.946522
814.177172,962.267725,814.226536,-10572.117872
814.177492,-1850.514855,-1036.288319,-9806.022374
814.177812,-2516.700203,-2368.659014,-9729.412825
814.178132,1036.288319,-2442.679609,-10265.679673
814.178452,2442.679609,-444.123565,-10265.679673
814.178772,0.000000,0.000000,-9576.193725
814.179092,-740.205942,1406.391290,-9729.412825
814.179412,740.205942,1554.432478,-9882.631924
814.179732,2812.782580,1628.453072,-10648.727422
814.180052,1110.308913,814.226536,-10112.460574
814.180372,-1776.494261,0.000000,-9959.241474
814.180692,0.000000,74.020594,-9576.193725
814.181011,3552.988522,-296.082377,-10495.508323
814.181331,2368.659014,296.082377,-10342.289223
814.181651,148.041188,592.164754,-10112.460574
814.181971,-444.123565,296.082377,-9576.193725
814.182291,1628.453072,1702.473667,-10648.727422
814.182611,2294.638420,2368.659014,-10572.117872
814.182931,-222.061783,2220.617826,-11184.994271
814.183251,-1480.411884,1110.308913,-9652.803275
814.183571,2294.638420,-740.205942,-10342.289223
814.183891,3182.885551,-1480.411884,-10265.679673
814.184211,222.061783,-1924.535449,-10112.460574
814.184531,-1332.370696,-814.226536,-9806.022374
814.184851,-1776.494261,1110.308913,-9729.412825
814.185171,2072.576638,3330.926739,-11108.384721
814.185491,1776.494261,3997.112087,-11031.775171
814.185811,-444.123565,592.164754,-9729.412825
814.186157,-740.205942,74.020594,-10112.460574
814.186477,1184.329507,-962.267725,-9959.241474
814.186797,2886.803174,-666.185348,-10648.727422
814.187117,74.020594,444.123565,-9959.241474
814.187437,-1110.308913,962.267725,-9422.974625
814.187757,0.000000,2146.597232,-10112.460574
814.188077,1332.370696,2294.638420,-10648.727422
814.188397,-1184.329507,1554.432478,-9959.241474
814.188717,-3034.844362,666.185348,-10035.851024
814.189037,-666.185348,0.000000,-9729.412825
814.189358,2442.679609,-592.164754,-10189.070123
814.189678,1628.453072,0.000000,-10418.898773
814.189998,-2072.576638,0.000000,-9729.412825
814.190318,-814.226536,0.000000,-9269.755526
814.190638,2072.576638,592.164754,-9729.412825
814.190958,3034.844362,592.164754,-9959.241474
814.191278,0.000000,370.102971,-9882.631924
814.191598,-1406.391290,222.061783,-9116.536426
814.191918,1258.350101,0.000000,-9652.803275
814.192238,2812.782580,444.123565,-9959.241474
814.192558,0.000000,222.061783,-10189.070123
814.192878,-1258.350101,-370.102971,-9193.145976
814.193198,-148.041188,-148.041188,-9116.536426
814.193518,1924.535449,740.205942,-10418.898773
814.193838,1702.473667,296.082377,-9806.022374
814.194158,-666.185348,-1110.308913,-9652.803275
814.194479,-518.144159,-1776.494261,-8886.707777
814.194799,1628.453072,-1184.329507,-9422.974625
814.195119,3182.885551,74.020594,-10725.336972
814.195439,2072.576638,1184.329507,-10418.898773
814.195759,296.082377,962.267725,-9806.022374
814.196079,1332.370696,1036.288319,-10572.117872
814.196399,3034.844362,592.164754,-10801.946522
814.196719,1332.370696,148.041188,-10878.556072
814.197039,-1110.308913,-962.267725,-10189.070123
814.197359,0.000000,-296.082377,-11261.603821
814.197679,2516.700203,0.000000,-10418.898773
814.197999,1776.494261,-592.164754,-10801.946522
814.198319,-888.247130,74.020594,-10189.070123
814.198639,-518.144159,1480.411884,-9959.241474
814.198959,1998.556043,2812.782580,-10955.165621
814.199279,3034.844362,2072.576638,-11031.775171
814.199600,222.061783,-296.082377,-10572.117872
814.199920,-2294.638420,-2220.617826,-7967.393179
814.200240,1480.411884,-1628.453072,-10342.289223
814.200560,2886.803174,-814.226536,-9806.022374
814.200880,1406.391290,-518.144159,-10418.898773
814.201200,-1924.535449,592.164754,-9422.974625
814.201520,-888.247130,1850.514855,-9729.412825
814.201840,1332.370696,2664.741391,-10112.460574
814.202160,1554.432478,1480.411884,-10342.289223
814.202480,-1258.350101,-1332.370696,-9269.755526
814.202800,-1628.453072,-2442.679609,-9116.536426
814.203120,1924.535449,-2220.617826,-9652.803275
814.203440,2220.617826,-1406.391290,-9576.193725
814.203760,-962.267725,-370.102971,-9729.412825
814.204080,-2072.576638,592.164754,-9116.536426
814.204400,592.164754,1702.473667,-9422.974625
814.204721,2812.782580,1554.432478,-10648.727422
814.205041,1258.350101,148.041188,-10112.460574
814.205361,-2220.617826,-148.041188,-9882.631924
814.205681,-1258.350101,-222.061783,-9959.241474
814.206001,1036.288319,-740.205942,-10342.289223
814.206321,814.226536,-148.041188,-10265.679673
814.206641,-1628.453072,0.000000,-9806.022374
814.206961,-1554.432478,1406.391290,-9882.631924
814.207281,2146.597232,3108.864956,-12257.527968
814.207601,3256.906145,2072.576638,-11338.213370
814.207921,1702.473667,2146.597232,-10495.508323
814.208241,222.061783,518.144159,-10035.851024
814.208561,1702.473667,-592.164754,-10265.679673
814.208881,1924.535449,-962.267725,-10801.946522
814.209201,-148.041188,74.020594,-10189.070123
814.209521,-1702.473667,1332.370696,-9729.412825
814.209842,296.082377,1776.494261,-9959.241474
814.210162,3404.947333,2664.741391,-10418.898773
814.210482,2146.597232,2220.617826,-10189.070123
814.210802,-592.164754,-444.123565,-9652.803275
814.211122,-1332.370696,-1480.411884,-9346.365076
814.211442,1110.308913,-1184.329507,-9269.755526
814.211762,2072.576638,-1258.350101,-9806.022374
814.212082,0.000000,-1184.329507,-9422.974625
814.212402,-1110.308913,1036.288319,-9422.974625
814.212722,1554.432478,2220.617826,-10725.336972
814.213042,3775.050304,3182.885551,-11261.603821
814.213362,1332.370696,2220.617826,-9806.022374
814.213682,-592.164754,0.000000,-9729.412825
814.214002,-962.267725,-1702.473667,-9576.193725
814.214322,1628.453072,-1924.535449,-9959.241474
814.214642,0.000000,-2294.638420,-10265.679673
814.214963,-2664.741391,-370.102971,-10035.851024
814.215283,-2220.617826,1702.473667,-9806.022374
814.215603,444.123565,2738.761985,-11031.775171
814.215923,1924.535449,2886.803174,-10955.165621
814.216243,-148.041188,1924.535449,-10418.898773
814.216563,-962.267725,666.185348,-10265.679673
814.216883,740.205942,-444.123565,-10418.898773
814.217203,2368.659014,-1406.391290,-11031.775171
814.217523,-666.185348,-2812.782580,-10418.898773
814.217843,-2738.761985,-1924.535449,-9422.974625
814.218163,-222.061783,888.247130,-10035.851024
814.218483,3034.844362,2442.679609,-10648.727422
814.218803,1998.556043,2886.803174,-10725.336972
814.219123,-2516.700203,1702.473667,-10495.508323
814.219443,-3034.844362,-518.144159,-9806.022374
814.219763,-518.144159,-1554.432478,-10189.070123
814.220084,1850.514855,-2516.700203,-9806.022374
814.220404,222.061783,-2368.659014,-9652.803275
814.220724,-888.247130,-2072.576638,-9499.584175
814.221044,1480.411884,444.123565,-9652.803275
814.221364,3775.050304,2960.823768,-10189.070123
