#time,accel_x,accel_y,accel_z
859.498190,296.082377,148.041188,-9882.631924
859.498510,666.185348,370.102971,-9806.022374
859.498830,666.185348,296.082377,-10112.460574
859.499150,666.185348,222.061783,-10035.851024
859.499470,370.102971,518.144159,-9882.631924
859.499791,74.020594,518.144159,-10265.679673
859.500111,296.082377,222.061783,-10112.460574
859.500431,592.164754,74.020594,-10035.851024
859.500751,666.185348,222.061783,-9806.022374
859.501071,962.267725,0.000000,-9882.631924
859.501391,592.164754,296.082377,-10189.070123
859.501711,740.205942,444.123565,-10265.679673
859.502032,666.185348,444.123565,-10112.460574
859.502352,370.102971,370.102971,-10342.289223
859.502672,148.041188,74.020594,-10265.679673
859.502992,0.000000,-148.041188,-10035.851024
859.503312,296.082377,-296.082377,-10035.851024
859.503632,296.082377,0.000000,-10189.070123
859.503952,74.020594,296.082377,-10112.460574
859.504272,0.000000,296.082377,-10112.460574
859.504593,296.082377,740.205942,-10265.679673
859.504913,962.267725,222.061783,-10265.679673
859.505233,444.123565,370.102971,-10265.679673
859.505553,370.102971,0.000000,-10265.679673
859.505873,222.061783,74.020594,-10189.070123
859.506193,444.123565,296.082377,-10112.460574
859.506513,444.123565,296.082377,-9959.241474
859.506834,-518.144159,0.000000,-10265.679673
859.507154,-1036.288319,-592.164754,-10035.851024
859.507474,-444.123565,-518.144159,-9806.022374
859.507794,-222.061783,-814.226536,-9806.022374
859.508114,-666.185348,-592.164754,-9959.241474
859.508434,-444.123565,-444.123565,-9959.241474
859.508754,0.000000,-370.102971,-9959.241474
859.509074,0.000000,-296.082377,-9959.241474
859.509395,-666.185348,-666.185348,-9729.412825
859.509715,-962.267725,-1110.308913,-9882.631924
859.510035,-518.144159,-1406.391290,-10035.851024
859.510355,-888.247130,-1036.288319,-9806.022374
859.510675,-1554.432478,-518.144159,-10648.727422
859.510995,-2146.597232,-1332.370696,-10035.851024
859.511315,-1554.432478,-1332.370696,-10035.851024
859.511635,-814.226536,-888.247130,-10189.070123
859.511956,-814.226536,-1258.350101,-9959.241474
859.512276,-2146.597232,-1332.370696,-10112.460574
859.512596,-1332.370696,-1184.329507,-9959.241474
859.512916,-518.144159,-1110.308913,-10112.460574
859.513236,-592.164754,-962.267725,-10265.679673
859.513556,-1924.535449,-2146.597232,-10265.679673
859.513876,-2738.761985,-3034.844362,-10112.460574
859.514197,-2368.659014,-3627.009116,-9499.584175
859.514517,-2072.576638,-3701.029710,-9959.241474
859.514837,-1702.473667,-4071.132681,-9652.803275
859.515157,-2738.761985,-4145.153275,-9652.803275
859.515477,-2146.597232,-3923.091493,-9806.022374
859.515797,-444.123565,-2960.823768,-9806.022374
859.516117,962.267725,-1924.535449,-10189.070123
859.516437,962.267725,-1332.370696,-10801.946522
859.516758,-370.102971,-1332.370696,-10342.289223
859.517078,-1776.494261,-2072.576638,-10265.679673
859.517398,-2664.741391,-2664.741391,-10265.679673
859.517718,-4219.173869,-3478.967927,-10495.508323
859.518038,-5329.482782,-4219.173869,-10035.851024
859.518358,-4959.379811,-5033.400406,-9729.412825
859.518678,-2368.659014,-5181.441594,-9806.022374
859.518999,-148.041188,-4219.173869,-10035.851024
859.519319,296.082377,-2368.659014,-10035.851024
859.519639,592.164754,-518.144159,-10495.508323
859.519959,1258.350101,592.164754,-10725.336972
859.520279,1776.494261,592.164754,-10418.898773
859.520599,1628.453072,0.000000,-10418.898773
859.520919,370.102971,-1480.411884,-10495.508323
859.521239,-1406.391290,-2590.720797,-10418.898773
859.521560,-3330.926739,-3256.906145,-10265.679673
859.521880,-4959.379811,-3552.988522,-9806.022374
859.522200,-4885.359217,-4515.256246,-9116.536426
859.522520,-3701.029710,-5403.503377,-9422.974625
859.522840,-1110.308913,-5255.462188,-9576.193725
859.523160,1036.288319,-4071.132681,-9729.412825
859.523480,1702.473667,-1480.411884,-9576.193725
859.523800,2812.782580,814.226536,-10035.851024
859.524121,3701.029710,2738.761985,-10418.898773
859.524441,3256.906145,3552.988522,-10878.556072
859.524761,0.000000,2516.700203,-10801.946522
859.525081,-3923.091493,-888.247130,-10035.851024
859.525401,-5921.647536,-4145.153275,-9652.803275
859.525721,-5181.441594,-6587.832884,-9499.584175
859.526041,-4145.153275,-7031.956449,-9346.365076
859.526362,-4441.235652,-5995.668130,-9346.365076
859.526682,-2590.720797,-3997.112087,-9729.412825
859.527002,-148.041188,-814.226536,-10112.460574
859.527322,1702.473667,1776.494261,-10495.508323
859.527642,2220.617826,3182.885551,-10418.898773
859.527962,2738.761985,3034.844362,-10725.336972
859.528282,3034.844362,1702.473667,-10801.946522
859.528602,888.247130,148.041188,-10495.508323
859.528923,-1776.494261,-888.247130,-10342.289223
859.529243,-4367.215058,-1258.350101,-9576.193725
859.529563,-5699.585753,-2220.617826,-10112.460574
859.529883,-6439.791695,-3478.967927,-9652.803275
859.530203,-7550.100608,-4959.379811,-9422.974625
859.530523,-6143.709319,-4959.379811,-9729.412825
859.530843,-2368.659014,-4219.173869,-9576.193725
859.531163,1554.432478,-888.247130,-10265.679673
859.531484,3256.906145,1406.391290,-10342.289223
859.531804,3108.864956,2812.782580,-10418.898773
859.532124,2886.803174,3997.112087,-10189.070123
859.532444,1850.514855,3330.926739,-11031.775171
859.532764,1628.453072,666.185348,-10572.117872
859.533084,-1036.288319,-2590.720797,-10418.898773
859.533404,-4811.338623,-4441.235652,-10189.070123
859.533725,-6735.874072,-5329.482782,-9806.022374
859.534045,-9104.533087,-4589.276840,-9576.193725
859.534365,-7920.203579,-3997.112087,-8733.488677
859.534685,-5329.482782,-3997.112087,-9422.974625
859.535005,-444.123565,-3478.967927,-9806.022374
859.535325,2368.659014,-2516.700203,-10572.117872
859.535645,3478.967927,-1406.391290,-10495.508323
859.535965,3849.070898,962.267725,-10495.508323
859.536286,4071.132681,2368.659014,-9039.926876
859.536606,4219.173869,3108.864956,-10495.508323
859.536926,2368.659014,1480.411884,-10955.165621
859.537246,-2590.720797,-1332.370696,-10572.117872
859.537566,-5699.585753,-3701.029710,-10342.289223
859.537886,-7105.977043,-7179.997637,-9422.974625
859.538206,-6291.750507,-9178.553681,-9193.145976
859.538527,-5699.585753,-8586.388927,-8963.317327
859.538847,-5033.400406,-6143.709319,-9269.755526
859.539167,-2368.659014,-3256.906145,-9039.926876
859.539487,1924.535449,-1554.432478,-9882.631924
859.539807,5181.441594,740.205942,-10265.679673
859.540127,5921.647536,2516.700203,-11338.213370
859.540447,3108.864956,2368.659014,-11338.213370
859.540767,-148.041188,370.102971,-10495.508323
859.541088,-2516.700203,-1184.329507,-10112.460574
859.541408,-3775.050304,-2146.597232,-10342.289223
859.541728,-5329.482782,-4367.215058,-10035.851024
859.542048,-7328.038826,-5921.647536,-9116.536426
859.542368,-7550.100608,-7698.141797,-8886.707777
859.542688,-5699.585753,-7476.080014,-9652.803275
859.543008,-1332.370696,-5699.585753,-9806.022374
859.543328,74.020594,-2960.823768,-10035.851024
859.543649,-148.041188,-666.185348,-10035.851024
859.543969,222.061783,1776.494261,-9882.631924
859.544289,2368.659014,2368.659014,-11184.994271
859.544609,4663.297435,2368.659014,-10955.165621
859.544929,3256.906145,666.185348,-11184.994271
859.545249,74.020594,-1184.329507,-10418.898773
859.545569,-2516.700203,-3108.864956,-10418.898773
859.545890,-5107.421000,-4737.318029,-10112.460574
859.546210,-7550.100608,-5847.626942,-9422.974625
859.546530,-7254.018232,-6439.791695,-9269.755526
859.546850,-5403.503377,-4145.153275,-9269.755526
859.547170,-2294.638420,-2516.700203,-9729.412825
859.547490,962.267725,-444.123565,-9806.022374
859.547810,3849.070898,518.144159,-11721.261119
859.548130,4885.359217,296.082377,-10801.946522
859.548451,2812.782580,-148.041188,-10342.289223
859.548771,1184.329507,1258.350101,-10189.070123
859.549091,1110.308913,2812.782580,-10648.727422
859.549411,888.247130,1702.473667,-10878.556072
859.549731,0.000000,-222.061783,-10418.898773
859.550051,-2664.741391,-3478.967927,-9652.803275
859.550371,-4071.132681,-4219.173869,-9806.022374
859.550692,-3997.112087,-3997.112087,-9652.803275
859.551012,-4663.297435,-2738.761985,-9346.365076
859.551332,-2812.782580,-2072.576638,-9039.926876
859.551652,-1184.329507,-1406.391290,-9346.365076
859.551972,1184.329507,-592.164754,-10112.460574
859.552292,3034.844362,-148.041188,-9729.412825
859.552612,4293.194464,2664.741391,-10418.898773
859.552932,2960.823768,4293.194464,-11031.775171
859.553253,296.082377,3256.906145,-10648.727422
859.553573,-2220.617826,1036.288319,-10342.289223
859.553893,-3034.844362,-1406.391290,-9422.974625
859.554213,-3330.926739,-4145.153275,-9806.022374
859.554533,-3182.885551,-4737.318029,-9193.145976
859.554853,-2368.659014,-2664.741391,-10112.460574
859.555173,-1110.308913,-814.226536,-9882.631924
859.555493,888.247130,814.226536,-9882.631924
859.555813,962.267725,1628.453072,-9806.022374
859.556133,1554.432478,2664.741391,-10112.460574
859.556453,2590.720797,3256.906145,-10648.727422
859.556773,3923.091493,2368.659014,-10955.165621
859.557093,4515.256246,2294.638420,-11031.775171
859.557413,592.164754,740.205942,-10801.946522
859.557733,-1924.535449,-666.185348,-10112.460574
859.558053,-2220.617826,-1184.329507,-9576.193725
859.558373,-1998.556043,-1110.308913,-10112.460574
859.558693,-1554.432478,-666.185348,-10035.851024
859.559013,-518.144159,-2072.576638,-10189.070123
859.559333,0.000000,-2368.659014,-9729.412825
859.559653,0.000000,-1628.453072,-9806.022374
859.559973,888.247130,814.226536,-10112.460574
859.560293,2368.659014,2072.576638,-10112.460574
859.560613,3552.988522,2886.803174,-10265.679673
859.560933,4737.318029,3552.988522,-10801.946522
859.561253,4515.256246,2294.638420,-10878.556072
859.561573,1998.556043,-814.226536,-10342.289223
859.561893,-1998.556043,-3034.844362,-9576.193725
859.562213,-3478.967927,-2220.617826,-9116.536426
859.562533,-4145.153275,-2590.720797,-9729.412825
859.562853,-3478.967927,-2590.720797,-9729.412825
859.563173,-1110.308913,-1258.350101,-9729.412825
859.563493,74.020594,-962.267725,-11031.775171
859.563813,1258.350101,-148.041188,-10112.460574
859.564133,1924.535449,740.205942,-9729.412825
859.564453,2220.617826,962.267725,-10265.679673
859.564773,2072.576638,0.000000,-9729.412825
859.565093,1998.556043,148.041188,-10342.289223
859.565413,2368.659014,518.144159,-10035.851024
859.565733,370.102971,2146.597232,-10418.898773
859.566053,-666.185348,1628.453072,-10495.508323
859.566373,-1406.391290,296.082377,-9959.241474
859.566693,-1628.453072,-2886.803174,-9729.412825
859.567013,-2738.761985,-5033.400406,-9193.145976
859.567333,-2220.617826,-4293.194464,-9729.412825
859.567653,-370.102971,-962.267725,-10648.727422
859.567973,370.102971,148.041188,-10189.070123
859.568293,1628.453072,2738.761985,-10495.508323
859.568613,1924.535449,3330.926739,-10112.460574
859.568933,2442.679609,2812.782580,-11031.775171
859.569253,2368.659014,740.205942,-11031.775171
859.569573,1554.432478,-592.164754,-10495.508323
859.569893,74.020594,0.000000,-10418.898773
859.570213,-1554.432478,-222.061783,-10342.289223
859.570533,-740.205942,-1110.308913,-10112.460574
859.570853,-1110.308913,-1998.556043,-9959.241474
859.571173,-1258.350101,-2220.617826,-10342.289223
859.571493,296.082377,-1998.556043,-9806.022374
859.571813,74.020594,-962.267725,-10265.679673
859.572133,1258.350101,-518.144159,-9576.193725
859.572453,2516.700203,592.164754,-10189.070123
859.572773,3478.967927,666.185348,-10112.460574
859.573093,2886.803174,-518.144159,-9729.412825
859.573413,2368.659014,-222.061783,-10189.070123
859.573733,2590.720797,-518.144159,-10342.289223
859.574053,0.000000,814.226536,-10648.727422
859.574373,-962.267725,-296.082377,-9959.241474
859.574693,-962.267725,-518.144159,-9499.584175
859.575013,0.000000,-518.144159,-9806.022374
859.575333,-1110.308913,-222.061783,-9882.631924
859.575653,-666.185348,-2072.576638,-10495.508323
859.575973,-444.123565,-296.082377,-9576.193725
859.576293,666.185348,1998.556043,-8963.317327
859.576613,2146.597232,4145.153275,-10342.289223
859.576933,3182.885551,3034.844362,-10189.070123
859.577253,3627.009116,2516.700203,-10725.336972
859.577573,2738.761985,1924.535449,-9806.022374
859.577893,1184.329507,296.082377,-10189.070123
859.578213,-888.247130,-1702.473667,-9729.412825
859.578533,-2072.576638,-962.267725,-9729.412825
859.578853,-1184.329507,-296.082377,-9882.631924
859.579173,0.000000,-444.123565,-10572.117872
859.579493,814.226536,370.102971,-9959.241474
859.579813,-444.123565,0.000000,-10265.679673
859.580133,-148.041188,222.061783,-10418.898773
859.580453,148.041188,1184.329507,-8886.707777
859.580773,1110.308913,1036.288319,-10342.289223
859.581093,2886.803174,1110.308913,-10035.851024
859.581413,3034.844362,740.205942,-10495.508323
859.581733,2516.700203,444.123565,-10878.556072
859.582053,1036.288319,222.061783,-10112.460574
859.582373,-1258.350101,1628.453072,-10189.070123
859.582693,-3256.906145,1184.329507,-9882.631924
859.583013,-2146.597232,-296.082377,-9806.022374
859.583333,444.123565,-2442.679609,-9882.631924
859.583653,-296.082377,-962.267725,-10189.070123
859.583973,-2220.617826,-74.020594,-9806.022374
859.584293,-1184.329507,518.144159,-10189.070123
859.584613,1036.288319,1998.556043,-9806.022374
859.584933,2590.720797,3552.988522,-10342.289223
859.585253,1332.370696,2220.617826,-10265.679673
859.585573,370.102971,1628.453072,-10035.851024
859.585893,1554.432478,74.020594,-10189.070123
859.586213,962.267725,296.082377,-9806.022374
859.586533,-444.123565,74.020594,-10342.289223
859.586853,-2072.576638,-444.123565,-9729.412825
859.587173,-1850.514855,-1480.411884,-9652.803275
859.587493,-1184.329507,-814.226536,-10112.460574
859.587813,0.000000,-518.144159,-9959.241474
859.588133,740.205942,444.123565,-10112.460574
859.588453,1850.514855,1850.514855,-10572.117872
859.588773,962.267725,2072.576638,-10035.851024
859.589093,1332.370696,1184.329507,-11568.042020
859.589413,2886.803174,0.000000,-10189.070123
859.589733,2664.741391,370.102971,-9959.241474
859.590053,1850.514855,1036.288319,-10265.679673
859.590373,592.164754,1036.288319,-10035.851024
859.590693,0.000000,74.020594,-11031.775171
859.591013,592.164754,-962.267725,-9959.241474
859.591333,-444.123565,-1924.535449,-9576.193725
859.591653,-222.061783,-888.247130,-9882.631924
859.591973,148.041188,296.082377,-9806.022374
859.592293,1628.453072,0.000000,-10418.898773
859.592613,2886.803174,-296.082377,-10189.070123
859.592933,2442.679609,-296.082377,-10189.070123
859.593253,2886.803174,962.267725,-9652.803275
859.593573,3701.029710,2294.638420,-10189.070123
859.593893,2664.741391,3330.926739,-10189.070123
859.594213,1850.514855,1850.514855,-10572.117872
859.594533,1332.370696,296.082377,-10265.679673
859.594853,0.000000,-2220.617826,-9346.365076
859.595173,-666.185348,-3701.029710,-9729.412825
859.595493,-444.123565,-592.164754,-9806.022374
859.595813,0.000000,1332.370696,-9806.022374
859.596133,1258.350101,0.000000,-9806.022374
859.596453,1258.350101,1184.329507,-9882.631924
859.596773,0.000000,-444.123565,-10265.679673
859.597093,296.082377,0.000000,-10112.460574
859.597413,1110.308913,-222.061783,-9806.022374
859.597733,1850.514855,222.061783,-10189.070123
859.598053,2072.576638,1406.391290,-10495.508323
859.598373,222.061783,444.123565,-10418.898773
859.598693,-666.185348,-148.041188,-10418.898773
859.599013,-1924.535449,222.061783,-10648.727422
859.599333,-2368.659014,444.123565,-10112.460574
859.599653,-296.082377,1406.391290,-10265.679673
859.599973,0.000000,592.164754,-10418.898773
859.600293,-1480.411884,-1332.370696,-9729.412825
859.600613,-2146.597232,-2072.576638,-10189.070123
859.600933,-1184.329507,-1480.411884,-10035.851024
859.601253,-444.123565,1110.308913,-10189.070123
859.601573,2442.679609,2960.823768,-10878.556072
859.601893,2960.823768,2886.803174,-10265.679673
859.602213,370.102971,2368.659014,-10112.460574
859.602533,296.082377,814.226536,-10572.117872
859.602853,1036.288319,-814.226536,-10035.851024
859.603173,74.020594,740.205942,-10878.556072
859.603493,-444.123565,74.020594,-9806.022374
859.603813,-1110.308913,74.020594,-9576.193725
859.604133,0.000000,-1110.308913,-10112.460574
859.604453,296.082377,-370.102971,-9806.022374
859.604773,74.020594,-296.082377,-10189.070123
859.605093,1406.391290,0.000000,-10189.070123
859.605413,592.164754,1776.494261,-9652.803275
859.605733,518.144159,2516.700203,-10418.898773
859.606053,740.205942,444.123565,-10112.460574
859.606373,-814.226536,-1332.370696,-9806.022374
859.606693,-962.267725,-1480.411884,-9652.803275
859.607013,-740.205942,-740.205942,-10035.851024
859.607333,444.123565,-370.102971,-9806.022374
859.607653,962.267725,-518.144159,-10418.898773
859.607973,518.144159,0.000000,-9576.193725
859.608293,222.061783,222.061783,-10035.851024
859.608613,222.061783,-296.082377,-9729.412825
859.608933,2220.617826,-370.102971,-10495.508323
859.609253,3182.885551,0.000000,-10801.946522
859.609573,1184.329507,1332.370696,-9959.241474
859.609893,1110.308913,2442.679609,-10418.898773
859.610213,1628.453072,1110.308913,-10342.289223
859.610533,1702.473667,1184.329507,-10189.070123
859.610853,296.082377,0.000000,-10495.508323
859.611173,592.164754,-592.164754,-10342.289223
859.611493,-1332.370696,-1110.308913,-9422.974625
859.611813,-2146.597232,148.041188,-9806.022374
859.612133,-296.082377,1110.308913,-9806.022374
859.612453,1924.535449,592.164754,-10495.508323
859.612773,1924.535449,0.000000,-10342.289223
859.613093,3330.926739,148.041188,-10342.289223
859.613413,3552.988522,444.123565,-10112.460574
859.613733,1258.350101,1406.391290,-10725.336972
859.614053,666.185348,1924.535449,-10418.898773
859.614373,74.020594,962.267725,-10265.679673
859.614693,814.226536,-1702.473667,-10035.851024
859.615013,222.061783,-2442.679609,-9269.755526
859.615333,-740.205942,-3034.844362,-9959.241474
859.615653,-1406.391290,-1850.514855,-9422.974625
859.615973,-1332.370696,-1184.329507,-9652.803275
859.616293,148.041188,-1554.432478,-9576.193725
859.616613,370.102971,-814.226536,-9959.241474
859.616933,518.144159,370.102971,-9959.241474
859.617253,1776.494261,2442.679609,-10648.727422
859.617573,1184.329507,3627.009116,-10112.460574
859.617893,148.041188,1924.535449,-10342.289223
859.618213,1554.432478,222.061783,-9959.241474
859.618533,2442.679609,-1184.329507,-9959.241474
859.618853,1480.411884,-2072.576638,-9806.022374
859.619173,-148.041188,-444.123565,-10035.851024
859.619493,-444.123565,0.000000,-10112.460574
859.619813,-1554.432478,74.020594,-9882.631924
859.620133,-592.164754,1776.494261,-10035.851024
859.620453,-370.102971,2960.823768,-10189.070123
859.620773,-222.061783,2368.659014,-10648.727422
859.621093,1702.473667,1480.411884,-10495.508323
859.621413,1998.556043,222.061783,-10572.117872
859.621733,2072.576638,-370.102971,-10035.851024
859.622053,0.000000,0.000000,-9269.755526
859.622373,-1480.411884,0.000000,-9882.631924
859.622693,888.247130,-296.082377,-10418.898773
859.623013,2072.576638,0.000000,-9652.803275
859.623333,0.000000,2220.617826,-9806.022374
859.623653,74.020594,814.226536,-10112.460574
859.623973,296.082377,0.000000,-9882.631924
859.624293,888.247130,-1406.391290,-9729.412825
859.624613,3552.988522,-1036.288319,-10112.460574
859.624933,1332.370696,-1628.453072,-9959.241474
859.625253,-1110.308913,0.000000,-9729.412825
859.625573,-888.247130,444.123565,-10189.070123
859.625893,666.185348,2516.700203,-10418.898773
859.626213,0.000000,3701.029710,-10648.727422
859.626533,148.041188,2368.659014,-10725.336972
859.626853,-296.082377,-962.267725,-9729.412825
859.627173,148.041188,-1480.411884,-10189.070123
859.627493,888.247130,-370.102971,-9806.022374
859.627813,1036.288319,-222.061783,-10572.117872
859.628133,1110.308913,1850.514855,-10648.727422
859.628453,370.102971,3256.906145,-10112.460574
859.628773,2072.576638,4071.132681,-10801.946522
859.629093,2590.720797,5847.626942,-10342.289223
859.629413,888.247130,6217.729913,-10725.336972
859.629733,148.041188,4737.318029,-10801.946522
859.630053,370.102971,1554.432478,-9959.241474
859.630373,-666.185348,-1628.453072,-8427.050478
859.630693,370.102971,-2812.782580,-8810.098227
859.631013,2294.638420,-1998.556043,-9422.974625
859.631333,1406.391290,-888.247130,-9806.022374
859.631653,370.102971,370.102971,-10112.460574
859.631973,0.000000,888.247130,-9652.803275
859.632293,-814.226536,2072.576638,-10035.851024
859.632613,-74.020594,1776.494261,-9806.022374
859.632933,1332.370696,-518.144159,-9576.193725
859.633253,3034.844362,-1628.453072,-10112.460574
859.633573,1406.391290,-2664.741391,-9652.803275
859.633893,962.267725,-2220.617826,-9882.631924
859.634213,888.247130,-370.102971,-9499.584175
859.634533,296.082377,1184.329507,-10725.336972
859.634853,592.164754,2368.659014,-10495.508323
859.635173,1110.308913,1998.556043,-10265.679673
859.635493,-592.164754,1258.350101,-9806.022374
859.635813,-1628.453072,666.185348,-10189.070123
859.636133,-1184.329507,-444.123565,-11184.994271
859.636453,-666.185348,-740.205942,-9806.022374
859.636773,-888.247130,-518.144159,-9576.193725
859.637093,74.020594,74.020594,-10112.460574
859.637413,1480.411884,592.164754,-9882.631924
859.637733,1406.391290,2072.576638,-10342.289223
859.638053,1110.308913,2368.659014,-10342.289223
859.638373,1850.514855,1110.308913,-10112.460574
859.638693,0.000000,888.247130,-10265.679673
859.639013,962.267725,-1258.350101,-9882.631924
859.639333,740.205942,-2516.700203,-10265.679673
859.639653,1258.350101,-1702.473667,-10265.679673
859.639973,148.041188,-962.267725,-11184.994271
859.640293,74.020594,0.000000,-10265.679673
859.640613,-296.082377,1258.350101,-10112.460574
859.640933,-888.247130,1480.411884,-10572.117872
859.641253,888.247130,1036.288319,-10112.460574
859.641573,2072.576638,-740.205942,-10648.727422
859.641893,1924.535449,-2072.576638,-10035.851024
859.642213,1332.370696,-3182.885551,-10265.679673
859.642533,444.123565,-1258.350101,-10418.898773
859.642853,740.205942,962.267725,-10265.679673
859.643173,1184.329507,2368.659014,-9882.631924
859.643493,1850.514855,2220.617826,-10265.679673
859.643813,148.041188,74.020594,-10112.460574
859.644133,-370.102971,-1332.370696,-9806.022374
859.644453,-444.123565,-2368.659014,-9346.365076
859.644773,-666.185348,-1332.370696,-9806.022374
859.645093,-1110.308913,1036.288319,-9806.022374
859.645413,148.041188,888.247130,-9959.241474
859.645733,2146.597232,1924.535449,-10189.070123
859.646053,0.000000,1850.514855,-9806.022374
859.646373,-666.185348,1628.453072,-10418.898773
859.646693,-1110.308913,1628.453072,-9882.631924
859.647013,-1332.370696,0.000000,-9729.412825
859.647333,-148.041188,0.000000,-9882.631924
859.647653,-148.041188,-1628.453072,-9652.803275
859.647973,74.020594,-1480.411884,-10265.679673
859.648293,518.144159,-888.247130,-9959.241474
859.648613,1702.473667,-148.041188,-10648.727422
859.648933,1110.308913,1554.432478,-9882.631924
859.649253,888.247130,2294.638420,-10112.460574
859.649573,2146.597232,2146.597232,-10801.946522
859.649893,1628.453072,1036.288319,-10648.727422
859.650213,-740.205942,-222.061783,-10342.289223
859.650533,-1332.370696,74.020594,-10495.508323
859.650853,-370.102971,-148.041188,-10265.679673
859.651173,-148.041188,444.123565,-10342.289223
859.651493,740.205942,518.144159,-10265.679673
859.651813,962.267725,444.123565,-10189.070123
859.652133,888.247130,-148.041188,-10112.460574
859.652453,0.000000,740.205942,-9882.631924
859.652773,0.000000,2368.659014,-10418.898773
859.653093,888.247130,3404.947333,-10112.460574
859.653413,2812.782580,1850.514855,-10418.898773
859.653733,3701.029710,814.226536,-10189.070123
859.654053,3108.864956,-444.123565,-9576.193725
859.654373,1628.453072,-740.205942,-9806.022374
859.654693,1406.391290,0.000000,-9346.365076
859.655013,666.185348,740.205942,-10112.460574
859.655333,74.020594,1480.411884,-9576.193725
859.655653,-518.144159,1332.370696,-9729.412825
859.655973,1924.535449,0.000000,-8503.660028
859.656293,2664.741391,-222.061783,-9882.631924
859.656613,1184.329507,-222.061783,-9959.241474
859.656933,1184.329507,222.061783,-9959.241474
859.657254,-518.144159,592.164754,-9729.412825
859.657574,-518.144159,1184.329507,-10189.070123
859.657894,148.041188,962.267725,-10189.070123
859.658214,444.123565,-148.041188,-10572.117872
859.658534,888.247130,-74.020594,-10112.460574
859.658854,1036.288319,-370.102971,-10035.851024
859.659174,962.267725,0.000000,-10572.117872
859.659494,0.000000,0.000000,-10189.070123
859.659814,-592.164754,-148.041188,-10265.679673
859.660134,962.267725,0.000000,-11261.603821
859.660454,1480.411884,370.102971,-10189.070123
859.660775,296.082377,740.205942,-10572.117872
859.661095,-1036.288319,1480.411884,-10648.727422
859.661415,-2590.720797,1258.350101,-10112.460574
859.661735,-1998.556043,0.000000,-11261.603821
859.662055,592.164754,-296.082377,-10112.460574
859.662375,1702.473667,-666.185348,-10189.070123
859.662695,222.061783,370.102971,-10418.898773
859.663015,-518.144159,1332.370696,-10572.117872
859.663335,-1406.391290,1998.556043,-10725.336972
859.663655,-1406.391290,962.267725,-10112.460574
859.663975,-518.144159,0.000000,-9499.584175
859.664295,370.102971,-1184.329507,-9882.631924
859.664616,1184.329507,-2442.679609,-9806.022374
859.664936,1110.308913,-2072.576638,-9806.022374
859.665256,1258.350101,-814.226536,-10035.851024
859.665576,0.000000,888.247130,-9882.631924
859.665896,222.061783,2220.617826,-10189.070123
859.666216,1332.370696,1628.453072,-10035.851024
859.666536,1184.329507,74.020594,-9959.241474
859.666856,0.000000,-1702.473667,-9346.365076
859.667176,-518.144159,-3627.009116,-9729.412825
859.667496,-592.164754,-3775.050304,-9422.974625
859.667816,-1184.329507,-1628.453072,-9576.193725
859.668136,0.000000,-962.267725,-9959.241474
859.668457,1036.288319,222.061783,-10189.070123
859.668777,888.247130,518.144159,-10189.070123
859.669097,-592.164754,666.185348,-11031.775171
859.669417,-666.185348,592.164754,-10495.508323
859.669737,-592.164754,592.164754,-10418.898773
859.670057,222.061783,1110.308913,-10801.946522
859.670377,1480.411884,814.226536,-10418.898773
859.670697,2146.597232,962.267725,-10648.727422
859.671017,1628.453072,0.000000,-10342.289223
859.671337,1554.432478,222.061783,-10189.070123
859.671657,1036.288319,1406.391290,-10572.117872
859.671978,-296.082377,1628.453072,-10035.851024
859.672298,74.020594,370.102971,-10418.898773
859.672618,666.185348,0.000000,-9806.022374
859.672938,666.185348,518.144159,-10035.851024
859.673258,518.144159,2368.659014,-10725.336972
859.673578,1110.308913,4589.276840,-10572.117872
859.673898,814.226536,5329.482782,-10495.508323
859.674218,1332.370696,3330.926739,-10035.851024
859.674538,3701.029710,-296.082377,-9193.145976
859.674858,2812.782580,-3478.967927,-9806.022374
859.675178,1702.473667,-3330.926739,-9039.926876
859.675498,0.000000,-1036.288319,-9652.803275
859.675819,-370.102971,1850.514855,-10418.898773
859.676139,0.000000,4071.132681,-10035.851024
859.676459,592.164754,1702.473667,-9729.412825
859.676779,1406.391290,962.267725,-10112.460574
859.677099,1702.473667,-1480.411884,-9422.974625
859.677419,1998.556043,-1776.494261,-9806.022374
859.677739,2738.761985,-444.123565,-10189.070123
859.678059,1480.411884,370.102971,-9806.022374
859.678379,740.205942,666.185348,-10189.070123
859.678699,740.205942,222.061783,-9729.412825
859.679019,148.041188,1184.329507,-9806.022374
859.679339,-1406.391290,1554.432478,-9806.022374
859.679660,-1258.350101,1110.308913,-10112.460574
859.679980,666.185348,666.185348,-9806.022374
859.680300,-296.082377,296.082377,-9729.412825
859.680620,-370.102971,-1628.453072,-9806.022374
859.680940,-222.061783,-1258.350101,-9806.022374
859.681260,444.123565,-148.041188,-9806.022374
859.681580,2294.638420,962.267725,-9729.412825
859.681900,1924.535449,1406.391290,-10495.508323
859.682220,1480.411884,1998.556043,-9806.022374
859.682540,74.020594,518.144159,-9959.241474
859.682860,592.164754,-444.123565,-10189.070123
859.683181,1998.556043,-444.123565,-10035.851024
859.683501,444.123565,-370.102971,-10342.289223
859.683821,-296.082377,-296.082377,-10418.898773
859.684141,-1924.535449,-370.102971,-10112.460574
859.684461,-2220.617826,-444.123565,-9806.022374
859.684781,-1406.391290,-814.226536,-9882.631924
859.685101,1110.308913,-1036.288319,-10189.070123
859.685421,1554.432478,74.020594,-10648.727422
859.685741,370.102971,814.226536,-10648.727422
859.686061,-444.123565,888.247130,-10112.460574
859.686381,-592.164754,74.020594,-10035.851024
859.686701,592.164754,-666.185348,-10265.679673
859.687022,1776.494261,-1036.288319,-9652.803275
859.687342,-148.041188,-518.144159,-10265.679673
859.687662,-1554.432478,444.123565,-9959.241474
859.687982,-592.164754,222.061783,-10112.460574
859.688302,-296.082377,222.061783,-9959.241474
859.688622,-592.164754,-592.164754,-9806.022374
859.688942,666.185348,-1110.308913,-9806.022374
859.689262,888.247130,-888.247130,-9806.022374
859.689582,370.102971,444.123565,-9576.193725
859.689902,-296.082377,1406.391290,-9806.022374
859.690222,-1036.288319,1554.432478,-9806.022374
859.690542,1110.308913,222.061783,-10418.898773
859.690863,2738.761985,-296.082377,-9806.022374
859.691183,1924.535449,-740.205942,-9806.022374
859.691503,296.082377,740.205942,-10189.070123
859.691823,-296.082377,2072.576638,-10342.289223
859.692143,592.164754,2294.638420,-10342.289223
859.692463,592.164754,1036.288319,-10112.460574
859.692783,0.000000,-666.185348,-10265.679673
859.693103,222.061783,-1628.453072,-10035.851024
859.693423,1776.494261,-1110.308913,-10035.851024
859.693743,1554.432478,0.000000,-9652.803275
859.694063,3330.926739,666.185348,-10495.508323
859.694384,1776.494261,1110.308913,-10495.508323
859.694704,148.041188,592.164754,-10342.289223
859.695024,888.247130,814.226536,-9882.631924
859.695344,1702.473667,1628.453072,-10878.556072
859.695664,1776.494261,1702.473667,-10418.898773
859.695984,1258.350101,1258.350101,-10342.289223
859.696304,1184.329507,148.041188,-10342.289223
859.696624,1110.308913,-592.164754,-9806.022374
859.696944,0.000000,-888.247130,-9959.241474
859.697264,0.000000,222.061783,-9806.022374
859.697584,370.102971,666.185348,-9652.803275
859.697904,518.144159,592.164754,-10112.460574
859.698225,740.205942,444.123565,-9959.241474
859.698545,1184.329507,74.020594,-10035.851024
859.698865,-444.123565,1406.391290,-9729.412825
859.699185,1258.350101,2664.741391,-10265.679673
859.699505,2664.741391,1554.432478,-9959.241474
859.699825,3034.844362,-740.205942,-9959.241474
859.700145,1554.432478,-1554.432478,-10035.851024
859.700465,-518.144159,-1332.370696,-10112.460574
859.700785,-1628.453072,-666.185348,-9806.022374
859.701105,-2516.700203,814.226536,-9652.803275
859.701425,-1702.473667,2146.597232,-10495.508323
859.701745,-592.164754,962.267725,-10648.727422
859.702066,370.102971,-222.061783,-10495.508323
859.702386,-444.123565,-1480.411884,-10112.460574
859.702706,-1184.329507,-814.226536,-10725.336972
859.703026,-814.226536,-222.061783,-10265.679673
859.703346,-814.226536,0.000000,-10342.289223
859.703666,1110.308913,592.164754,-10572.117872
859.703986,1258.350101,518.144159,-10955.165621
859.704306,370.102971,-370.102971,-10342.289223
859.704626,518.144159,296.082377,-10495.508323
859.704946,814.226536,962.267725,-10189.070123
859.705266,1110.308913,1776.494261,-10495.508323
859.705587,1258.350101,-370.102971,-10035.851024
859.705907,814.226536,-1998.556043,-8963.317327
859.706227,-296.082377,-3404.947333,-9422.974625
859.706547,0.000000,-1554.432478,-9806.022374
859.706867,-444.123565,370.102971,-10189.070123
859.707187,-740.205942,2368.659014,-10112.460574
859.707507,-1110.308913,2294.638420,-9959.241474
859.707827,1036.288319,74.020594,-9882.631924
859.708147,1776.494261,-1628.453072,-9729.412825
859.708467,888.247130,-2442.679609,-9576.193725
859.708787,0.000000,-518.144159,-10189.070123
859.709107,-444.123565,222.061783,-10112.460574
859.709428,1184.329507,592.164754,-9959.241474
859.709748,1554.432478,1184.329507,-9959.241474
859.710068,814.226536,222.061783,-9652.803275
859.710388,148.041188,-740.205942,-9882.631924
859.710708,222.061783,-444.123565,-10189.070123
859.711028,1110.308913,0.000000,-10189.070123
859.711348,74.020594,740.205942,-10189.070123
859.711668,-518.144159,444.123565,-10418.898773
859.711988,666.185348,-962.267725,-10189.070123
859.712308,1554.432478,-1406.391290,-10725.336972
859.712628,1776.494261,148.041188,-10572.117872
859.712948,962.267725,148.041188,-10418.898773
859.713269,1184.329507,1924.535449,-10572.117872
859.713589,962.267725,1776.494261,-10572.117872
859.713909,0.000000,296.082377,-10035.851024
859.714229,1332.370696,-962.267725,-10265.679673
859.714549,1406.391290,222.061783,-9959.241474
859.714869,1258.350101,-148.041188,-10572.117872
859.715189,2072.576638,1184.329507,-10495.508323
859.715509,1480.411884,3849.070898,-10418.898773
859.715829,888.247130,6143.709319,-10955.165621
859.716149,1554.432478,4959.379811,-10265.679673
859.716469,2072.576638,2960.823768,-10035.851024
859.716790,1110.308913,222.061783,-10265.679673
859.717110,370.102971,-1998.556043,-9346.365076
859.717430,0.000000,-2368.659014,-9806.022374
859.717750,222.061783,-1702.473667,-8656.879127
859.718070,1184.329507,-592.164754,-9882.631924
859.718390,2220.617826,1924.535449,-10035.851024
859.718710,1184.329507,2368.659014,-10725.336972
859.719030,814.226536,3108.864956,-10112.460574
859.719350,222.061783,2220.617826,-10189.070123
859.719670,296.082377,74.020594,-9652.803275
859.719990,444.123565,-1258.350101,-9576.193725
859.720310,1110.308913,-2590.720797,-9729.412825
859.720631,370.102971,-2368.659014,-10035.851024
859.720951,-740.205942,-888.247130,-10035.851024
859.721271,0.000000,148.041188,-10418.898773
859.721591,0.000000,2220.617826,-9806.022374
859.721911,74.020594,2812.782580,-10572.117872
859.722231,0.000000,3034.844362,-10189.070123
859.722551,-222.061783,814.226536,-10112.460574
859.722871,592.164754,-222.061783,-10572.117872
859.723191,666.185348,-1332.370696,-9806.022374
859.723511,1036.288319,-2442.679609,-10572.117872
859.723831,518.144159,-1924.535449,-9729.412825
859.724151,-370.102971,740.205942,-9959.241474
859.724472,-148.041188,2590.720797,-10189.070123
859.724792,518.144159,3404.947333,-10495.508323
859.725112,0.000000,2886.803174,-10572.117872
859.725432,0.000000,888.247130,-10495.508323
859.725752,0.000000,-1554.432478,-9959.241474
859.726072,296.082377,-3034.844362,-9882.631924
859.726392,1036.288319,-2294.638420,-9882.631924
859.726712,2368.659014,-370.102971,-10189.070123
859.727032,1998.556043,518.144159,-10189.070123
859.727352,74.020594,2072.576638,-10342.289223
859.727672,-222.061783,1110.308913,-10418.898773
859.727993,-1036.288319,518.144159,-10112.460574
859.728313,-1480.411884,-666.185348,-10035.851024
859.728633,666.185348,-2812.782580,-9652.803275
859.728953,296.082377,-2960.823768,-9729.412825
859.729273,-666.185348,-2220.617826,-9806.022374
859.729593,-296.082377,-2072.576638,-9652.803275
859.729913,-740.205942,0.000000,-10035.851024
859.730233,-1332.370696,814.226536,-10189.070123
859.730553,-814.226536,1554.432478,-10265.679673
859.730873,1036.288319,444.123565,-10572.117872
859.731193,1110.308913,-1480.411884,-9806.022374
859.731513,740.205942,-1702.473667,-10265.679673
859.731834,0.000000,-1628.453072,-10342.289223
859.732154,-518.144159,-518.144159,-9959.241474
859.732474,888.247130,74.020594,-9882.631924
859.732794,2590.720797,0.000000,-9959.241474
859.733114,1850.514855,296.082377,-9882.631924
859.733434,0.000000,518.144159,-10265.679673
859.733754,-2294.638420,814.226536,-9959.241474
859.734074,-2220.617826,1850.514855,-10342.289223
859.734394,-296.082377,1184.329507,-9039.926876
859.734714,1480.411884,-518.144159,-10035.851024
859.735034,2220.617826,-2146.597232,-10189.070123
859.735354,1850.514855,-1480.411884,-10035.851024
859.735675,1776.494261,592.164754,-10572.117872
859.735995,148.041188,2738.761985,-10955.165621
859.736315,-1554.432478,3404.947333,-10112.460574
859.736635,74.020594,2294.638420,-9882.631924
859.736955,2590.720797,148.041188,-10112.460574
859.737275,4441.235652,-1184.329507,-11261.603821
859.737595,2442.679609,-814.226536,-10418.898773
859.737915,1924.535449,-370.102971,-10189.070123
859.738235,1332.370696,1702.473667,-10418.898773
859.738555,-296.082377,1850.514855,-9422.974625
859.738875,-148.041188,1776.494261,-9652.803275
859.739196,740.205942,1258.350101,-9806.022374
859.739516,1628.453072,962.267725,-9806.022374
859.739836,2442.679609,1258.350101,-10495.508323
859.740156,3997.112087,-1036.288319,-10112.460574
859.740476,2590.720797,-666.185348,-9576.193725
859.740796,444.123565,0.000000,-9499.584175
859.741116,0.000000,814.226536,-9806.022374
859.741436,296.082377,1850.514855,-9422.974625
859.741756,0.000000,1924.535449,-9882.631924
859.742076,-592.164754,1924.535449,-10112.460574
859.742396,962.267725,1406.391290,-10342.289223
859.742716,1036.288319,814.226536,-10112.460574
859.743037,1554.432478,-296.082377,-9806.022374
859.743357,1480.411884,-888.247130,-9652.803275
859.743677,1184.329507,-1036.288319,-9959.241474
859.743997,296.082377,592.164754,-10035.851024
859.744317,-592.164754,2886.803174,-10342.289223
859.744637,-2886.803174,2590.720797,-10035.851024
859.744957,-2886.803174,1332.370696,-10112.460574
859.745277,-888.247130,0.000000,-9882.631924
859.745597,1776.494261,-1184.329507,-9882.631924
859.745917,2368.659014,-1702.473667,-10189.070123
859.746237,1332.370696,-1036.288319,-10265.679673
859.746557,148.041188,666.185348,-10495.508323
859.746878,-1406.391290,1702.473667,-10265.679673
859.747198,-1480.411884,1702.473667,-9882.631924
859.747518,-592.164754,592.164754,-10265.679673
859.747838,222.061783,-296.082377,-9806.022374
859.748158,-222.061783,-1258.350101,-9959.241474
859.748478,222.061783,-1332.370696,-10648.727422
859.748798,-148.041188,-444.123565,-9729.412825
859.749118,592.164754,222.061783,-10342.289223
859.749438,1258.350101,1406.391290,-10572.117872
859.749758,814.226536,2072.576638,-10572.117872
859.750078,-962.267725,1406.391290,-9729.412825
859.750398,-1480.411884,444.123565,-10035.851024
859.750719,-148.041188,0.000000,-10418.898773
859.751039,962.267725,74.020594,-9806.022374
859.751359,1258.350101,-444.123565,-9882.631924
859.751679,814.226536,-1258.350101,-9729.412825
859.751999,1480.411884,-1036.288319,-10112.460574
859.752319,888.247130,370.102971,-10265.679673
859.752639,148.041188,148.041188,-10342.289223
859.752959,-370.102971,1036.288319,-10189.070123
859.753279,-296.082377,666.185348,-9882.631924
859.753599,1184.329507,666.185348,-9806.022374
859.753919,2072.576638,-370.102971,-10342.289223
859.754240,2072.576638,-962.267725,-10189.070123
859.754560,1554.432478,-1110.308913,-10418.898773
859.754880,1184.329507,-962.267725,-9959.241474
859.755200,148.041188,0.000000,-9959.241474
859.755520,-888.247130,0.000000,-10112.460574
859.755840,296.082377,222.061783,-10112.460574
859.756160,222.061783,0.000000,-10418.898773
859.756480,666.185348,-444.123565,-10725.336972
859.756800,592.164754,0.000000,-10725.336972
859.757120,-518.144159,1184.329507,-10648.727422
859.757440,0.000000,2664.741391,-10418.898773
859.757761,962.267725,2886.803174,-10878.556072
859.758081,2368.659014,3478.967927,-10801.946522
859.758401,1406.391290,1850.514855,-10342.289223
859.758721,1184.329507,814.226536,-10572.117872
859.759041,888.247130,0.000000,-9959.241474
859.759361,518.144159,-1258.350101,-9806.022374
859.759681,740.205942,-1850.514855,-9193.145976
859.760001,1036.288319,-592.164754,-9193.145976
859.760321,1406.391290,370.102971,-9269.755526
859.760641,2072.576638,1554.432478,-9806.022374
859.760962,518.144159,1184.329507,-10189.070123
859.761282,-222.061783,444.123565,-9116.536426
859.761602,-444.123565,-1184.329507,-8733.488677
859.761922,1184.329507,-1184.329507,-9193.145976
859.762242,666.185348,-1258.350101,-9116.536426
859.762562,1998.556043,-444.123565,-9806.022374
859.762882,1850.514855,1184.329507,-9806.022374
859.763202,444.123565,1332.370696,-9959.241474
859.763522,74.020594,1924.535449,-9806.022374
859.763842,1480.411884,1998.556043,-10265.679673
859.764163,2442.679609,814.226536,-10112.460574
859.764483,1184.329507,-148.041188,-10112.460574
859.764803,370.102971,-888.247130,-10342.289223
859.765123,370.102971,148.041188,-10342.289223
859.765443,222.061783,2072.576638,-10801.946522
859.765763,1036.288319,3034.844362,-10189.070123
859.766083,1332.370696,2812.782580,-10648.727422
859.766403,592.164754,1998.556043,-10801.946522
859.766723,-666.185348,222.061783,-10572.117872
859.767044,-1776.494261,0.000000,-10189.070123
859.767364,-3108.864956,0.000000,-10495.508323
859.767684,-1702.473667,444.123565,-10112.460574
859.768004,-296.082377,1480.411884,-10495.508323
859.768324,1998.556043,1184.329507,-10342.289223
859.768644,2220.617826,1036.288319,-10265.679673
859.768964,740.205942,-444.123565,-10189.070123
859.769284,444.123565,-888.247130,-9806.022374
859.769604,0.000000,-814.226536,-9806.022374
859.769924,-1184.329507,518.144159,-10495.508323
859.770245,-962.267725,666.185348,-9959.241474
859.770565,-222.061783,74.020594,-9806.022374
859.770885,962.267725,-666.185348,-9806.022374
859.771205,666.185348,-1332.370696,-9729.412825
859.771525,-1184.329507,-370.102971,-9806.022374
859.771845,-592.164754,666.185348,-9652.803275
859.772165,-222.061783,444.123565,-9806.022374
859.772485,518.144159,-740.205942,-9806.022374
859.772805,444.123565,-3108.864956,-9039.926876
859.773125,0.000000,-1332.370696,-9806.022374
859.773446,-222.061783,296.082377,-10342.289223
859.773766,-666.185348,2738.761985,-10189.070123
859.774086,0.000000,2886.803174,-10648.727422
859.774406,1702.473667,1258.350101,-10035.851024
859.774726,2220.617826,-1184.329507,-10418.898773
859.775046,1258.350101,-2590.720797,-9882.631924
859.775366,962.267725,-1702.473667,-10265.679673
859.775686,-370.102971,1036.288319,-10112.460574
859.776006,-592.164754,2146.597232,-10418.898773
859.776327,0.000000,2294.638420,-10572.117872
859.776647,1406.391290,518.144159,-10572.117872
859.776967,1480.411884,0.000000,-10342.289223
859.777287,1406.391290,370.102971,-10725.336972
859.777607,1776.494261,814.226536,-10878.556072
859.777927,814.226536,1184.329507,-10801.946522
859.778247,222.061783,1332.370696,-10342.289223
859.778567,296.082377,518.144159,-11184.994271
859.778887,370.102971,148.041188,-10265.679673
859.779207,1258.350101,0.000000,-9882.631924
859.779528,1998.556043,0.000000,-10189.070123
859.779848,2590.720797,666.185348,-10112.460574
859.780168,3034.844362,-222.061783,-10035.851024
859.780488,3330.926739,-296.082377,-9806.022374
859.780808,1332.370696,-962.267725,-9806.022374
859.781128,0.000000,-370.102971,-9729.412825
859.781448,444.123565,-148.041188,-10035.851024
859.781768,-592.164754,1702.473667,-10342.289223
859.782088,-1258.350101,1184.329507,-9652.803275
859.782408,-1110.308913,592.164754,-9806.022374
859.782729,444.123565,-814.226536,-9346.365076
859.783049,2146.597232,-814.226536,-9576.193725
859.783369,2072.576638,74.020594,-9882.631924
859.783689,1628.453072,888.247130,-9959.241474
859.784009,1110.308913,1332.370696,-10342.289223
859.784329,814.226536,1110.308913,-9806.022374
859.784649,962.267725,518.144159,-10112.460574
859.784969,1110.308913,1110.308913,-10265.679673
859.785289,1110.308913,962.267725,-9882.631924
859.785610,1184.329507,1480.411884,-10725.336972
859.785930,1554.432478,888.247130,-10495.508323
859.786250,-222.061783,592.164754,-10035.851024
859.786570,-666.185348,222.061783,-10112.460574
859.786890,0.000000,148.041188,-10112.460574
859.787210,1554.432478,444.123565,-10342.289223
859.787530,2294.638420,1332.370696,-10418.898773
859.787850,2368.659014,1776.494261,-10648.727422
859.788170,1036.288319,1554.432478,-10342.289223
859.788490,0.000000,592.164754,-10189.070123
859.788811,518.144159,814.226536,-9882.631924
859.789131,592.164754,296.082377,-10265.679673
859.789451,1258.350101,74.020594,-9882.631924
859.789771,0.000000,0.000000,-10265.679673
859.790091,-740.205942,-962.267725,-9806.022374
859.790411,-1332.370696,-296.082377,-10035.851024
859.790731,-1258.350101,296.082377,-9806.022374
859.791051,-518.144159,1036.288319,-9806.022374
859.791371,518.144159,1406.391290,-10035.851024
859.791691,-1036.288319,1184.329507,-10035.851024
859.792012,-2368.659014,-222.061783,-9806.022374
859.792332,-2516.700203,-1184.329507,-9882.631924
859.792652,-2220.617826,-592.164754,-9576.193725
859.792972,-814.226536,-518.144159,-9499.584175
859.793292,370.102971,222.061783,-10112.460574
859.793612,222.061783,1998.556043,-10342.289223
859.793932,-1628.453072,1184.329507,-9499.584175
859.794252,-2294.638420,444.123565,-9729.412825
859.794572,-962.267725,-740.205942,-10265.679673
859.794892,74.020594,-2146.597232,-9806.022374
859.795213,-666.185348,-2146.597232,-9806.022374
859.795533,-962.267725,0.000000,-9576.193725
859.795853,222.061783,1628.453072,-10265.679673
859.796173,888.247130,2294.638420,-10495.508323
859.796493,814.226536,2220.617826,-10265.679673
859.796813,1184.329507,518.144159,-10418.898773
859.797133,1332.370696,-148.041188,-10265.679673
859.797453,1776.494261,-1110.308913,-10265.679673
859.797773,0.000000,-1406.391290,-10112.460574
859.798094,-814.226536,-222.061783,-10189.070123
859.798414,222.061783,0.000000,-10418.898773
859.798734,222.061783,1258.350101,-10572.117872
859.799054,962.267725,2368.659014,-10878.556072
859.799374,592.164754,2738.761985,-11031.775171
859.799694,1628.453072,1998.556043,-10342.289223
859.800014,2442.679609,370.102971,-9806.022374
859.800334,3034.844362,-1036.288319,-10265.679673
859.800654,1258.350101,-1110.308913,-10035.851024
859.800974,222.061783,-1110.308913,-9652.803275
859.801295,666.185348,0.000000,-9269.755526
859.801615,2738.761985,518.144159,-9806.022374
859.801935,3034.844362,444.123565,-9729.412825
859.802255,2738.761985,148.041188,-10265.679673
859.802575,1406.391290,-666.185348,-9269.755526
859.802895,-370.102971,-296.082377,-9422.974625
859.803215,592.164754,814.226536,-9422.974625
859.803535,518.144159,222.061783,-9652.803275
859.803855,592.164754,-962.267725,-9806.022374
859.804175,0.000000,-1850.514855,-9346.365076
859.804496,1258.350101,-1406.391290,-9959.241474
859.804816,740.205942,-518.144159,-9882.631924
859.805136,-222.061783,1554.432478,-10418.898773
859.805456,0.000000,2664.741391,-10495.508323
859.805776,740.205942,2146.597232,-10725.336972
859.806096,888.247130,518.144159,-10495.508323
859.806416,296.082377,-1776.494261,-10495.508323
859.806736,74.020594,-2590.720797,-10189.070123
859.807056,-370.102971,-962.267725,-10418.898773
859.807377,666.185348,1480.411884,-11031.775171
859.807697,1110.308913,3330.926739,-11031.775171
859.808017,370.102971,3404.947333,-10955.165621
859.808337,0.000000,2590.720797,-10648.727422
859.808657,666.185348,666.185348,-10725.336972
859.808977,518.144159,666.185348,-10572.117872
859.809297,444.123565,0.000000,-10112.460574
859.809617,370.102971,-740.205942,-10112.460574
859.809937,1110.308913,-1998.556043,-8886.707777
859.810257,1406.391290,-1480.411884,-9576.193725
859.810578,666.185348,0.000000,-9806.022374
859.810898,-148.041188,1258.350101,-9729.412825
859.811218,0.000000,2812.782580,-9729.412825
859.811538,1776.494261,2146.597232,-9652.803275
859.811858,1628.453072,-740.205942,-9959.241474
859.812178,518.144159,-2812.782580,-9039.926876
859.812498,-222.061783,-2442.679609,-9193.145976
859.812818,-370.102971,-888.247130,-10725.336972
859.813138,-740.205942,1998.556043,-10035.851024
859.813458,-1776.494261,3552.988522,-9806.022374
859.813779,-1184.329507,3775.050304,-9882.631924
859.814099,370.102971,1184.329507,-9499.584175
859.814419,222.061783,-1628.453072,-10112.460574
859.814739,0.000000,-3923.091493,-9269.755526
859.815059,444.123565,-3108.864956,-9652.803275
859.815379,518.144159,-518.144159,-9346.365076
859.815699,0.000000,1998.556043,-10189.070123
859.816019,-222.061783,3034.844362,-10495.508323
859.816339,148.041188,2368.659014,-10725.336972
859.816660,888.247130,2072.576638,-10801.946522
859.816980,2590.720797,1702.473667,-11184.994271
859.817300,1554.432478,666.185348,-10495.508323
859.817620,-962.267725,-962.267725,-11108.384721
859.817940,-1628.453072,-1776.494261,-9882.631924
859.818260,-888.247130,-1850.514855,-9806.022374
859.818580,-666.185348,0.000000,-9959.241474
859.818900,-518.144159,1332.370696,-10265.679673
859.819220,1332.370696,3034.844362,-10725.336972
859.819540,1628.453072,3404.947333,-10725.336972
859.819861,1554.432478,2516.700203,-10189.070123
859.820181,1924.535449,1110.308913,-9959.241474
859.820501,1776.494261,-74.020594,-10265.679673
859.820821,2072.576638,-1110.308913,-9422.974625
859.821141,1554.432478,-592.164754,-10189.070123
859.821461,370.102971,444.123565,-9652.803275
859.821781,-666.185348,1110.308913,-9499.584175
859.822101,1036.288319,1628.453072,-9806.022374
859.822421,3330.926739,740.205942,-9806.022374
859.822741,3478.967927,-148.041188,-10801.946522
859.823062,2442.679609,-1998.556043,-9346.365076
859.823382,1332.370696,-1332.370696,-9346.365076
859.823702,-148.041188,-370.102971,-9269.755526
859.824022,0.000000,962.267725,-8963.317327
859.824342,2220.617826,1406.391290,-10878.556072
859.824662,3108.864956,1628.453072,-10035.851024
859.824982,1776.494261,1110.308913,-10342.289223
859.825302,1258.350101,-296.082377,-10495.508323
859.825622,1184.329507,-370.102971,-10035.851024
859.825942,0.000000,-740.205942,-10265.679673
859.826263,-740.205942,-592.164754,-10265.679673
859.826583,0.000000,0.000000,-10418.898773
859.826903,444.123565,1776.494261,-10955.165621
859.827223,222.061783,1406.391290,-10648.727422
859.827543,962.267725,1184.329507,-10955.165621
859.827863,444.123565,0.000000,-10342.289223
859.828183,-1036.288319,148.041188,-10189.070123
859.828503,-1554.432478,0.000000,-11108.384721
859.828823,-1480.411884,740.205942,-10418.898773
859.829144,-1258.350101,444.123565,-10342.289223
859.829464,-1480.411884,666.185348,-10035.851024
859.829784,-2442.679609,814.226536,-9882.631924
859.830104,-2146.597232,0.000000,-10112.460574
859.830424,-148.041188,-1480.411884,-10342.289223
859.830744,1258.350101,-1850.514855,-9729.412825
859.831064,444.123565,-1776.494261,-9346.365076
859.831384,-296.082377,-1258.350101,-9499.584175
859.831704,888.247130,-296.082377,-10035.851024
859.832024,962.267725,1184.329507,-9882.631924
859.832345,-1184.329507,666.185348,-9806.022374
859.832665,0.000000,-74.020594,-10418.898773
859.832985,0.000000,-592.164754,-10189.070123
859.833305,-444.123565,-740.205942,-9806.022374
859.833625,-592.164754,-666.185348,-9959.241474
859.833945,0.000000,0.000000,-10112.460574
859.834265,-1184.329507,370.102971,-9806.022374
859.834585,518.144159,-370.102971,-10342.289223
859.834905,1628.453072,222.061783,-10418.898773
859.835225,1998.556043,0.000000,-9959.241474
859.835546,1776.494261,0.000000,-9652.803275
859.835866,1406.391290,888.247130,-10342.289223
859.836186,2812.782580,1702.473667,-10572.117872
859.836506,3775.050304,962.267725,-10495.508323
859.836826,5107.421000,296.082377,-10955.165621
859.837146,3478.967927,-74.020594,-10572.117872
859.837466,74.020594,296.082377,-10189.070123
859.837786,-444.123565,814.226536,-10648.727422
859.838106,0.000000,2294.638420,-10265.679673
859.838427,-740.205942,1850.514855,-10801.946522
859.838747,1036.288319,592.164754,-10801.946522
859.839067,1332.370696,-740.205942,-9806.022374
859.839387,1036.288319,-1258.350101,-10189.070123
859.839707,1554.432478,-814.226536,-10189.070123
859.840027,0.000000,1036.288319,-10418.898773
859.840347,-1480.411884,2442.679609,-9652.803275
859.840667,-1184.329507,2664.741391,-9806.022374
859.840987,1850.514855,1776.494261,-10265.679673
859.841307,4737.318029,444.123565,-10112.460574
859.841628,2368.659014,814.226536,-9959.241474
859.841948,740.205942,1036.288319,-10035.851024
859.842268,296.082377,888.247130,-9729.412825
859.842588,222.061783,592.164754,-9806.022374
859.842908,-888.247130,222.061783,-8886.707777
859.843228,-962.267725,-222.061783,-9422.974625
859.843548,-518.144159,-1036.288319,-9576.193725
859.843868,-222.061783,-592.164754,-9806.022374
859.844188,-444.123565,0.000000,-9959.241474
859.844508,-2516.700203,666.185348,-9499.584175
859.844829,-2072.576638,1480.411884,-9806.022374
859.845149,-1554.432478,814.226536,-9652.803275
859.845469,962.267725,888.247130,-9806.022374
859.845789,-1184.329507,-296.082377,-10035.851024
859.846109,-814.226536,-740.205942,-10342.289223
859.846429,-1998.556043,-814.226536,-9806.022374
859.846749,-1776.494261,-222.061783,-10265.679673
859.847069,-962.267725,370.102971,-10265.679673
859.847389,1702.473667,888.247130,-10572.117872
859.847710,1998.556043,370.102971,-10725.336972
859.848030,2368.659014,444.123565,-10648.727422
859.848350,1036.288319,666.185348,-12104.308868
859.848670,-1554.432478,0.000000,-10572.117872
859.848990,-1480.411884,370.102971,-9959.241474
859.849310,-148.041188,0.000000,-10801.946522
859.849630,1924.535449,444.123565,-10495.508323
859.849950,1776.494261,74.020594,-10878.556072
859.850270,2220.617826,-740.205942,-10878.556072
859.850590,2072.576638,518.144159,-10572.117872
859.850911,1332.370696,666.185348,-10265.679673
859.851231,962.267725,1554.432478,-9806.022374
859.851551,-296.082377,962.267725,-10035.851024
859.851871,-74.020594,444.123565,-10112.460574
859.852191,444.123565,-666.185348,-9806.022374
859.852511,1480.411884,-296.082377,-10265.679673
859.852831,1554.432478,-1628.453072,-9346.365076
859.853151,2516.700203,-1924.535449,-9576.193725
859.853471,2738.761985,-1776.494261,-9806.022374
859.853791,2368.659014,-1554.432478,-9882.631924
859.854112,1554.432478,-1184.329507,-9576.193725
859.854432,-1628.453072,-518.144159,-10035.851024
859.854752,0.000000,1110.308913,-10418.898773
859.855072,592.164754,1036.288319,-10035.851024
859.855392,1184.329507,296.082377,-10035.851024
859.855712,888.247130,-518.144159,-9882.631924
859.856032,-1036.288319,-1998.556043,-10035.851024
859.856352,-962.267725,-1184.329507,-9959.241474
859.856672,0.000000,-444.123565,-10112.460574
859.856992,1036.288319,1924.535449,-10648.727422
859.857313,1776.494261,1850.514855,-10418.898773
859.857633,962.267725,666.185348,-10418.898773
859.857953,666.185348,-518.144159,-10495.508323
859.858273,1406.391290,-666.185348,-11261.603821
859.858593,1332.370696,0.000000,-10572.117872
859.858913,1110.308913,1258.350101,-10801.946522
859.859233,-296.082377,1554.432478,-10265.679673
859.859553,-296.082377,1924.535449,-10495.508323
859.859873,-296.082377,222.061783,-10418.898773
859.860193,-666.185348,-592.164754,-9806.022374
859.860513,-296.082377,-518.144159,-9729.412825
859.860833,888.247130,-148.041188,-9959.241474
859.861153,1998.556043,666.185348,-9652.803275
859.861473,1332.370696,518.144159,-9806.022374
859.861793,1184.329507,740.205942,-9729.412825
859.862113,1998.556043,222.061783,-10035.851024
859.862433,1480.411884,1110.308913,-10035.851024
859.862753,148.041188,1110.308913,-9729.412825
859.863073,0.000000,1036.288319,-9806.022374
859.863393,-962.267725,962.267725,-9499.584175
859.863713,222.061783,296.082377,-10035.851024
859.864033,740.205942,-518.144159,-9806.022374
859.864353,370.102971,-518.144159,-10035.851024
859.864672,-740.205942,0.000000,-9959.241474
859.864992,0.000000,962.267725,-9882.631924
859.865312,74.020594,444.123565,-10265.679673
859.865632,-666.185348,592.164754,-10112.460574
859.865952,-518.144159,666.185348,-10189.070123
859.866272,1924.535449,592.164754,-10189.070123
859.866592,2960.823768,1036.288319,-10495.508323
859.866912,3330.926739,1332.370696,-11721.261119
859.867232,0.000000,1110.308913,-10265.679673
859.867552,-2146.597232,666.185348,-10035.851024
859.867872,-592.164754,-444.123565,-9652.803275
859.868192,740.205942,-1110.308913,-9576.193725
859.868512,888.247130,-1332.370696,-10342.289223
859.868832,1406.391290,-222.061783,-10112.460574
859.869152,1332.370696,666.185348,-10495.508323
859.869472,444.123565,2442.679609,-10801.946522
859.869792,-888.247130,2368.659014,-9422.974625
859.870112,148.041188,1480.411884,-10189.070123
859.870432,444.123565,0.000000,-10035.851024
859.870752,2146.597232,148.041188,-10342.289223
859.871072,2294.638420,370.102971,-9576.193725
859.871392,444.123565,814.226536,-10342.289223
859.871712,-814.226536,962.267725,-9729.412825
859.872032,592.164754,888.247130,-10035.851024
859.872352,2590.720797,518.144159,-9959.241474
859.872672,2664.741391,370.102971,-9729.412825
859.872992,1998.556043,-592.164754,-9959.241474
859.873312,1406.391290,-740.205942,-9882.631924
859.873631,222.061783,814.226536,-9729.412825
859.873951,-518.144159,2368.659014,-9576.193725
859.874271,1406.391290,1480.411884,-10035.851024
859.874591,2220.617826,518.144159,-10035.851024
859.874911,296.082377,-1036.288319,-9959.241474
859.875231,-1480.411884,-1406.391290,-9729.412825
859.875551,-1924.535449,-962.267725,-9882.631924
859.875871,-1258.350101,0.000000,-10112.460574
859.876191,-148.041188,0.000000,-9652.803275
859.876511,-296.082377,-592.164754,-9806.022374
859.876831,666.185348,-296.082377,-9806.022374
859.877151,666.185348,-444.123565,-10189.070123
859.877471,518.144159,148.041188,-10035.851024
859.877791,1110.308913,1036.288319,-10035.851024
859.878111,1406.391290,2072.576638,-10495.508323
859.878431,2368.659014,1332.370696,-10418.898773
859.878751,1406.391290,-444.123565,-10112.460574
859.879071,740.205942,-222.061783,-10572.117872
859.879391,-740.205942,-370.102971,-10572.117872
859.879711,-2960.823768,1110.308913,-9882.631924
859.880031,-2442.679609,1184.329507,-10342.289223
859.880351,-592.164754,740.205942,-10265.679673
859.880671,1406.391290,74.020594,-10112.460574
859.880991,2072.576638,666.185348,-10572.117872
859.881311,1110.308913,1184.329507,-10648.727422
859.881631,888.247130,1110.308913,-10495.508323
859.881951,962.267725,740.205942,-10112.460574
859.882271,0.000000,296.082377,-9806.022374
859.882591,-592.164754,444.123565,-11108.384721
859.882910,1110.308913,148.041188,-10112.460574
859.883230,1924.535449,0.000000,-10112.460574
859.883550,1480.411884,-370.102971,-10265.679673
859.883870,296.082377,-222.061783,-9959.241474
859.884190,-814.226536,1184.329507,-9729.412825
859.884510,222.061783,148.041188,-10035.851024
859.884830,1332.370696,0.000000,-10112.460574
859.885150,1924.535449,0.000000,-10035.851024
859.885470,2220.617826,-666.185348,-10035.851024
859.885790,2812.782580,962.267725,-10112.460574
859.886110,1036.288319,2072.576638,-10648.727422
859.886430,74.020594,2442.679609,-10189.070123
859.886750,444.123565,1924.535449,-9806.022374
859.887070,740.205942,148.041188,-9882.631924
859.887390,148.041188,-740.205942,-9806.022374
859.887710,-1110.308913,-2294.638420,-10189.070123
859.888030,-2072.576638,-2294.638420,-9346.365076
859.888350,-148.041188,-1036.288319,-9806.022374
859.888670,1332.370696,148.041188,-10189.070123
859.888990,2294.638420,0.000000,-9882.631924
859.889310,3034.844362,2072.576638,-10189.070123
859.889630,1628.453072,2368.659014,-10342.289223
859.889950,1110.308913,1628.453072,-10112.460574
859.890270,0.000000,888.247130,-10418.898773
859.890590,-1184.329507,-888.247130,-10035.851024
859.890910,-518.144159,-1850.514855,-9806.022374
859.891230,666.185348,-2146.597232,-10035.851024
859.891550,888.247130,-592.164754,-9882.631924
859.891869,518.144159,1258.350101,-10648.727422
859.892189,-740.205942,2442.679609,-10955.165621
859.892509,-740.205942,2368.659014,-10342.289223
859.892829,-222.061783,1184.329507,-10495.508323
859.893149,592.164754,-296.082377,-10112.460574
859.893469,1258.350101,-1998.556043,-9806.022374
859.893789,666.185348,-1036.288319,-10495.508323
859.894109,1924.535449,-1332.370696,-10112.460574
859.894429,1184.329507,74.020594,-9959.241474
859.894749,0.000000,296.082377,-10572.117872
859.895069,-370.102971,-222.061783,-9652.803275
859.895389,0.000000,-1110.308913,-9346.365076
859.895709,-148.041188,-888.247130,-9729.412825
859.896029,-592.164754,-962.267725,-9576.193725
859.896349,-1332.370696,-1332.370696,-9806.022374
859.896669,-370.102971,-1554.432478,-9576.193725
859.896989,-444.123565,-814.226536,-9652.803275
859.897309,-740.205942,1332.370696,-9959.241474
859.897629,-1110.308913,2664.741391,-9882.631924
859.897949,-444.123565,2590.720797,-10112.460574
859.898269,1184.329507,2146.597232,-10418.898773
859.898589,-148.041188,592.164754,-10112.460574
859.898909,-666.185348,-1110.308913,-9959.241474
859.899229,0.000000,-1628.453072,-9806.022374
859.899549,444.123565,-666.185348,-9576.193725
859.899869,666.185348,370.102971,-10265.679673
859.900189,592.164754,1332.370696,-10648.727422
859.900509,-444.123565,962.267725,-10572.117872
859.900828,-962.267725,-148.041188,-10265.679673
859.901148,0.000000,0.000000,-10418.898773
859.901468,1036.288319,518.144159,-10955.165621
859.901788,1776.494261,444.123565,-10418.898773
859.902108,2072.576638,814.226536,-10495.508323
859.902428,2442.679609,518.144159,-9806.022374
859.902748,2516.700203,222.061783,-10342.289223
859.903068,2664.741391,1110.308913,-10265.679673
859.903388,3256.906145,2368.659014,-10955.165621
859.903708,2516.700203,1924.535449,-9729.412825
859.904028,1480.411884,370.102971,-9959.241474
859.904348,740.205942,-888.247130,-10189.070123
859.904668,0.000000,-370.102971,-9806.022374
859.904988,-1258.350101,1406.391290,-10035.851024
859.905308,-444.123565,3404.947333,-8733.488677
859.905628,1776.494261,2812.782580,-10035.851024
859.905948,3330.926739,740.205942,-9346.365076
859.906268,2886.803174,-1258.350101,-9193.145976
859.906588,2294.638420,-1554.432478,-9806.022374
859.906908,1036.288319,-888.247130,-9346.365076
859.907228,666.185348,888.247130,-9729.412825
859.907548,1554.432478,2294.638420,-9806.022374
859.907868,1850.514855,1776.494261,-9652.803275
859.908188,666.185348,814.226536,-10342.289223
859.908508,222.061783,-444.123565,-10035.851024
859.908828,-1036.288319,-518.144159,-10342.289223
859.909148,-888.247130,296.082377,-10112.460574
859.909468,-148.041188,1184.329507,-10189.070123
859.909788,148.041188,444.123565,-10112.460574
859.910107,888.247130,-370.102971,-10112.460574
859.910427,370.102971,0.000000,-10418.898773
859.910747,222.061783,1036.288319,-10878.556072
859.911067,-1776.494261,2368.659014,-11108.384721
859.911387,-1258.350101,2368.659014,-10878.556072
859.911707,-444.123565,888.247130,-10495.508323
859.912027,148.041188,-740.205942,-10035.851024
859.912347,0.000000,-666.185348,-9882.631924
859.912667,-962.267725,296.082377,-10572.117872
859.912987,-296.082377,2590.720797,-10878.556072
859.913307,-518.144159,3034.844362,-10801.946522
859.913627,-888.247130,1258.350101,-10189.070123
859.913947,-1406.391290,-296.082377,-10189.070123
859.914267,0.000000,-1332.370696,-9882.631924
859.914587,370.102971,-962.267725,-9882.631924
859.914907,888.247130,-444.123565,-10035.851024
859.915227,-370.102971,518.144159,-9652.803275
859.915547,-1628.453072,-518.144159,-9499.584175
859.915867,-666.185348,-1480.411884,-9806.022374
859.916187,0.000000,-1554.432478,-9346.365076
859.916507,0.000000,-740.205942,-9499.584175
859.916827,814.226536,518.144159,-9806.022374
859.917147,1702.473667,1480.411884,-10265.679673
859.917467,1702.473667,518.144159,-9652.803275
859.917787,74.020594,-1628.453072,-10189.070123
859.918107,-222.061783,-2368.659014,-9422.974625
859.918427,-814.226536,-2442.679609,-9729.412825
859.918747,0.000000,-1036.288319,-9959.241474
859.919066,1702.473667,1036.288319,-10418.898773
859.919386,666.185348,1776.494261,-10495.508323
859.919706,296.082377,1110.308913,-10112.460574
859.920026,1998.556043,-296.082377,-10648.727422
859.920346,3256.906145,-296.082377,-10648.727422
859.920666,2738.761985,-148.041188,-10189.070123
859.920986,1554.432478,740.205942,-10878.556072
859.921306,74.020594,1110.308913,-10801.946522
859.921626,-296.082377,1406.391290,-9959.241474
859.921946,518.144159,-148.041188,-10342.289223
859.922266,2442.679609,-814.226536,-10418.898773
859.922586,3256.906145,-666.185348,-10801.946522
859.922906,1332.370696,296.082377,-10572.117872
859.923226,296.082377,1702.473667,-10418.898773
859.923546,-814.226536,2442.679609,-10265.679673
859.923866,-1184.329507,1554.432478,-9806.022374
859.924186,-740.205942,-148.041188,-9959.241474
859.924506,1110.308913,-1406.391290,-9576.193725
859.924826,1628.453072,-666.185348,-9499.584175
859.925146,1702.473667,-740.205942,-9882.631924
859.925466,2294.638420,0.000000,-9652.803275
859.925786,296.082377,1184.329507,-9729.412825
859.926106,-518.144159,370.102971,-9806.022374
859.926426,-814.226536,-592.164754,-9422.974625
859.926746,-444.123565,-740.205942,-9346.365076
859.927066,370.102971,-444.123565,-9806.022374
859.927386,2072.576638,666.185348,-9959.241474
859.927706,1480.411884,1776.494261,-10418.898773
859.928025,444.123565,740.205942,-9806.022374
859.928345,0.000000,1332.370696,-9576.193725
859.928665,-592.164754,962.267725,-10265.679673
859.928985,-666.185348,0.000000,-10112.460574
859.929305,-296.082377,-962.267725,-9499.584175
859.929625,-222.061783,-1924.535449,-9652.803275
859.929945,-370.102971,-2294.638420,-9499.584175
859.930265,740.205942,-1554.432478,-9729.412825
859.930585,1332.370696,370.102971,-10418.898773
859.930905,1998.556043,3034.844362,-10495.508323
859.931225,1924.535449,4663.297435,-11031.775171
859.931545,2664.741391,4515.256246,-11108.384721
859.931865,2368.659014,3330.926739,-10572.117872
859.932185,444.123565,-592.164754,-10265.679673
859.932505,0.000000,-2960.823768,-9499.584175
859.932825,0.000000,-3404.947333,-9806.022374
859.933145,666.185348,-1332.370696,-10189.070123
859.933465,1554.432478,1702.473667,-10572.117872
859.933785,888.247130,3404.947333,-10955.165621
859.934105,0.000000,3404.947333,-10265.679673
859.934425,-444.123565,2590.720797,-10342.289223
859.934745,370.102971,666.185348,-10342.289223
859.935065,1332.370696,-370.102971,-9959.241474
859.935385,2294.638420,-1184.329507,-10572.117872
859.935705,1480.411884,-1554.432478,-9882.631924
859.936025,74.020594,-592.164754,-9959.241474
859.936345,-962.267725,518.144159,-9806.022374
859.936665,-444.123565,1554.432478,-9576.193725
859.936985,0.000000,1628.453072,-10265.679673
859.937304,222.061783,592.164754,-10418.898773
859.937624,74.020594,-592.164754,-10035.851024
859.937944,-814.226536,-1258.350101,-10035.851024
859.938264,-1776.494261,-1406.391290,-9652.803275
859.938584,-1554.432478,370.102971,-9806.022374
859.938904,-296.082377,1406.391290,-10572.117872
859.939224,740.205942,1924.535449,-9806.022374
859.939544,222.061783,2368.659014,-9882.631924
859.939864,222.061783,1258.350101,-10112.460574
859.940184,962.267725,518.144159,-9576.193725
859.940504,1406.391290,-370.102971,-10189.070123
859.940824,1110.308913,-1850.514855,-9116.536426
859.941144,370.102971,-2072.576638,-9193.145976
859.941464,814.226536,-1258.350101,-10035.851024
859.941784,370.102971,148.041188,-10265.679673
859.942104,0.000000,1702.473667,-10112.460574
859.942424,0.000000,2516.700203,-9806.022374
859.942744,814.226536,1406.391290,-9806.022374
859.943064,1850.514855,74.020594,-10342.289223
859.943384,1554.432478,-1554.432478,-10418.898773
859.943704,1406.391290,-2442.679609,-10265.679673
859.944024,1628.453072,-1702.473667,-9882.631924
859.944344,0.000000,0.000000,-10342.289223
859.944664,-1258.350101,1184.329507,-9729.412825
859.944984,-444.123565,2368.659014,-10725.336972
859.945304,1332.370696,2516.700203,-10112.460574
859.945624,1850.514855,1036.288319,-10725.336972
859.945944,1554.432478,0.000000,-10342.289223
859.946263,222.061783,-888.247130,-10265.679673
859.946583,-148.041188,-962.267725,-9806.022374
859.946903,296.082377,-592.164754,-9959.241474
859.947223,2146.597232,666.185348,-10265.679673
859.947543,888.247130,740.205942,-10112.460574
859.947863,0.000000,518.144159,-10265.679673
859.948183,148.041188,814.226536,-10189.070123
859.948503,-296.082377,592.164754,-10035.851024
859.948823,0.000000,888.247130,-9882.631924
859.949143,296.082377,0.000000,-10342.289223
859.949463,2368.659014,-888.247130,-10725.336972
859.949783,2442.679609,-1332.370696,-10112.460574
859.950103,0.000000,-1258.350101,-9806.022374
859.950423,-962.267725,1184.329507,-9882.631924
859.950743,-740.205942,1628.453072,-10112.460574
859.951063,296.082377,1702.473667,-10035.851024
859.951383,2072.576638,444.123565,-10418.898773
859.951703,1924.535449,-1776.494261,-10189.070123
859.952023,814.226536,-2368.659014,-10112.460574
859.952343,592.164754,-1554.432478,-10342.289223
859.952663,-814.226536,1554.432478,-10418.898773
859.952983,-1332.370696,3108.864956,-10648.727422
859.953303,-1110.308913,3182.885551,-10189.070123
859.953623,518.144159,2294.638420,-10648.727422
859.953943,2220.617826,-296.082377,-10189.070123
859.954263,1702.473667,-666.185348,-10112.460574
859.954583,1776.494261,-888.247130,-10265.679673
859.954903,1332.370696,-518.144159,-9806.022374
859.955222,-444.123565,148.041188,-10189.070123
859.955542,-1406.391290,-222.061783,-9959.241474
859.955862,-1480.411884,592.164754,-9652.803275
859.956182,-1036.288319,2146.597232,-10342.289223
859.956502,148.041188,1480.411884,-10725.336972
859.956822,296.082377,1406.391290,-10342.289223
859.957142,-370.102971,518.144159,-10112.460574
859.957462,666.185348,-2072.576638,-9806.022374
859.957782,2442.679609,-2146.597232,-9806.022374
859.958102,518.144159,-1406.391290,-11031.775171
859.958422,-1776.494261,0.000000,-10265.679673
859.958742,-2368.659014,1776.494261,-10112.460574
859.959062,-1110.308913,2368.659014,-9959.241474
859.959382,444.123565,1998.556043,-9882.631924
859.959702,1776.494261,740.205942,-10495.508323
859.960022,1850.514855,-518.144159,-9959.241474
859.960342,1628.453072,-666.185348,-9882.631924
859.960662,962.267725,-444.123565,-10189.070123
859.960982,-444.123565,148.041188,-9806.022374
859.961301,-1258.350101,444.123565,-9882.631924
859.961621,-888.247130,0.000000,-9806.022374
859.961941,-444.123565,1406.391290,-9806.022374
859.962261,-370.102971,1628.453072,-10112.460574
859.962581,592.164754,1850.514855,-10342.289223
859.962901,1776.494261,1406.391290,-10725.336972
859.963221,1332.370696,518.144159,-10112.460574
859.963541,814.226536,-518.144159,-9652.803275
859.963861,814.226536,-444.123565,-9882.631924
859.964181,1184.329507,222.061783,-9729.412825
859.964501,1628.453072,1110.308913,-10265.679673
859.964821,1702.473667,2590.720797,-10189.070123
859.965141,1332.370696,2368.659014,-11721.261119
859.965460,1776.494261,1110.308913,-10189.070123
859.965780,2368.659014,-592.164754,-10189.070123
859.966100,2146.597232,-592.164754,-9959.241474
859.966420,888.247130,-1036.288319,-10035.851024
859.966740,-1184.329507,222.061783,-10035.851024
859.967060,-814.226536,1110.308913,-10112.460574
859.967380,370.102971,1628.453072,-9882.631924
859.967700,1998.556043,1258.350101,-10418.898773
859.968020,3478.967927,0.000000,-10648.727422
859.968340,2886.803174,-592.164754,-9882.631924
859.968660,2368.659014,-518.144159,-10801.946522
859.968980,1702.473667,-222.061783,-10878.556072
859.969300,-888.247130,0.000000,-10495.508323
859.969619,-1628.453072,740.205942,-9806.022374
859.969939,-1998.556043,1850.514855,-10265.679673
859.970259,-296.082377,962.267725,-10189.070123
859.970579,1184.329507,592.164754,-10189.070123
859.970899,1850.514855,148.041188,-10035.851024
859.971219,2368.659014,370.102971,-10418.898773
859.971539,1036.288319,-296.082377,-10189.070123
859.971859,-296.082377,-1110.308913,-9499.584175
859.972179,-1258.350101,-1184.329507,-9499.584175
859.972499,-444.123565,-888.247130,-9346.365076
859.972819,0.000000,-814.226536,-9576.193725
859.973139,-222.061783,0.000000,-9806.022374
859.973459,0.000000,1998.556043,-9729.412825
859.973779,1258.350101,2294.638420,-10418.898773
859.974098,1702.473667,74.020594,-9806.022374
859.974418,1110.308913,-1628.453072,-9652.803275
859.974738,-518.144159,-2368.659014,-9576.193725
859.975058,-1184.329507,-1850.514855,-9959.241474
859.975378,-1258.350101,-740.205942,-10342.289223
859.975698,-2368.659014,740.205942,-9806.022374
859.976018,-3182.885551,1628.453072,-9882.631924
859.976338,-1776.494261,1184.329507,-10265.679673
859.976658,296.082377,-370.102971,-9959.241474
859.976978,1998.556043,-518.144159,-10495.508323
859.977298,1998.556043,-1480.411884,-10725.336972
859.977618,814.226536,-1110.308913,-10648.727422
859.977938,1258.350101,-740.205942,-9346.365076
859.978257,1184.329507,74.020594,-10342.289223
859.978577,1332.370696,962.267725,-10572.117872
859.978897,2812.782580,1406.391290,-10955.165621
859.979217,1332.370696,1554.432478,-11261.603821
859.979537,1036.288319,1850.514855,-10878.556072
859.979857,-740.205942,962.267725,-11031.775171
859.980177,-1332.370696,-518.144159,-10572.117872
859.980497,-962.267725,-888.247130,-10265.679673
859.980817,-1184.329507,592.164754,-9729.412825
859.981137,-370.102971,1258.350101,-9729.412825
859.981457,222.061783,3478.967927,-11261.603821
859.981777,74.020594,2368.659014,-10418.898773
859.982097,666.185348,1850.514855,-9882.631924
859.982417,1628.453072,-518.144159,-9729.412825
859.982736,2664.741391,-2368.659014,-9116.536426
859.983056,2072.576638,-2442.679609,-9193.145976
859.983376,1332.370696,-740.205942,-9652.803275
859.983696,888.247130,148.041188,-9499.584175
859.984016,-666.185348,1406.391290,-9729.412825
859.984336,-444.123565,1702.473667,-9576.193725
859.984656,888.247130,1850.514855,-9576.193725
859.984976,3108.864956,1406.391290,-9576.193725
859.985296,3034.844362,814.226536,-10035.851024
859.985616,2368.659014,-518.144159,-10112.460574
859.985936,0.000000,-666.185348,-9652.803275
859.986256,0.000000,-1406.391290,-9652.803275
859.986576,1554.432478,-666.185348,-9576.193725
859.986895,2146.597232,1036.288319,-10035.851024
859.987215,1184.329507,2442.679609,-10495.508323
859.987535,740.205942,2812.782580,-10725.336972
859.987855,740.205942,2960.823768,-10648.727422
859.988175,148.041188,2146.597232,-10878.556072
859.988495,0.000000,296.082377,-10112.460574
859.988815,888.247130,-444.123565,-10265.679673
859.989135,2368.659014,-740.205942,-10801.946522
859.989455,2442.679609,-222.061783,-10572.117872
859.989775,666.185348,444.123565,-10495.508323
859.990095,-740.205942,2294.638420,-10725.336972
859.990415,-1110.308913,2590.720797,-10112.460574
859.990735,0.000000,2590.720797,-10035.851024
859.991055,148.041188,962.267725,-10189.070123
859.991374,-962.267725,-1850.514855,-9806.022374
859.991694,-962.267725,-3478.967927,-9346.365076
859.992014,-592.164754,-2886.803174,-9806.022374
859.992334,0.000000,-1110.308913,-10342.289223
859.992654,962.267725,666.185348,-9806.022374
859.992974,2664.741391,2146.597232,-9959.241474
859.993294,2072.576638,2146.597232,-10189.070123
859.993614,1184.329507,814.226536,-11261.603821
859.993934,-814.226536,-592.164754,-10189.070123
859.994254,-1554.432478,-1554.432478,-9499.584175
859.994574,-1258.350101,-1184.329507,-10112.460574
859.994894,444.123565,-962.267725,-9806.022374
859.995214,1184.329507,-1480.411884,-9806.022374
859.995533,1924.535449,-370.102971,-9882.631924
859.995853,518.144159,592.164754,-10189.070123
859.996173,-592.164754,1850.514855,-10878.556072
859.996493,74.020594,3182.885551,-10342.289223
859.996813,0.000000,1332.370696,-10112.460574
859.997133,74.020594,-592.164754,-10112.460574
859.997453,1924.535449,-2442.679609,-10112.460574
859.997773,1702.473667,-2294.638420,-11338.213370
859.998093,518.144159,-666.185348,-10801.946522
859.998413,-148.041188,1480.411884,-10878.556072
859.998733,-740.205942,3034.844362,-10648.727422
859.999053,-666.185348,1924.535449,-10495.508323
859.999373,-222.061783,222.061783,-10418.898773
859.999693,0.000000,-1776.494261,-9882.631924
860.000012,888.247130,-1628.453072,-10342.289223
860.000332,1924.535449,-888.247130,-10418.898773
860.000652,1850.514855,0.000000,-9806.022374
860.000972,814.226536,740.205942,-10418.898773
860.001292,814.226536,222.061783,-9729.412825
860.001612,-370.102971,592.164754,-9882.631924
860.001932,-1924.535449,518.144159,-10265.679673
860.002252,-1480.411884,740.205942,-10955.165621
860.002572,-666.185348,0.000000,-9959.241474
860.002892,370.102971,-1184.329507,-9806.022374
860.003212,888.247130,-2368.659014,-9652.803275
860.003532,592.164754,-1036.288319,-9422.974625
860.003852,1110.308913,1110.308913,-9806.022374
860.004171,1480.411884,2812.782580,-10265.679673
860.004491,1702.473667,3182.885551,-10112.460574
860.004811,888.247130,1406.391290,-9652.803275
860.005131,1110.308913,-592.164754,-9806.022374
860.005451,1776.494261,-296.082377,-9959.241474
860.005771,2368.659014,-1850.514855,-10112.460574
860.006091,1702.473667,0.000000,-10342.289223
860.006411,592.164754,1480.411884,-9652.803275
860.006731,-740.205942,2664.741391,-10112.460574
860.007051,-1406.391290,2886.803174,-10418.898773
860.007371,-666.185348,1258.350101,-10189.070123
860.007691,2664.741391,1480.411884,-10801.946522
860.008011,2960.823768,592.164754,-10418.898773
860.008330,2442.679609,296.082377,-10189.070123
860.008650,1480.411884,592.164754,-10801.946522
860.008970,0.000000,888.247130,-9882.631924
860.009290,222.061783,148.041188,-10265.679673
860.009610,1184.329507,518.144159,-10265.679673
860.009930,370.102971,1480.411884,-10342.289223
860.010250,-148.041188,1702.473667,-10495.508323
860.010570,1110.308913,518.144159,-10495.508323
860.010890,962.267725,0.000000,-10265.679673
860.011210,0.000000,-518.144159,-9882.631924
860.011530,-1554.432478,-1480.411884,-9882.631924
860.011850,-370.102971,-148.041188,-9806.022374
860.012170,148.041188,1924.535449,-9806.022374
860.012490,888.247130,1702.473667,-10189.070123
860.012809,814.226536,888.247130,-10112.460574
860.013129,-296.082377,-222.061783,-9652.803275
860.013449,-222.061783,-1406.391290,-8197.221829
860.013769,962.267725,-296.082377,-8810.098227
860.014089,1110.308913,-148.041188,-9806.022374
860.014409,518.144159,0.000000,-9806.022374
860.014729,-444.123565,0.000000,-9652.803275
860.015049,-518.144159,-1110.308913,-9576.193725
860.015369,-1776.494261,0.000000,-9729.412825
860.015689,-740.205942,-148.041188,-9959.241474
860.016009,296.082377,148.041188,-10342.289223
860.016329,1332.370696,1258.350101,-10342.289223
860.016649,1998.556043,370.102971,-10572.117872
860.016968,1776.494261,-814.226536,-10648.727422
860.017288,888.247130,-962.267725,-10342.289223
860.017608,1406.391290,-592.164754,-10648.727422
860.017928,1480.411884,592.164754,-10418.898773
860.018248,1110.308913,740.205942,-10265.679673
860.018568,-296.082377,1554.432478,-10801.946522
860.018888,-1110.308913,-296.082377,-10648.727422
860.019208,-1258.350101,-1332.370696,-10342.289223
860.019528,-666.185348,-1850.514855,-10495.508323
860.019848,-222.061783,-1184.329507,-10495.508323
860.020168,0.000000,-148.041188,-10648.727422
860.020488,444.123565,814.226536,-10878.556072
860.020808,444.123565,2220.617826,-10572.117872
860.021128,-518.144159,2220.617826,-10801.946522
860.021447,-814.226536,1184.329507,-10189.070123
860.021767,-1110.308913,222.061783,-9882.631924
860.022087,-148.041188,-1036.288319,-9959.241474
860.022407,296.082377,-2072.576638,-9269.755526
860.022727,74.020594,-2442.679609,-9269.755526
860.023047,370.102971,-1850.514855,-9269.755526
860.023367,-370.102971,0.000000,-9576.193725
860.023687,-370.102971,1480.411884,-9806.022374
860.024007,1702.473667,1480.411884,-9499.584175
860.024327,1998.556043,1850.514855,-9193.145976
860.024647,2294.638420,296.082377,-9576.193725
860.024967,2442.679609,0.000000,-9269.755526
860.025287,370.102971,-962.267725,-9576.193725
860.025606,-518.144159,-1110.308913,-9116.536426
860.025926,148.041188,148.041188,-9576.193725
860.026246,592.164754,518.144159,-10342.289223
860.026566,2294.638420,1110.308913,-11031.775171
860.026886,1184.329507,1110.308913,-10342.289223
860.027206,1184.329507,444.123565,-10725.336972
860.027526,814.226536,1406.391290,-10342.289223
860.027846,0.000000,1998.556043,-10495.508323
860.028166,2960.823768,2812.782580,-11261.603821
860.028486,3034.844362,2590.720797,-10955.165621
860.028806,3108.864956,1628.453072,-11108.384721
860.029126,2516.700203,-370.102971,-10112.460574
860.029446,1036.288319,962.267725,-10648.727422
860.029766,592.164754,1924.535449,-10418.898773
860.030085,814.226536,3404.947333,-10801.946522
860.030405,666.185348,3775.050304,-10342.289223
860.030725,518.144159,2960.823768,-10112.460574
860.031045,888.247130,962.267725,-10265.679673
860.031365,888.247130,-740.205942,-9729.412825
860.031685,592.164754,-1924.535449,-9422.974625
860.032005,370.102971,-592.164754,-8810.098227
860.032325,888.247130,740.205942,-9499.584175
860.032645,1776.494261,1480.411884,-9652.803275
860.032965,888.247130,1036.288319,-9576.193725
860.033285,814.226536,222.061783,-9959.241474
860.033605,1258.350101,-592.164754,-9346.365076
860.033925,0.000000,0.000000,-9193.145976
860.034244,-444.123565,222.061783,-9652.803275
860.034564,-444.123565,-296.082377,-9729.412825
860.034884,-296.082377,-1258.350101,-9576.193725
860.035204,-592.164754,-740.205942,-9882.631924
860.035524,-1332.370696,-888.247130,-9806.022374
860.035844,-2368.659014,740.205942,-10342.289223
860.036164,-1036.288319,2072.576638,-10572.117872
860.036484,-518.144159,2516.700203,-11338.213370
860.036804,740.205942,1184.329507,-10801.946522
860.037124,296.082377,-518.144159,-10572.117872
860.037444,0.000000,-1110.308913,-10648.727422
860.037764,518.144159,-222.061783,-11031.775171
860.038084,666.185348,370.102971,-10189.070123
860.038403,148.041188,814.226536,-11108.384721
860.038723,-1036.288319,962.267725,-10265.679673
860.039043,962.267725,-444.123565,-10265.679673
860.039363,2368.659014,-1332.370696,-10342.289223
860.039683,0.000000,-1702.473667,-9959.241474
860.040003,-2072.576638,296.082377,-10342.289223
860.040323,-1184.329507,-222.061783,-10035.851024
860.040643,1110.308913,-1184.329507,-9806.022374
860.040963,1480.411884,-962.267725,-10189.070123
860.041283,-740.205942,-1184.329507,-9499.584175
860.041603,-444.123565,-1332.370696,-9729.412825
860.041923,-222.061783,-1110.308913,-9499.584175
860.042243,0.000000,-148.041188,-9576.193725
860.042563,0.000000,-592.164754,-9806.022374
860.042882,1702.473667,-888.247130,-9652.803275
860.043202,1628.453072,-1554.432478,-9806.022374
860.043522,1332.370696,-1776.494261,-8963.317327
860.043842,814.226536,-296.082377,-9806.022374
860.044162,0.000000,444.123565,-9882.631924
860.044482,222.061783,370.102971,-9576.193725
860.044802,-296.082377,592.164754,-10035.851024
860.045122,-370.102971,0.000000,-9806.022374
860.045442,962.267725,-1184.329507,-10189.070123
860.045762,1184.329507,-370.102971,-10342.289223
860.046082,518.144159,74.020594,-10648.727422
860.046402,74.020594,740.205942,-10342.289223
860.046722,0.000000,592.164754,-10495.508323
860.047041,1110.308913,222.061783,-10801.946522
860.047361,2146.597232,-148.041188,-10189.070123
860.047681,1628.453072,222.061783,-10035.851024
860.048001,1258.350101,518.144159,-10265.679673
860.048321,1258.350101,2072.576638,-10648.727422
860.048641,888.247130,1776.494261,-10648.727422
860.048961,2294.638420,1924.535449,-10418.898773
860.049281,2886.803174,1184.329507,-10265.679673
860.049601,2590.720797,518.144159,-9959.241474
860.049921,1332.370696,592.164754,-10342.289223
860.050241,-296.082377,1702.473667,-10112.460574
860.050561,888.247130,2072.576638,-9806.022374
860.050881,1776.494261,666.185348,-9806.022374
860.051201,1998.556043,-370.102971,-10189.070123
860.051520,888.247130,-962.267725,-9729.412825
860.051840,1110.308913,-74.020594,-9576.193725
860.052160,1776.494261,2516.700203,-10495.508323
860.052480,1110.308913,3108.864956,-10112.460574
860.052800,-740.205942,2886.803174,-10265.679673
860.053120,-814.226536,1036.288319,-9652.803275
860.053440,-296.082377,296.082377,-9499.584175
860.053760,-222.061783,0.000000,-9576.193725
860.054080,-1110.308913,444.123565,-9959.241474
860.054400,-296.082377,962.267725,-9806.022374
860.054720,1110.308913,444.123565,-9269.755526
860.055040,1850.514855,-666.185348,-9806.022374
860.055360,814.226536,-370.102971,-9729.412825
860.055679,-148.041188,666.185348,-10035.851024
860.055999,-1110.308913,2368.659014,-9882.631924
860.056319,-592.164754,2812.782580,-11414.822920
860.056639,-592.164754,2072.576638,-10112.460574
860.056959,-814.226536,-518.144159,-9729.412825
860.057279,740.205942,-1554.432478,-9959.241474
860.057599,1480.411884,-962.267725,-10112.460574
860.057919,0.000000,-222.061783,-10265.679673
860.058239,0.000000,1110.308913,-10572.117872
860.058559,-444.123565,2590.720797,-10648.727422
860.058879,0.000000,1998.556043,-10342.289223
860.059199,814.226536,1184.329507,-10035.851024
860.059519,962.267725,74.020594,-10189.070123
860.059839,740.205942,-1036.288319,-10189.070123
860.060158,1924.535449,0.000000,-10035.851024
860.060478,1850.514855,1406.391290,-10725.336972
860.060798,-370.102971,222.061783,-10342.289223
860.061118,-2072.576638,222.061783,-10265.679673
860.061438,-1110.308913,-296.082377,-10189.070123
860.061758,962.267725,-296.082377,-10342.289223
860.062078,1258.350101,0.000000,-10648.727422
860.062398,666.185348,222.061783,-10418.898773
860.062719,370.102971,1110.308913,-10418.898773
860.063039,1998.556043,1184.329507,-10572.117872
860.063359,2146.597232,-814.226536,-9499.584175
860.063679,814.226536,-1924.535449,-10035.851024
860.063999,518.144159,-1702.473667,-9882.631924
860.064319,-518.144159,-814.226536,-9499.584175
860.064639,222.061783,-222.061783,-10189.070123
860.064959,0.000000,296.082377,-8963.317327
860.065279,-148.041188,222.061783,-9729.412825
860.065599,1776.494261,-296.082377,-9806.022374
860.065919,2960.823768,-888.247130,-9959.241474
860.066239,2368.659014,74.020594,-9269.755526
860.066559,-444.123565,-1776.494261,-9652.803275
860.066879,-1258.350101,-1036.288319,-9652.803275
860.067199,-1332.370696,-888.247130,-9806.022374
860.067519,444.123565,148.041188,-9806.022374
860.067839,1702.473667,888.247130,-10112.460574
860.068159,0.000000,740.205942,-10418.898773
860.068479,-222.061783,518.144159,-11031.775171
860.068799,296.082377,1110.308913,-10572.117872
860.069119,-740.205942,1258.350101,-10418.898773
860.069439,0.000000,962.267725,-10572.117872
860.069759,666.185348,222.061783,-10572.117872
860.070079,518.144159,148.041188,-10572.117872
860.070399,1406.391290,0.000000,-10265.679673
860.070719,1998.556043,-444.123565,-10572.117872
860.071039,2146.597232,0.000000,-10572.117872
860.071359,814.226536,444.123565,-10189.070123
860.071679,-518.144159,1258.350101,-10418.898773
860.071999,0.000000,1258.350101,-9729.412825
860.072319,-222.061783,1554.432478,-10112.460574
860.072639,222.061783,-222.061783,-10112.460574
860.072959,666.185348,0.000000,-10418.898773
860.073279,-666.185348,-222.061783,-9346.365076
860.073599,148.041188,1332.370696,-9882.631924
860.073919,1036.288319,666.185348,-9806.022374
860.074239,1184.329507,1110.308913,-9806.022374
860.074559,1258.350101,-148.041188,-9806.022374
860.074879,2516.700203,740.205942,-9269.755526
860.075199,2516.700203,666.185348,-10112.460574
860.075519,370.102971,1110.308913,-9269.755526
860.075839,-444.123565,2072.576638,-9806.022374
860.076159,0.000000,1480.411884,-10035.851024
860.076479,1850.514855,-518.144159,-9806.022374
860.076799,1702.473667,-2220.617826,-9806.022374
860.077119,370.102971,-1998.556043,-9806.022374
860.077439,-888.247130,1036.288319,-9882.631924
860.077759,-1110.308913,2886.803174,-10725.336972
860.078080,-814.226536,2516.700203,-10648.727422
860.078400,-592.164754,444.123565,-10112.460574
860.078720,-296.082377,-1036.288319,-10342.289223
860.079040,518.144159,-1332.370696,-10648.727422
860.079360,962.267725,1258.350101,-10955.165621
860.079680,1110.308913,2072.576638,-10189.070123
860.080000,1110.308913,2738.761985,-10878.556072
860.080320,1110.308913,1776.494261,-10878.556072
860.080640,2368.659014,148.041188,-10725.336972
860.080960,518.144159,370.102971,-10572.117872
860.081280,-222.061783,888.247130,-10801.946522
860.081600,-222.061783,1258.350101,-10189.070123
860.081920,222.061783,740.205942,-10265.679673
860.082240,0.000000,-148.041188,-9729.412825
860.082560,-1184.329507,222.061783,-10342.289223
860.082880,-1258.350101,-148.041188,-9959.241474
860.083200,-370.102971,518.144159,-10495.508323
860.083520,-962.267725,592.164754,-9346.365076
860.083840,-666.185348,370.102971,-9346.365076
860.084160,-222.061783,-518.144159,-9346.365076
860.084480,740.205942,-1702.473667,-9576.193725
860.084800,1258.350101,-2072.576638,-9269.755526
860.085120,962.267725,-592.164754,-9422.974625
860.085440,740.205942,-74.020594,-9806.022374
860.085760,-370.102971,1628.453072,-9346.365076
860.086080,-592.164754,1554.432478,-9806.022374
860.086400,0.000000,222.061783,-9959.241474
860.086720,444.123565,-1036.288319,-9422.974625
860.087040,1184.329507,-666.185348,-10265.679673
860.087360,814.226536,-296.082377,-9729.412825
860.087680,1184.329507,888.247130,-10342.289223
860.088000,-444.123565,592.164754,-10112.460574
860.088320,0.000000,962.267725,-10265.679673
860.088640,1110.308913,0.000000,-10189.070123
860.088960,3478.967927,-1258.350101,-10112.460574
860.089280,2368.659014,666.185348,-10878.556072
860.089600,740.205942,1480.411884,-11108.384721
860.089920,-666.185348,1406.391290,-10342.289223
860.090240,-592.164754,1258.350101,-10801.946522
860.090560,1628.453072,-740.205942,-10572.117872
860.090880,2738.761985,-370.102971,-10342.289223
860.091200,2368.659014,148.041188,-10648.727422
860.091520,1480.411884,296.082377,-10189.070123
860.091840,1258.350101,1110.308913,-10495.508323
860.092160,962.267725,962.267725,-10572.117872
860.092480,1406.391290,74.020594,-10189.070123
860.092800,1924.535449,1332.370696,-10189.070123
860.093120,1776.494261,518.144159,-10035.851024
860.093440,1776.494261,0.000000,-9882.631924
860.093761,-222.061783,1110.308913,-10342.289223
860.094081,-222.061783,222.061783,-9806.022374
860.094401,1110.308913,444.123565,-10035.851024
860.094721,1776.494261,-222.061783,-9806.022374
860.095041,2368.659014,-814.226536,-9806.022374
860.095361,-1184.329507,-222.061783,-9729.412825
860.095681,-962.267725,74.020594,-9729.412825
860.096001,-370.102971,888.247130,-9959.241474
860.096321,-592.164754,370.102971,-9729.412825
860.096641,-296.082377,-370.102971,-10572.117872
860.096961,1480.411884,222.061783,-10189.070123
860.097281,2590.720797,148.041188,-9959.241474
860.097601,1702.473667,148.041188,-10112.460574
860.097921,-148.041188,-296.082377,-9652.803275
860.098241,-1184.329507,1036.288319,-9959.241474
860.098561,-740.205942,1554.432478,-10035.851024
860.098881,148.041188,740.205942,-9193.145976
860.099201,-962.267725,74.020594,-10495.508323
860.099521,-1554.432478,-518.144159,-9652.803275
860.099841,-518.144159,-740.205942,-10342.289223
860.100161,-148.041188,296.082377,-10189.070123
860.100481,0.000000,1998.556043,-9959.241474
860.100801,-518.144159,1480.411884,-10418.898773
860.101121,296.082377,-222.061783,-10189.070123
860.101441,592.164754,0.000000,-10112.460574
860.101761,-222.061783,444.123565,-10342.289223
860.102081,740.205942,74.020594,-10342.289223
860.102401,148.041188,444.123565,-10572.117872
860.102721,0.000000,740.205942,-10342.289223
860.103041,-888.247130,370.102971,-10035.851024
860.103361,-1776.494261,518.144159,-10418.898773
860.103681,-888.247130,-148.041188,-9959.241474
860.104001,-148.041188,-444.123565,-10648.727422
860.104321,-1628.453072,-148.041188,-9806.022374
860.104641,-1554.432478,-962.267725,-9652.803275
860.104961,-888.247130,-444.123565,-9576.193725
860.105281,962.267725,-1480.411884,-9882.631924
860.105601,1998.556043,-888.247130,-9882.631924
860.105921,296.082377,296.082377,-10265.679673
860.106241,814.226536,148.041188,-10342.289223
860.106561,888.247130,222.061783,-9346.365076
860.106881,74.020594,1480.411884,-10342.289223
860.107201,1702.473667,2146.597232,-10265.679673
860.107521,1924.535449,666.185348,-11414.822920
860.107841,1406.391290,-814.226536,-9959.241474
860.108161,814.226536,-444.123565,-9806.022374
860.108481,666.185348,0.000000,-10189.070123
860.108801,1258.350101,-296.082377,-9959.241474
860.109122,1702.473667,-740.205942,-9806.022374
860.109442,1258.350101,296.082377,-10112.460574
860.109762,1258.350101,740.205942,-9499.584175
860.110082,1998.556043,1480.411884,-10495.508323
860.110402,1850.514855,2146.597232,-10112.460574
860.110722,1480.411884,2220.617826,-9959.241474
860.111042,1554.432478,2072.576638,-10495.508323
860.111362,3627.009116,0.000000,-10035.851024
860.111682,3627.009116,-1258.350101,-10418.898773
860.112002,1850.514855,-1850.514855,-9806.022374
860.112322,1110.308913,-1406.391290,-10189.070123
860.112642,1332.370696,962.267725,-10572.117872
860.112962,962.267725,2146.597232,-10418.898773
860.113282,1036.288319,3034.844362,-11108.384721
860.113602,-592.164754,2072.576638,-10572.117872
860.113922,-888.247130,74.020594,-11108.384721
860.114242,-296.082377,-518.144159,-9806.022374
860.114562,-814.226536,74.020594,-10189.070123
860.114882,-148.041188,1332.370696,-10112.460574
860.115202,-740.205942,888.247130,-10265.679673
860.115522,-740.205942,-518.144159,-9959.241474
860.115842,-1998.556043,-296.082377,-9729.412825
860.116162,-2664.741391,0.000000,-9346.365076
860.116482,-1184.329507,0.000000,-9959.241474
860.116802,1036.288319,370.102971,-9959.241474
860.117122,1850.514855,1110.308913,-10112.460574
860.117442,2072.576638,888.247130,-10572.117872
860.117762,2812.782580,444.123565,-10035.851024
860.118082,2960.823768,222.061783,-9959.241474
860.118402,740.205942,1406.391290,-10342.289223
860.118722,0.000000,814.226536,-10112.460574
860.119042,-1332.370696,296.082377,-10342.289223
860.119362,-148.041188,0.000000,-9882.631924
860.119682,-370.102971,-444.123565,-9882.631924
860.120002,0.000000,-148.041188,-9882.631924
860.120322,74.020594,-888.247130,-9576.193725
860.120642,518.144159,-222.061783,-9959.241474
860.120962,-888.247130,1036.288319,-10189.070123
860.121282,0.000000,1850.514855,-10342.289223
860.121602,-296.082377,2220.617826,-10189.070123
860.121922,1036.288319,1776.494261,-10725.336972
860.122242,1554.432478,2516.700203,-10189.070123
860.122562,1850.514855,1036.288319,-11031.775171
860.122882,2294.638420,-2146.597232,-10342.289223
860.123202,888.247130,-3256.906145,-9806.022374
860.123522,666.185348,-2886.803174,-9882.631924
860.123842,0.000000,-1406.391290,-10035.851024
860.124162,518.144159,444.123565,-10265.679673
860.124483,-222.061783,2220.617826,-10342.289223
860.124803,-1776.494261,2516.700203,-10725.336972
860.125123,-1702.473667,1702.473667,-10189.070123
860.125443,-888.247130,148.041188,-9959.241474
860.125763,370.102971,-1406.391290,-10342.289223
860.126083,1924.535449,-3478.967927,-9806.022374
860.126403,148.041188,-2442.679609,-9806.022374
860.126723,-1110.308913,-888.247130,-9806.022374
860.127043,-888.247130,518.144159,-10112.460574
860.127363,0.000000,2072.576638,-9882.631924
860.127683,2294.638420,2368.659014,-10801.946522
860.128003,3108.864956,2146.597232,-10418.898773
860.128323,2294.638420,1184.329507,-10035.851024
860.128643,1110.308913,444.123565,-9729.412825
860.128963,1184.329507,-1110.308913,-9269.755526
860.129283,1628.453072,-1776.494261,-9652.803275
860.129603,2220.617826,-740.205942,-9882.631924
860.129923,2146.597232,444.123565,-10342.289223
860.130243,1628.453072,2368.659014,-10265.679673
860.130563,888.247130,2294.638420,-10265.679673
860.130883,0.000000,3034.844362,-10495.508323
860.131203,-296.082377,1628.453072,-10189.070123
860.131523,-1406.391290,370.102971,-10265.679673
860.131843,370.102971,-888.247130,-9882.631924
860.132163,2072.576638,-1258.350101,-10035.851024
860.132483,2072.576638,-740.205942,-10035.851024
860.132803,1184.329507,-148.041188,-9806.022374
860.133123,-296.082377,1184.329507,-10418.898773
860.133443,74.020594,1850.514855,-10035.851024
860.133763,1480.411884,1998.556043,-9806.022374
860.134083,1332.370696,740.205942,-9959.241474
860.134403,0.000000,-740.205942,-9652.803275
860.134723,-444.123565,-1850.514855,-9499.584175
860.135043,-148.041188,-1554.432478,-9882.631924
860.135363,148.041188,-296.082377,-10189.070123
860.135683,-666.185348,962.267725,-9882.631924
860.136003,-1554.432478,962.267725,-9576.193725
860.136323,-518.144159,370.102971,-9806.022374
860.136643,-296.082377,0.000000,-9806.022374
860.136963,-518.144159,-444.123565,-9959.241474
860.137283,-888.247130,-518.144159,-9806.022374
860.137603,0.000000,-666.185348,-9806.022374
860.137923,888.247130,74.020594,-9499.584175
860.138243,1184.329507,148.041188,-10265.679673
860.138563,666.185348,296.082377,-10112.460574
860.138883,962.267725,0.000000,-10342.289223
860.139203,740.205942,-296.082377,-10265.679673
860.139523,444.123565,0.000000,-10112.460574
860.139843,592.164754,296.082377,-10189.070123
860.140164,592.164754,962.267725,-10342.289223
860.140484,814.226536,814.226536,-10418.898773
860.140804,740.205942,1776.494261,-10648.727422
860.141124,814.226536,666.185348,-10725.336972
860.141444,814.226536,0.000000,-10342.289223
860.141764,666.185348,74.020594,-9882.631924
860.142084,74.020594,-370.102971,-9499.584175
860.142404,592.164754,-74.020594,-9959.241474
860.142724,1628.453072,-370.102971,-10112.460574
860.143044,2146.597232,-74.020594,-10189.070123
860.143364,592.164754,0.000000,-9959.241474
860.143684,-740.205942,888.247130,-10189.070123
860.144004,-740.205942,1036.288319,-9806.022374
860.144324,296.082377,1702.473667,-10572.117872
860.144644,592.164754,-222.061783,-9806.022374
860.144964,-296.082377,-1628.453072,-10035.851024
860.145284,-592.164754,-2220.617826,-9806.022374
860.145604,-148.041188,-1628.453072,-9959.241474
860.145924,518.144159,1110.308913,-10265.679673
860.146244,-222.061783,2442.679609,-9959.241474
860.146564,-1036.288319,296.082377,-9729.412825
860.146884,-370.102971,-740.205942,-9806.022374
860.147204,1406.391290,-2368.659014,-9499.584175
860.147524,3108.864956,-1110.308913,-10878.556072
860.147844,1184.329507,0.000000,-10265.679673
860.148164,0.000000,2220.617826,-10418.898773
860.148484,-2368.659014,1628.453072,-9806.022374
860.148804,-592.164754,1998.556043,-10189.070123
860.149124,888.247130,1332.370696,-10265.679673
860.149444,1110.308913,1850.514855,-10189.070123
860.149764,0.000000,962.267725,-11184.994271
860.150084,-814.226536,74.020594,-9652.803275
860.150404,-148.041188,222.061783,-10112.460574
860.150724,296.082377,518.144159,-9499.584175
860.151044,2590.720797,1480.411884,-9729.412825
860.151364,3034.844362,1702.473667,-9959.241474
860.151684,1628.453072,1628.453072,-10418.898773
860.152004,444.123565,0.000000,-9806.022374
860.152324,148.041188,296.082377,-9882.631924
860.152644,518.144159,222.061783,-9652.803275
860.152964,1628.453072,2072.576638,-10035.851024
860.153284,1776.494261,1184.329507,-10189.070123
860.153604,2442.679609,1184.329507,-10418.898773
860.153924,1554.432478,2294.638420,-10418.898773
860.154244,666.185348,1480.411884,-10035.851024
860.154564,518.144159,962.267725,-9576.193725
860.154884,74.020594,-296.082377,-10035.851024
860.155204,1258.350101,-1924.535449,-9806.022374
860.155525,814.226536,-1036.288319,-10035.851024
860.155845,-370.102971,222.061783,-10189.070123
860.156165,0.000000,2220.617826,-11108.384721
860.156485,0.000000,1554.432478,-9959.241474
860.156805,-74.020594,2146.597232,-10112.460574
860.157125,370.102971,1184.329507,-10035.851024
860.157445,296.082377,370.102971,-10342.289223
860.157765,1480.411884,518.144159,-10725.336972
860.158085,0.000000,0.000000,-10725.336972
860.158405,-518.144159,-1480.411884,-9652.803275
860.158725,-1258.350101,-370.102971,-9806.022374
860.159045,-296.082377,1110.308913,-10035.851024
860.159365,1702.473667,3330.926739,-11031.775171
860.159685,1850.514855,1332.370696,-10418.898773
860.160005,666.185348,-370.102971,-10572.117872
860.160325,74.020594,-1036.288319,-9576.193725
860.160645,-666.185348,74.020594,-10189.070123
860.160965,222.061783,-962.267725,-9499.584175
860.161285,2442.679609,-296.082377,-10418.898773
860.161605,2812.782580,-1850.514855,-9959.241474
860.161925,666.185348,0.000000,-9729.412825
860.162244,-1184.329507,0.000000,-10189.070123
860.162564,-2368.659014,1776.494261,-10189.070123
860.162884,-592.164754,1480.411884,-9806.022374
860.163204,888.247130,370.102971,-10265.679673
860.163524,666.185348,-1554.432478,-9806.022374
860.163844,-296.082377,-1702.473667,-10035.851024
860.164164,-1776.494261,-2146.597232,-9959.241474
860.164484,-2516.700203,-1998.556043,-10035.851024
860.164804,-1776.494261,-222.061783,-9806.022374
860.165124,-740.205942,370.102971,-10035.851024
860.165444,2294.638420,-296.082377,-10495.508323
860.165764,3108.864956,518.144159,-10189.070123
860.166084,1776.494261,1110.308913,-10725.336972
860.166404,444.123565,1406.391290,-10801.946522
860.166724,-888.247130,592.164754,-10418.898773
860.167044,-1184.329507,-888.247130,-10112.460574
860.167364,-444.123565,-1554.432478,-9652.803275
860.167684,0.000000,-1258.350101,-10495.508323
860.168004,370.102971,-1924.535449,-10189.070123
860.168324,-370.102971,-296.082377,-10572.117872
860.168644,-1554.432478,962.267725,-10801.946522
860.168964,-888.247130,2368.659014,-10801.946522
860.169284,-370.102971,2590.720797,-9806.022374
860.169604,74.020594,1628.453072,-10342.289223
860.169924,222.061783,-592.164754,-9729.412825
860.170244,1332.370696,-1554.432478,-9652.803275
860.170563,1924.535449,-2368.659014,-9959.241474
860.170883,2442.679609,-1036.288319,-10189.070123
860.171203,1998.556043,-814.226536,-9652.803275
860.171523,1406.391290,370.102971,-9806.022374
860.171843,1332.370696,1406.391290,-9806.022374
860.172163,148.041188,2738.761985,-10572.117872
860.172483,-518.144159,2072.576638,-10265.679673
860.172803,-814.226536,222.061783,-9959.241474
860.173123,0.000000,-1628.453072,-9576.193725
860.173443,1406.391290,-962.267725,-9806.022374
860.173763,2294.638420,-444.123565,-10342.289223
860.174083,3701.029710,888.247130,-9882.631924
860.174403,2886.803174,2368.659014,-10801.946522
860.174723,1776.494261,2516.700203,-10801.946522
860.175043,370.102971,2072.576638,-10572.117872
860.175363,-592.164754,1480.411884,-9729.412825
860.175683,-222.061783,1258.350101,-10265.679673
860.176003,666.185348,592.164754,-10265.679673
860.176323,1554.432478,-444.123565,-10265.679673
860.176643,1258.350101,0.000000,-10495.508323
860.176963,2220.617826,1480.411884,-10418.898773
860.177283,1258.350101,1998.556043,-10648.727422
860.177603,444.123565,1850.514855,-9882.631924
860.177923,0.000000,1554.432478,-10035.851024
860.178243,1110.308913,814.226536,-9652.803275
860.178563,1480.411884,-148.041188,-9422.974625
860.178883,1036.288319,74.020594,-10648.727422
860.179202,1184.329507,444.123565,-10418.898773
860.179522,-148.041188,962.267725,-9882.631924
860.179842,518.144159,444.123565,-9729.412825
860.180162,1406.391290,1110.308913,-8886.707777
860.180482,814.226536,1036.288319,-9652.803275
860.180802,-592.164754,222.061783,-9729.412825
860.181122,-222.061783,370.102971,-9959.241474
860.181442,-518.144159,-222.061783,-9652.803275
860.181762,518.144159,74.020594,-9499.584175
860.182082,1924.535449,592.164754,-9959.241474
860.182402,1998.556043,0.000000,-10112.460574
860.182722,1406.391290,296.082377,-9882.631924
860.183042,-1258.350101,222.061783,-10035.851024
860.183362,-2072.576638,518.144159,-10265.679673
860.183682,-1258.350101,222.061783,-9806.022374
860.184002,-518.144159,-148.041188,-10265.679673
860.184322,-518.144159,-814.226536,-10035.851024
860.184642,888.247130,-1110.308913,-9499.584175
860.184962,666.185348,-1184.329507,-10418.898773
860.185282,-222.061783,-962.267725,-10112.460574
860.185602,-1332.370696,444.123565,-10725.336972
860.185922,-370.102971,370.102971,-10342.289223
860.186242,0.000000,-740.205942,-10418.898773
860.186562,148.041188,-296.082377,-10265.679673
860.186882,-222.061783,-296.082377,-10495.508323
860.187202,296.082377,-666.185348,-10648.727422
860.187521,148.041188,444.123565,-10801.946522
860.187841,-148.041188,0.000000,-10035.851024
860.188161,-1332.370696,148.041188,-10572.117872
860.188481,-666.185348,-148.041188,-10112.460574
860.188801,74.020594,-1480.411884,-11184.994271
860.189121,0.000000,-740.205942,-10342.289223
860.189441,0.000000,-592.164754,-9806.022374
860.189761,1184.329507,-148.041188,-9959.241474
860.190081,1554.432478,-296.082377,-9806.022374
860.190401,1998.556043,-444.123565,-10189.070123
860.190721,1110.308913,0.000000,-9806.022374
860.191041,962.267725,518.144159,-9806.022374
860.191361,148.041188,1258.350101,-10035.851024
860.191681,0.000000,1702.473667,-9806.022374
860.192001,370.102971,296.082377,-9806.022374
860.192321,962.267725,-1332.370696,-9882.631924
860.192641,296.082377,-1110.308913,-9269.755526
860.192961,0.000000,0.000000,-10495.508323
860.193281,1776.494261,1850.514855,-9806.022374
860.193601,4219.173869,2072.576638,-10418.898773
860.193921,3701.029710,2738.761985,-10418.898773
860.194241,2516.700203,1850.514855,-10112.460574
860.194561,1184.329507,740.205942,-9729.412825
860.194881,1924.535449,-222.061783,-10265.679673
860.195201,2146.597232,740.205942,-10265.679673
860.195521,1554.432478,1258.350101,-10648.727422
860.195840,1184.329507,1110.308913,-10189.070123
860.196160,814.226536,666.185348,-10495.508323
860.196480,0.000000,444.123565,-10265.679673
860.196800,-666.185348,666.185348,-10725.336972
860.197120,-518.144159,592.164754,-10035.851024
860.197440,296.082377,1480.411884,-11414.822920
860.197760,666.185348,1480.411884,-10035.851024
860.198080,1036.288319,1184.329507,-10648.727422
860.198400,1184.329507,370.102971,-9882.631924
860.198720,1480.411884,0.000000,-10418.898773
860.199040,1628.453072,-592.164754,-9882.631924
860.199360,1110.308913,370.102971,-9959.241474
860.199680,-518.144159,1110.308913,-9729.412825
860.200000,-962.267725,370.102971,-9806.022374
860.200320,-888.247130,-444.123565,-9729.412825
860.200640,-666.185348,-370.102971,-9652.803275
860.200960,148.041188,-888.247130,-9729.412825
860.201280,148.041188,-740.205942,-9806.022374
860.201600,592.164754,-962.267725,-9652.803275
860.201920,-1406.391290,0.000000,-10112.460574
860.202240,-2368.659014,370.102971,-9729.412825
860.202560,-1628.453072,2146.597232,-10189.070123
860.202880,962.267725,2590.720797,-10801.946522
860.203200,2294.638420,2072.576638,-10189.070123
860.203520,2960.823768,814.226536,-10418.898773
860.203840,2072.576638,-444.123565,-10112.460574
860.204159,1776.494261,-1332.370696,-10112.460574
860.204479,1406.391290,-1036.288319,-10418.898773
860.204799,1406.391290,-370.102971,-10112.460574
860.205119,814.226536,444.123565,-10572.117872
860.205439,0.000000,296.082377,-10265.679673
860.205759,-296.082377,370.102971,-10342.289223
860.206079,-1258.350101,1258.350101,-10878.556072
860.206399,-1850.514855,666.185348,-10418.898773
860.206719,-962.267725,592.164754,-10418.898773
860.207039,0.000000,0.000000,-10189.070123
860.207359,740.205942,-592.164754,-11568.042020
860.207679,814.226536,-1110.308913,-9806.022374
860.207999,-296.082377,-518.144159,-10418.898773
860.208319,-962.267725,370.102971,-9882.631924
860.208639,-666.185348,1036.288319,-9422.974625
860.208959,74.020594,962.267725,-10035.851024
860.209279,518.144159,-370.102971,-9806.022374
860.209599,296.082377,-1998.556043,-9806.022374
860.209919,0.000000,-2072.576638,-9499.584175
860.210239,222.061783,-1554.432478,-9806.022374
860.210559,-1036.288319,1184.329507,-9499.584175
860.210879,-296.082377,2072.576638,-9806.022374
860.211199,888.247130,1184.329507,-9806.022374
860.211519,2146.597232,-222.061783,-9806.022374
860.211839,2368.659014,-2960.823768,-9499.584175
860.212159,1776.494261,-2368.659014,-9806.022374
860.212479,1480.411884,-592.164754,-9729.412825
860.212798,1480.411884,1628.453072,-10265.679673
860.213118,1924.535449,2220.617826,-10342.289223
860.213438,1110.308913,2072.576638,-10189.070123
860.213758,1628.453072,666.185348,-10189.070123
860.214078,1628.453072,740.205942,-9959.241474
860.214398,518.144159,1480.411884,-11108.384721
860.214718,0.000000,1628.453072,-10495.508323
860.215038,-222.061783,1850.514855,-10418.898773
860.215358,518.144159,518.144159,-10725.336972
860.215678,1258.350101,222.061783,-10418.898773
860.215998,1184.329507,814.226536,-10725.336972
860.216318,1850.514855,2368.659014,-10572.117872
860.216638,2960.823768,4219.173869,-11031.775171
860.216958,2664.741391,4515.256246,-11338.213370
860.217278,2442.679609,2220.617826,-10112.460574
860.217598,1406.391290,0.000000,-9959.241474
860.217918,1850.514855,-1480.411884,-9576.193725
860.218238,1850.514855,0.000000,-10112.460574
860.218558,592.164754,1036.288319,-10265.679673
860.218878,-888.247130,1702.473667,-9652.803275
860.219198,-1776.494261,1332.370696,-9576.193725
860.219518,518.144159,1628.453072,-9729.412825
860.219838,222.061783,1480.411884,-9882.631924
860.220158,0.000000,592.164754,-9039.926876
860.220478,-1480.411884,0.000000,-9806.022374
860.220798,-666.185348,-740.205942,-9346.365076
860.221117,148.041188,148.041188,-9193.145976
860.221437,0.000000,296.082377,-9652.803275
860.221757,740.205942,444.123565,-9652.803275
860.222077,2072.576638,962.267725,-9806.022374
860.222397,2368.659014,666.185348,-10035.851024
860.222717,1628.453072,518.144159,-10342.289223
860.223037,-370.102971,518.144159,-9652.803275
860.223357,-888.247130,-148.041188,-9422.974625
860.223677,-592.164754,0.000000,-9882.631924
860.223997,-1036.288319,0.000000,-10265.679673
860.224317,-888.247130,0.000000,-11031.775171
860.224637,0.000000,-1184.329507,-10265.679673
860.224957,814.226536,-1110.308913,-10265.679673
860.225277,296.082377,-518.144159,-9806.022374
860.225597,-148.041188,74.020594,-10572.117872
860.225917,148.041188,148.041188,-10189.070123
860.226237,1332.370696,-1924.535449,-10265.679673
860.226557,1036.288319,-2146.597232,-10418.898773
860.226877,0.000000,-1998.556043,-10342.289223
860.227197,-740.205942,-1110.308913,-10189.070123
860.227517,-370.102971,666.185348,-10495.508323
860.227837,444.123565,0.000000,-10418.898773
860.228157,814.226536,-1628.453072,-10265.679673
860.228477,518.144159,-2368.659014,-9882.631924
860.228797,592.164754,-3404.947333,-10342.289223
860.229117,-814.226536,-3108.864956,-10035.851024
860.229436,-1110.308913,-1406.391290,-10189.070123
860.229756,-148.041188,-740.205942,-9806.022374
860.230076,-296.082377,0.000000,-10112.460574
860.230396,-740.205942,-1110.308913,-9806.022374
860.230716,0.000000,-1554.432478,-10112.460574
860.231036,1480.411884,-2072.576638,-10035.851024
860.231356,1850.514855,-1998.556043,-9882.631924
860.231676,1110.308913,-1628.453072,-9959.241474
860.231996,0.000000,-2072.576638,-9959.241474
860.232316,-666.185348,-1554.432478,-9806.022374
860.232636,-1036.288319,-592.164754,-10265.679673
860.232956,148.041188,740.205942,-11644.651570
860.233276,-222.061783,1332.370696,-10572.117872
860.233596,814.226536,1776.494261,-10265.679673
860.233916,1554.432478,518.144159,-10725.336972
860.234236,1480.411884,296.082377,-10572.117872
860.234556,962.267725,-148.041188,-11184.994271
860.234876,888.247130,-592.164754,-10189.070123
860.235196,1332.370696,1110.308913,-10418.898773
860.235516,444.123565,3034.844362,-10112.460574
860.235836,666.185348,4071.132681,-10648.727422
860.236156,666.185348,3552.988522,-10725.336972
860.236476,1998.556043,1850.514855,-10495.508323
860.236796,2294.638420,0.000000,-9806.022374
860.237116,962.267725,-148.041188,-9806.022374
860.237436,-74.020594,0.000000,-9882.631924
860.237756,-518.144159,888.247130,-9576.193725
860.238075,370.102971,2812.782580,-10112.460574
860.238395,888.247130,2516.700203,-9806.022374
860.238715,962.267725,2072.576638,-9806.022374
860.239035,1258.350101,1628.453072,-9806.022374
860.239355,1554.432478,1184.329507,-9806.022374
860.239675,1184.329507,1036.288319,-10035.851024
860.239995,518.144159,1776.494261,-9959.241474
860.240315,148.041188,518.144159,-9499.584175
860.240635,962.267725,444.123565,-9729.412825
860.240955,1924.535449,1776.494261,-9806.022374
860.241275,2146.597232,2590.720797,-9959.241474
860.241595,1110.308913,3256.906145,-9652.803275
860.241915,1480.411884,3552.988522,-10035.851024
860.242235,2442.679609,3404.947333,-9882.631924
860.242555,2812.782580,1406.391290,-10342.289223
860.242875,1110.308913,740.205942,-9269.755526
860.243195,444.123565,1406.391290,-9576.193725
860.243515,962.267725,2590.720797,-10035.851024
860.243835,1406.391290,3627.009116,-9959.241474
860.244155,1702.473667,3627.009116,-10495.508323
860.244475,2368.659014,3404.947333,-10495.508323
860.244795,3701.029710,3330.926739,-10342.289223
860.245115,3182.885551,3330.926739,-10342.289223
860.245435,2368.659014,3182.885551,-10265.679673
860.245755,2738.761985,2294.638420,-9422.974625
860.246075,3034.844362,2368.659014,-10265.679673
860.246394,3182.885551,1702.473667,-10112.460574
860.246714,2294.638420,1924.535449,-10495.508323
860.247034,2516.700203,2960.823768,-10342.289223
860.247354,3182.885551,3182.885551,-10035.851024
860.247674,2886.803174,3849.070898,-10342.289223
860.247994,1924.535449,3701.029710,-10495.508323
860.248314,1332.370696,2368.659014,-10878.556072
860.248634,962.267725,888.247130,-9422.974625
860.248954,1406.391290,296.082377,-9576.193725
860.249274,2072.576638,1628.453072,-9959.241474
860.249594,1924.535449,1998.556043,-10035.851024
860.249914,666.185348,2220.617826,-10189.070123
860.250234,2442.679609,2220.617826,-9729.412825
860.250554,5773.606348,2812.782580,-9959.241474
860.250874,5107.421000,2886.803174,-9959.241474
860.251194,1258.350101,1702.473667,-9806.022374
860.251514,-2220.617826,962.267725,-8963.317327
860.251834,-1110.308913,74.020594,-9193.145976
860.252154,222.061783,444.123565,-9269.755526
860.252474,370.102971,666.185348,-9499.584175
860.252794,1258.350101,74.020594,-9729.412825
860.253114,1924.535449,740.205942,-10112.460574
860.253434,1184.329507,1406.391290,-9882.631924
860.253754,444.123565,2368.659014,-10035.851024
860.254074,148.041188,2960.823768,-9806.022374
860.254394,2590.720797,1776.494261,-10495.508323
860.254713,4441.235652,1258.350101,-10725.336972
860.255033,4367.215058,1184.329507,-10648.727422
860.255353,4441.235652,1554.432478,-10725.336972
860.255673,4885.359217,2368.659014,-10725.336972
860.255993,3330.926739,3256.906145,-11108.384721
860.256313,1628.453072,4219.173869,-11108.384721
860.256633,148.041188,3404.947333,-10265.679673
860.256953,1332.370696,2368.659014,-10648.727422
860.257273,2442.679609,370.102971,-10495.508323
860.257593,2220.617826,0.000000,-10878.556072
860.257913,2220.617826,888.247130,-10265.679673
860.258233,3034.844362,3108.864956,-10342.289223
860.258553,4515.256246,4959.379811,-10955.165621
860.258873,4441.235652,6217.729913,-10878.556072
860.259193,3330.926739,5625.565159,-10648.727422
860.259513,2516.700203,4737.318029,-10112.460574
860.259833,2738.761985,2368.659014,-10801.946522
860.260153,3701.029710,1184.329507,-10035.851024
860.260473,2590.720797,74.020594,-9422.974625
860.260793,592.164754,814.226536,-9346.365076
860.261113,0.000000,1702.473667,-9039.926876
860.261433,740.205942,2738.761985,-8963.317327
860.261753,2442.679609,3627.009116,-10112.460574
860.262073,3478.967927,3701.029710,-9499.584175
860.262411,2442.679609,3849.070898,-9806.022374
860.262731,1850.514855,3256.906145,-9652.803275
860.263051,2664.741391,2590.720797,-9422.974625
860.263371,3849.070898,2516.700203,-9882.631924
860.263691,4515.256246,1998.556043,-9729.412825
860.264011,3478.967927,1850.514855,-9806.022374
860.264331,1258.350101,2442.679609,-9806.022374
860.264651,0.000000,2886.803174,-9882.631924
860.264971,592.164754,3552.988522,-10342.289223
860.265291,1924.535449,3330.926739,-10801.946522
860.265611,3034.844362,2368.659014,-10035.851024
860.265931,2442.679609,2146.597232,-10725.336972
860.266251,592.164754,2590.720797,-10725.336972
860.266571,0.000000,3923.091493,-10342.289223
860.266891,1702.473667,4441.235652,-10801.946522
860.267211,3627.009116,3552.988522,-10572.117872
860.267531,3923.091493,2442.679609,-10265.679673
860.267851,3330.926739,2220.617826,-10878.556072
860.268171,2738.761985,2664.741391,-10648.727422
860.268491,1776.494261,4145.153275,-9269.755526
860.268811,-148.041188,4293.194464,-9882.631924
860.269131,222.061783,2812.782580,-9729.412825
860.269451,1924.535449,740.205942,-9652.803275
860.269771,2664.741391,-444.123565,-9729.412825
860.270091,2368.659014,444.123565,-9499.584175
860.270411,1406.391290,2368.659014,-9882.631924
860.270731,1850.514855,3478.967927,-9882.631924
860.271051,1924.535449,3552.988522,-9269.755526
860.271371,1850.514855,2738.761985,-9499.584175
860.271692,3182.885551,1110.308913,-9499.584175
860.272012,3182.885551,148.041188,-9959.241474
860.272332,2738.761985,444.123565,-9729.412825
860.272652,2516.700203,1554.432478,-9806.022374
860.272972,2738.761985,2738.761985,-9959.241474
860.273292,4145.153275,3404.947333,-10035.851024
860.273612,3330.926739,3330.926739,-10418.898773
860.273932,1406.391290,2516.700203,-10265.679673
860.274252,296.082377,1924.535449,-9882.631924
860.274572,1480.411884,592.164754,-10035.851024
860.274892,3627.009116,-296.082377,-10112.460574
860.275212,4219.173869,-148.041188,-10035.851024
860.275532,3627.009116,1702.473667,-10572.117872
860.275852,3775.050304,3997.112087,-10418.898773
860.276172,4589.276840,6217.729913,-11184.994271
860.276492,5107.421000,6513.812290,-11184.994271
860.276812,4071.132681,5255.462188,-11031.775171
860.277132,2812.782580,2738.761985,-12027.699319
860.277452,444.123565,518.144159,-10572.117872
860.277772,-1110.308913,74.020594,-10035.851024
860.278092,-962.267725,370.102971,-9576.193725
860.278412,592.164754,888.247130,-9269.755526
860.278732,1924.535449,1406.391290,-9806.022374
860.279052,2960.823768,2072.576638,-10112.460574
860.279372,3478.967927,2960.823768,-10189.070123
860.279692,5033.400406,4441.235652,-10189.070123
860.280012,6143.709319,5699.585753,-10265.679673
860.280332,5403.503377,5181.441594,-10572.117872
860.280652,3849.070898,4145.153275,-10418.898773
860.280972,2146.597232,2146.597232,-10189.070123
860.281292,814.226536,2072.576638,-10878.556072
860.281612,-296.082377,1628.453072,-9959.241474
860.281932,-814.226536,1258.350101,-9959.241474
860.282252,-1702.473667,666.185348,-9806.022374
860.282573,-1776.494261,518.144159,-9422.974625
860.282893,-666.185348,370.102971,-9882.631924
860.283213,1554.432478,1258.350101,-9806.022374
860.283533,3627.009116,2738.761985,-10035.851024
860.283853,5625.565159,4145.153275,-9959.241474
860.284173,6513.812290,5107.421000,-10189.070123
860.284493,5477.523971,5625.565159,-10648.727422
860.284813,3849.070898,5551.544565,-10572.117872
860.285133,1628.453072,4515.256246,-10495.508323
860.285453,666.185348,3330.926739,-10189.070123
860.285773,148.041188,1702.473667,-10112.460574
860.286093,-370.102971,666.185348,-9882.631924
860.286413,-1036.288319,222.061783,-9652.803275
860.286733,-1332.370696,1258.350101,-9652.803275
860.287053,0.000000,2442.679609,-9806.022374
860.287373,2368.659014,3627.009116,-10112.460574
860.287693,4737.318029,4367.215058,-9806.022374
860.288013,5699.585753,4441.235652,-10265.679673
860.288333,6069.688724,3330.926739,-10189.070123
860.288653,5699.585753,2368.659014,-9959.241474
860.288973,2812.782580,1924.535449,-10035.851024
860.289293,0.000000,1480.411884,-9729.412825
860.289613,-888.247130,1036.288319,-9806.022374
860.289933,0.000000,0.000000,-9806.022374
860.290253,-518.144159,-814.226536,-9346.365076
860.290573,222.061783,-740.205942,-9882.631924
860.290893,1110.308913,148.041188,-9652.803275
860.291213,2516.700203,1702.473667,-9882.631924
860.291533,3849.070898,3182.885551,-10112.460574
860.291853,4145.153275,4367.215058,-10418.898773
860.292173,4145.153275,4219.173869,-10418.898773
860.292493,3552.988522,3404.947333,-10572.117872
860.292813,2146.597232,2368.659014,-10648.727422
860.293133,2294.638420,1554.432478,-10725.336972
860.293453,1184.329507,1110.308913,-10035.851024
860.293774,666.185348,888.247130,-9959.241474
860.294094,1258.350101,444.123565,-10112.460574
860.294414,1332.370696,1258.350101,-10265.679673
860.294734,2368.659014,1924.535449,-10189.070123
860.295054,3404.947333,2442.679609,-10035.851024
860.295374,4515.256246,3034.844362,-10189.070123
860.295694,6069.688724,3182.885551,-11031.775171
860.296014,6661.853478,3997.112087,-10495.508323
860.296334,6809.894666,4589.276840,-10572.117872
860.296654,5403.503377,5107.421000,-10572.117872
860.296974,3330.926739,4811.338623,-9499.584175
860.297294,666.185348,3923.091493,-10342.289223
860.297614,-666.185348,1850.514855,-9499.584175
860.297934,-1036.288319,0.000000,-9269.755526
860.298254,0.000000,-888.247130,-9422.974625
860.298574,1258.350101,-814.226536,-8656.879127
