#time,accel_x,accel_y,accel_z
830.652211,666.185348,74.020594,-9959.241474
830.652531,518.144159,148.041188,-10112.460574
830.652851,666.185348,-74.020594,-9882.631924
830.653171,222.061783,-148.041188,-10112.460574
830.653490,148.041188,222.061783,-10112.460574
830.653810,296.082377,444.123565,-9959.241474
830.654130,444.123565,518.144159,-10112.460574
830.654450,518.144159,666.185348,-10112.460574
830.654769,666.185348,518.144159,-10265.679673
830.655089,666.185348,0.000000,-10265.679673
830.655409,740.205942,148.041188,-10112.460574
830.655728,666.185348,0.000000,-11031.775171
830.656048,148.041188,296.082377,-10342.289223
830.656368,74.020594,296.082377,-10495.508323
830.656688,74.020594,444.123565,-10189.070123
830.657007,222.061783,444.123565,-10112.460574
830.657327,296.082377,222.061783,-10342.289223
830.657647,444.123565,74.020594,-10189.070123
830.657967,666.185348,370.102971,-10189.070123
830.658286,666.185348,370.102971,-10112.460574
830.658606,1184.329507,-444.123565,-10035.851024
830.658926,740.205942,444.123565,-9959.241474
830.659246,666.185348,296.082377,-10418.898773
830.659565,370.102971,0.000000,-9806.022374
830.659885,740.205942,148.041188,-9576.193725
830.660205,296.082377,-148.041188,-9806.022374
830.660525,0.000000,0.000000,-9806.022374
830.660844,74.020594,370.102971,-10112.460574
830.661164,222.061783,666.185348,-10418.898773
830.661484,888.247130,444.123565,-10572.117872
830.661804,740.205942,518.144159,-10265.679673
830.662123,814.226536,222.061783,-9882.631924
830.662443,814.226536,148.041188,-10035.851024
830.662763,592.164754,0.000000,-10112.460574
830.663083,370.102971,222.061783,-9959.241474
830.663402,444.123565,222.061783,-10035.851024
830.663722,296.082377,296.082377,-10112.460574
830.664042,148.041188,518.144159,-9959.241474
830.664361,370.102971,370.102971,-10801.946522
830.664681,222.061783,222.061783,-10265.679673
830.665001,592.164754,370.102971,-10342.289223
830.665321,1036.288319,148.041188,-10265.679673
830.665640,962.267725,0.000000,-10035.851024
830.665960,592.164754,296.082377,-9959.241474
830.666280,296.082377,222.061783,-10112.460574
830.666600,444.123565,148.041188,-9806.022374
830.666919,666.185348,74.020594,-10189.070123
830.667239,-370.102971,-148.041188,-9959.241474
830.667559,-148.041188,74.020594,-10035.851024
830.667879,0.000000,518.144159,-10112.460574
830.668198,592.164754,666.185348,-10495.508323
830.668518,296.082377,518.144159,-10035.851024
830.668838,-148.041188,148.041188,-10035.851024
830.669158,222.061783,74.020594,-10265.679673
830.669477,888.247130,0.000000,-9882.631924
830.669797,888.247130,-222.061783,-10265.679673
830.670117,-74.020594,-370.102971,-10112.460574
830.670437,-370.102971,-1110.308913,-9959.241474
830.670756,74.020594,-740.205942,-10035.851024
830.671076,-222.061783,-444.123565,-9806.022374
830.671396,-666.185348,-370.102971,-11108.384721
830.671715,-1184.329507,-296.082377,-9959.241474
830.672035,-592.164754,-222.061783,-10035.851024
830.672355,-518.144159,-148.041188,-9959.241474
830.672675,-814.226536,-666.185348,-10955.165621
830.672994,-1036.288319,-1110.308913,-10189.070123
830.673314,-370.102971,-1036.288319,-10189.070123
830.673634,-592.164754,-962.267725,-9806.022374
830.673954,-1554.432478,-962.267725,-10189.070123
830.674273,-1998.556043,-1036.288319,-10112.460574
830.674593,-1332.370696,-1628.453072,-9729.412825
830.674913,-666.185348,-1110.308913,-9882.631924
830.675233,-1258.350101,-1184.329507,-10189.070123
830.675552,-1998.556043,-1406.391290,-10418.898773
830.675872,-1258.350101,-1332.370696,-9576.193725
830.676192,-296.082377,-1406.391290,-10035.851024
830.676512,-444.123565,-1184.329507,-9806.022374
830.676831,-1554.432478,-2220.617826,-10418.898773
830.677151,-2590.720797,-3108.864956,-9499.584175
830.677471,-2294.638420,-3330.926739,-9729.412825
830.677791,-1850.514855,-3478.967927,-9652.803275
830.678110,-1998.556043,-3256.906145,-9806.022374
830.678430,-2590.720797,-3552.988522,-9499.584175
830.678750,-2220.617826,-4219.173869,-9576.193725
830.679070,-962.267725,-3404.947333,-9729.412825
830.679389,592.164754,-1924.535449,-10035.851024
830.679709,0.000000,-814.226536,-10342.289223
830.680029,-592.164754,-1628.453072,-10495.508323
830.680348,-2072.576638,-2294.638420,-10035.851024
830.680668,-2960.823768,-3182.885551,-9959.241474
830.680988,-4663.297435,-3997.112087,-10265.679673
830.681308,-5033.400406,-4885.359217,-9652.803275
830.681627,-3923.091493,-5921.647536,-9499.584175
830.681947,-2072.576638,-5477.523971,-9806.022374
830.682267,-222.061783,-3997.112087,-10265.679673
830.682587,222.061783,-2146.597232,-10265.679673
830.682906,518.144159,-370.102971,-10418.898773
830.683226,1110.308913,370.102971,-10342.289223
830.683546,1850.514855,444.123565,-10801.946522
830.683866,1702.473667,-370.102971,-10572.117872
830.684185,370.102971,-1110.308913,-9806.022374
830.684505,-1776.494261,-2220.617826,-10189.070123
830.684825,-3775.050304,-3034.844362,-10189.070123
830.685145,-5033.400406,-3552.988522,-9652.803275
830.685464,-5181.441594,-4589.276840,-8886.707777
830.685784,-3404.947333,-5847.626942,-9039.926876
830.686104,-592.164754,-6143.709319,-9652.803275
830.686424,592.164754,-4293.194464,-10035.851024
830.686743,1628.453072,-1110.308913,-9959.241474
830.687063,2664.741391,1406.391290,-9882.631924
830.687383,4145.153275,2738.761985,-10648.727422
830.687703,3182.885551,3256.906145,-10878.556072
830.688022,0.000000,1332.370696,-11031.775171
830.688342,-3701.029710,-1628.453072,-10189.070123
830.688662,-5329.482782,-4071.132681,-9499.584175
830.688981,-5033.400406,-5995.668130,-9729.412825
830.689301,-3923.091493,-7179.997637,-9499.584175
830.689621,-3478.967927,-6365.771101,-9422.974625
830.689941,-2146.597232,-3478.967927,-9193.145976
830.690260,-296.082377,888.247130,-10265.679673
830.690580,1480.411884,3330.926739,-10801.946522
830.690900,1406.391290,4071.132681,-10572.117872
830.691220,1924.535449,3404.947333,-10342.289223
830.691539,2368.659014,1702.473667,-11031.775171
830.691859,1258.350101,740.205942,-10878.556072
830.692179,-1480.411884,-1036.288319,-10495.508323
830.692499,-3701.029710,-2146.597232,-9959.241474
830.692818,-4811.338623,-2590.720797,-9882.631924
830.693138,-6143.709319,-3034.844362,-9806.022374
830.693458,-7179.997637,-4441.235652,-9193.145976
830.693778,-6439.791695,-5625.565159,-9193.145976
830.694097,-3108.864956,-4663.297435,-9269.755526
830.694417,1184.329507,-2294.638420,-10342.289223
830.694737,3034.844362,1406.391290,-10648.727422
830.695057,2368.659014,3923.091493,-10878.556072
830.695376,1332.370696,4811.338623,-10418.898773
830.695696,1258.350101,4737.318029,-10878.556072
830.696016,2368.659014,1702.473667,-10801.946522
830.696335,74.020594,-2368.659014,-10648.727422
830.696655,-3404.947333,-5107.421000,-9806.022374
830.696975,-6439.791695,-5551.544565,-9806.022374
830.697295,-7772.162391,-4737.318029,-9039.926876
830.697614,-7772.162391,-4219.173869,-8810.098227
830.697934,-4737.318029,-4515.256246,-9039.926876
830.698254,-222.061783,-4515.256246,-9269.755526
830.698574,2220.617826,-3552.988522,-9882.631924
830.698893,2886.803174,-1998.556043,-10035.851024
830.699213,3034.844362,814.226536,-10189.070123
830.699533,3108.864956,3923.091493,-10725.336972
830.699853,3330.926739,4293.194464,-10725.336972
830.700172,1258.350101,1924.535449,-10955.165621
830.700492,-2886.803174,-1480.411884,-10418.898773
830.700812,-6587.832884,-4885.359217,-10035.851024
830.701132,-7105.977043,-7328.038826,-9652.803275
830.701451,-5847.626942,-8142.265362,-9422.974625
830.701771,-4589.276840,-8438.347739,-9652.803275
830.702091,-3849.070898,-6735.874072,-9346.365076
830.702411,-2294.638420,-4219.173869,-9576.193725
830.702730,1036.288319,666.185348,-10189.070123
830.703050,5107.421000,3923.091493,-10955.165621
830.703370,6291.750507,4071.132681,-11951.089769
830.703690,3034.844362,2664.741391,-11184.994271
830.704009,-1258.350101,-962.267725,-10725.336972
830.704329,-3256.906145,-3627.009116,-9959.241474
830.704649,-3034.844362,-4441.235652,-10112.460574
830.704968,-4663.297435,-3923.091493,-10801.946522
830.705288,-8660.409521,-4219.173869,-9882.631924
830.705608,-8438.347739,-6587.832884,-9269.755526
830.705928,-4071.132681,-6735.874072,-9269.755526
830.706247,518.144159,-5329.482782,-9806.022374
830.706567,1924.535449,-2442.679609,-10265.679673
830.706887,518.144159,74.020594,-9959.241474
830.707207,2664.741391,1480.411884,-9806.022374
830.707526,4885.359217,2960.823768,-10495.508323
830.707846,4367.215058,3849.070898,-10418.898773
830.708166,1110.308913,2146.597232,-11031.775171
830.708486,-1406.391290,-888.247130,-9806.022374
830.708805,-2590.720797,-3923.091493,-9729.412825
830.709125,-4293.194464,-5107.421000,-9729.412825
830.709445,-6365.771101,-5699.585753,-8963.317327
830.709765,-6587.832884,-4811.338623,-9346.365076
830.710084,-3923.091493,-3997.112087,-8886.707777
830.710404,-222.061783,-1924.535449,-9269.755526
830.710724,4145.153275,1036.288319,-9959.241474
830.711044,7179.997637,2368.659014,-10725.336972
830.711363,8512.368333,3552.988522,-11261.603821
830.711683,6143.709319,4441.235652,-11338.213370
830.712003,1776.494261,4219.173869,-11031.775171
830.712323,-370.102971,3256.906145,-10342.289223
830.712642,-814.226536,444.123565,-10342.289223
830.712962,-740.205942,-1628.453072,-10112.460574
830.713282,-3256.906145,-4441.235652,-9959.241474
830.713601,-4737.318029,-5773.606348,-9346.365076
830.713921,-2368.659014,-3923.091493,-10035.851024
830.714241,592.164754,-444.123565,-10265.679673
830.714561,1406.391290,2220.617826,-10035.851024
830.714880,740.205942,3775.050304,-10572.117872
830.715200,3034.844362,4145.153275,-10342.289223
830.715520,6365.771101,4737.318029,-10572.117872
830.715840,6291.750507,4515.256246,-11568.042020
830.716159,3478.967927,2294.638420,-10112.460574
830.716479,1036.288319,444.123565,-10265.679673
830.716799,-1110.308913,0.000000,-10035.851024
830.717119,-4145.153275,-888.247130,-9652.803275
830.717438,-6883.915261,-888.247130,-9576.193725
830.717758,-5773.606348,-1998.556043,-9039.926876
830.718078,-2368.659014,-3330.926739,-9269.755526
830.718398,1924.535449,-2516.700203,-9422.974625
830.718718,2960.823768,222.061783,-9806.022374
830.719038,3775.050304,2812.782580,-10189.070123
830.719358,3701.029710,5847.626942,-10955.165621
830.719678,2886.803174,7476.080014,-11644.651570
830.719998,1628.453072,5255.462188,-10648.727422
830.720318,1406.391290,1184.329507,-10189.070123
830.720638,1036.288319,-1480.411884,-10112.460574
830.720958,-1924.535449,-2664.741391,-9959.241474
830.721278,-3849.070898,-2072.576638,-9806.022374
830.721598,-3330.926739,-1776.494261,-9882.631924
830.721918,-1554.432478,-1258.350101,-9882.631924
830.722238,-370.102971,0.000000,-9806.022374
830.722558,1110.308913,-740.205942,-9882.631924
830.722878,2960.823768,1184.329507,-10418.898773
830.723198,4737.318029,2146.597232,-10801.946522
830.723518,4885.359217,3256.906145,-10495.508323
830.723838,4145.153275,2664.741391,-10725.336972
830.724158,3701.029710,2072.576638,-11184.994271
830.724478,1184.329507,1480.411884,-11338.213370
830.724798,-1628.453072,222.061783,-10418.898773
830.725118,-4071.132681,-1110.308913,-9729.412825
830.725438,-1850.514855,-3256.906145,-9576.193725
830.725758,-1628.453072,-4515.256246,-9729.412825
830.726078,-3256.906145,-4367.215058,-9269.755526
830.726398,-1702.473667,-2146.597232,-9269.755526
830.726718,2072.576638,518.144159,-9652.803275
830.727038,4145.153275,2442.679609,-10035.851024
830.727358,2664.741391,3627.009116,-10572.117872
830.727678,3256.906145,1480.411884,-9576.193725
830.727998,4145.153275,-1110.308913,-10495.508323
830.728318,3182.885551,-2072.576638,-9806.022374
830.728638,-888.247130,-1480.411884,-9959.241474
830.728958,-3256.906145,-1406.391290,-9806.022374
830.729278,-3404.947333,-1036.288319,-9882.631924
830.729598,-3404.947333,-148.041188,-9116.536426
830.729918,-4219.173869,-1110.308913,-9882.631924
830.730238,-3108.864956,-2664.741391,-9422.974625
830.730558,-814.226536,-4663.297435,-10035.851024
830.730878,2146.597232,-2146.597232,-9882.631924
830.731198,1776.494261,1406.391290,-10035.851024
830.731518,2812.782580,3478.967927,-10725.336972
830.731838,2738.761985,3108.864956,-10955.165621
830.732158,2516.700203,1998.556043,-10418.898773
830.732478,148.041188,1406.391290,-10342.289223
830.732798,-222.061783,-740.205942,-10265.679673
830.733118,-1110.308913,-3775.050304,-9959.241474
830.733438,-2220.617826,-4959.379811,-9499.584175
830.733758,-2664.741391,-2368.659014,-9499.584175
830.734078,-2590.720797,0.000000,-10572.117872
830.734398,-1554.432478,296.082377,-10342.289223
830.734718,-1554.432478,1850.514855,-10035.851024
830.735038,0.000000,2220.617826,-10342.289223
830.735358,2738.761985,1998.556043,-10495.508323
830.735678,5477.523971,888.247130,-10342.289223
830.735998,6661.853478,888.247130,-10342.289223
830.736318,6143.709319,1998.556043,-10495.508323
830.736638,4219.173869,1924.535449,-10572.117872
830.736958,1036.288319,1554.432478,-10035.851024
830.737278,-2220.617826,0.000000,-9193.145976
830.737598,-1998.556043,-962.267725,-9576.193725
830.737918,1480.411884,-2072.576638,-9806.022374
830.738238,2146.597232,-2664.741391,-9729.412825
830.738558,2072.576638,-2220.617826,-9499.584175
830.738878,1998.556043,-518.144159,-9576.193725
830.739198,1850.514855,1258.350101,-10035.851024
830.739518,1406.391290,4071.132681,-10112.460574
830.739838,814.226536,4959.379811,-10342.289223
830.740158,1998.556043,1850.514855,-10801.946522
830.740478,2442.679609,-222.061783,-10725.336972
830.740798,370.102971,-1110.308913,-10265.679673
830.741118,-1036.288319,-370.102971,-10035.851024
830.741438,0.000000,1554.432478,-10342.289223
830.741758,0.000000,222.061783,-10572.117872
830.742078,-2146.597232,-370.102971,-10265.679673
830.742398,-3330.926739,-444.123565,-10725.336972
830.742718,-3330.926739,-1850.514855,-10035.851024
830.743038,-296.082377,-1554.432478,-10265.679673
830.743358,1258.350101,296.082377,-9576.193725
830.743678,74.020594,1406.391290,-9959.241474
830.743998,962.267725,2146.597232,-11184.994271
830.744318,-296.082377,2590.720797,-10112.460574
830.744638,-2146.597232,2886.803174,-10265.679673
830.744958,-3256.906145,-74.020594,-9269.755526
830.745278,-2664.741391,-1554.432478,-10112.460574
830.745598,-3108.864956,-2516.700203,-9422.974625
830.745918,-3182.885551,-3256.906145,-9422.974625
830.746238,-1998.556043,-2072.576638,-9652.803275
830.746558,-1332.370696,-666.185348,-9729.412825
830.746878,518.144159,1406.391290,-9806.022374
830.747198,1850.514855,3775.050304,-10189.070123
830.747518,3108.864956,4071.132681,-10342.289223
830.747838,4885.359217,370.102971,-10648.727422
830.748158,3330.926739,-1332.370696,-10342.289223
830.748478,1480.411884,-1554.432478,-9499.584175
830.748798,1036.288319,-740.205942,-9959.241474
830.749118,2442.679609,1702.473667,-10418.898773
830.749438,1110.308913,2812.782580,-10878.556072
830.749758,-2072.576638,962.267725,-10418.898773
830.750078,-2812.782580,-1332.370696,-10112.460574
830.750398,-444.123565,-2664.741391,-10035.851024
830.750718,518.144159,-3034.844362,-10112.460574
830.751038,518.144159,-666.185348,-9806.022374
830.751358,2368.659014,1110.308913,-10342.289223
830.751678,3627.009116,2220.617826,-10801.946522
830.751998,5107.421000,2368.659014,-10725.336972
830.752318,4071.132681,1554.432478,-11184.994271
830.752638,3182.885551,0.000000,-10955.165621
830.752958,962.267725,0.000000,-9959.241474
830.753278,-370.102971,-592.164754,-9959.241474
830.753598,-1702.473667,-592.164754,-9576.193725
830.753918,-814.226536,-962.267725,-11261.603821
830.754238,-1258.350101,-962.267725,-9806.022374
830.754557,-1480.411884,-1776.494261,-9729.412825
830.754877,-370.102971,-1998.556043,-9346.365076
830.755197,1480.411884,-2368.659014,-9806.022374
830.755517,888.247130,-1998.556043,-9959.241474
830.755837,296.082377,888.247130,-9806.022374
830.756157,296.082377,2886.803174,-10035.851024
830.756477,888.247130,2812.782580,-10112.460574
830.756797,1110.308913,2368.659014,-10495.508323
830.757117,-888.247130,1258.350101,-10265.679673
830.757437,-1924.535449,-666.185348,-10035.851024
830.757757,-1332.370696,-2886.803174,-9959.241474
830.758077,-1628.453072,-2812.782580,-10112.460574
830.758397,-2664.741391,-1850.514855,-9729.412825
830.758717,-2220.617826,148.041188,-9959.241474
830.759037,0.000000,1776.494261,-10342.289223
830.759357,518.144159,1776.494261,-10572.117872
830.759677,518.144159,1554.432478,-9959.241474
830.759997,1036.288319,814.226536,-10418.898773
830.760317,3182.885551,444.123565,-10648.727422
830.760637,3034.844362,148.041188,-10035.851024
830.760957,1702.473667,1406.391290,-9806.022374
830.761277,-296.082377,2442.679609,-10189.070123
830.761597,-444.123565,3627.009116,-10495.508323
830.761917,-444.123565,2738.761985,-10265.679673
830.762237,-370.102971,518.144159,-9882.631924
830.762557,1332.370696,-2516.700203,-9576.193725
830.762877,1998.556043,-3256.906145,-9806.022374
830.763197,2368.659014,-1776.494261,-9729.412825
830.763517,3404.947333,740.205942,-10189.070123
830.763837,3849.070898,2812.782580,-10342.289223
830.764157,2590.720797,4367.215058,-10495.508323
830.764477,1258.350101,4663.297435,-10112.460574
830.764797,444.123565,3997.112087,-10342.289223
830.765117,2664.741391,814.226536,-10878.556072
830.765437,3478.967927,-1776.494261,-10112.460574
830.765757,2368.659014,-2442.679609,-9652.803275
830.766077,962.267725,-814.226536,-9806.022374
830.766397,962.267725,-222.061783,-10265.679673
830.766717,1036.288319,666.185348,-9959.241474
830.767037,-1628.453072,1776.494261,-10112.460574
830.767357,-1332.370696,1036.288319,-9806.022374
830.767677,1628.453072,370.102971,-10801.946522
830.767997,2886.803174,-888.247130,-10189.070123
830.768317,2442.679609,-148.041188,-9806.022374
830.768637,2590.720797,2146.597232,-10342.289223
830.768957,2072.576638,3182.885551,-10572.117872
830.769277,296.082377,2664.741391,-10495.508323
830.769597,-1850.514855,148.041188,-9729.412825
830.769917,-2146.597232,-2072.576638,-9576.193725
830.770237,-888.247130,-2960.823768,-10265.679673
830.770557,-1036.288319,-2294.638420,-10342.289223
830.770877,-1924.535449,222.061783,-9576.193725
830.771197,-592.164754,1332.370696,-9959.241474
830.771517,296.082377,3330.926739,-10418.898773
830.771837,222.061783,3404.947333,-10189.070123
830.772157,-370.102971,1850.514855,-10265.679673
830.772477,74.020594,296.082377,-9806.022374
830.772797,1036.288319,-1184.329507,-10495.508323
830.773117,1184.329507,-1406.391290,-9959.241474
830.773437,518.144159,-444.123565,-9576.193725
830.773757,814.226536,74.020594,-10112.460574
830.774077,-222.061783,666.185348,-10342.289223
830.774397,-1776.494261,0.000000,-9882.631924
830.774717,-1554.432478,-666.185348,-9959.241474
830.775037,-370.102971,-1036.288319,-9806.022374
830.775357,-370.102971,-1480.411884,-10495.508323
830.775677,-814.226536,-1036.288319,-9806.022374
830.775997,-518.144159,444.123565,-9882.631924
830.776317,1554.432478,1850.514855,-10112.460574
830.776637,1554.432478,2294.638420,-9499.584175
830.776957,1702.473667,1110.308913,-9959.241474
830.777277,1184.329507,-592.164754,-10035.851024
830.777597,740.205942,-2220.617826,-10878.556072
830.777917,-222.061783,-2294.638420,-9882.631924
830.778237,-1480.411884,-1184.329507,-9806.022374
830.778557,-1036.288319,518.144159,-10189.070123
830.778877,74.020594,888.247130,-10572.117872
830.779197,888.247130,1036.288319,-10189.070123
830.779517,1332.370696,740.205942,-9882.631924
830.779837,2442.679609,1036.288319,-10265.679673
830.780157,2294.638420,-1036.288319,-10648.727422
830.780477,666.185348,-1776.494261,-10189.070123
830.780797,-1036.288319,0.000000,-9346.365076
830.781117,-1554.432478,296.082377,-9729.412825
830.781437,-962.267725,962.267725,-9959.241474
830.781757,-518.144159,1628.453072,-9882.631924
830.782077,-1110.308913,74.020594,-10035.851024
830.782397,1184.329507,-1554.432478,-9806.022374
830.782717,2590.720797,-2886.803174,-9806.022374
830.783037,1998.556043,-1406.391290,-10035.851024
830.783357,148.041188,-370.102971,-9576.193725
830.783677,1406.391290,740.205942,-10801.946522
830.783997,2590.720797,2294.638420,-10035.851024
830.784317,1628.453072,2442.679609,-10265.679673
830.784637,1110.308913,1998.556043,-9882.631924
830.784957,2368.659014,2368.659014,-11108.384721
830.785277,2368.659014,962.267725,-11568.042020
830.785597,0.000000,1184.329507,-10418.898773
830.785917,-1776.494261,2072.576638,-9959.241474
830.786237,-1110.308913,2072.576638,-10265.679673
830.786557,74.020594,962.267725,-9499.584175
830.786877,962.267725,962.267725,-10112.460574
830.787197,1184.329507,1184.329507,-10418.898773
830.787517,1776.494261,222.061783,-10648.727422
830.787837,2960.823768,888.247130,-10725.336972
830.788157,2072.576638,2812.782580,-10189.070123
830.788477,1406.391290,2220.617826,-10112.460574
830.788797,0.000000,2738.761985,-10725.336972
830.789117,-74.020594,2072.576638,-10495.508323
830.789437,444.123565,2072.576638,-10112.460574
830.789757,2146.597232,0.000000,-10648.727422
830.790077,2368.659014,-1036.288319,-10112.460574
830.790397,0.000000,-1480.411884,-9959.241474
830.790717,-1554.432478,-296.082377,-9576.193725
830.791037,0.000000,1924.535449,-10112.460574
830.791357,370.102971,2442.679609,-10265.679673
830.791677,-962.267725,1480.411884,-10189.070123
830.791997,-814.226536,296.082377,-9499.584175
830.792317,74.020594,-1554.432478,-9806.022374
830.792637,296.082377,-1406.391290,-10265.679673
830.792957,0.000000,444.123565,-9422.974625
830.793277,74.020594,2368.659014,-9806.022374
830.793597,1924.535449,2738.761985,-10112.460574
830.793917,1924.535449,1406.391290,-10112.460574
830.794237,-222.061783,-370.102971,-9652.803275
830.794557,-1258.350101,-740.205942,-9346.365076
830.794877,-888.247130,-1184.329507,-9806.022374
830.795197,-296.082377,-1850.514855,-9576.193725
830.795517,0.000000,-2886.803174,-9652.803275
830.795837,222.061783,-1258.350101,-9576.193725
830.796157,814.226536,1850.514855,-10035.851024
830.796477,1554.432478,4145.153275,-10801.946522
830.796797,1036.288319,4219.173869,-10495.508323
830.797117,1924.535449,2812.782580,-10572.117872
830.797437,1924.535449,-814.226536,-10112.460574
830.797756,518.144159,-3182.885551,-10112.460574
830.798076,148.041188,-4515.256246,-9346.365076
830.798396,74.020594,-2368.659014,-9959.241474
830.798716,2072.576638,888.247130,-10801.946522
830.799036,1110.308913,3256.906145,-10572.117872
830.799356,-1036.288319,3701.029710,-10878.556072
830.799676,-666.185348,1776.494261,-10342.289223
830.799996,1406.391290,-1110.308913,-10265.679673
830.800316,1628.453072,-2072.576638,-9959.241474
830.800636,1998.556043,-962.267725,-9959.241474
830.800956,2072.576638,-518.144159,-10265.679673
830.801276,1628.453072,666.185348,-10725.336972
830.801596,-814.226536,962.267725,-9959.241474
830.801916,-740.205942,518.144159,-10189.070123
830.802236,-740.205942,-518.144159,-10189.070123
830.802556,740.205942,-1110.308913,-10189.070123
830.802876,592.164754,-1480.411884,-9806.022374
830.803196,0.000000,-1110.308913,-10035.851024
830.803516,1110.308913,0.000000,-9882.631924
830.803836,0.000000,370.102971,-10112.460574
830.804156,0.000000,962.267725,-9806.022374
830.804476,-296.082377,2442.679609,-10572.117872
830.804796,-444.123565,814.226536,-9959.241474
830.805116,1406.391290,444.123565,-10265.679673
830.805436,444.123565,-148.041188,-9576.193725
830.805756,-888.247130,-296.082377,-10112.460574
830.806076,-962.267725,74.020594,-9959.241474
830.806396,-592.164754,444.123565,-10648.727422
830.806716,-1258.350101,-296.082377,-10189.070123
830.807036,-1406.391290,296.082377,-9959.241474
830.807356,-666.185348,1480.411884,-10955.165621
830.807676,-740.205942,2960.823768,-10572.117872
830.807996,1110.308913,4071.132681,-10648.727422
830.808316,2294.638420,3034.844362,-10572.117872
830.808636,1480.411884,1850.514855,-10495.508323
830.808956,1702.473667,0.000000,-9806.022374
830.809276,148.041188,-1406.391290,-9806.022374
830.809596,2294.638420,-1554.432478,-10035.851024
830.809916,2590.720797,0.000000,-10112.460574
830.810236,592.164754,148.041188,-9959.241474
830.810556,222.061783,1480.411884,-9652.803275
830.810876,-444.123565,1998.556043,-9269.755526
830.811196,-296.082377,2664.741391,-10342.289223
830.811516,148.041188,296.082377,-9806.022374
830.811836,0.000000,-1554.432478,-10035.851024
830.812156,2072.576638,-2368.659014,-10572.117872
830.812476,2294.638420,-2812.782580,-9729.412825
830.812796,888.247130,-518.144159,-9652.803275
830.813116,74.020594,2368.659014,-9729.412825
830.813436,-148.041188,3034.844362,-10189.070123
830.813756,1554.432478,2812.782580,-10265.679673
830.814076,1406.391290,1776.494261,-9959.241474
830.814396,222.061783,-814.226536,-9346.365076
830.814716,2442.679609,-1036.288319,-10265.679673
830.815036,1184.329507,-1332.370696,-9193.145976
830.815356,0.000000,-1184.329507,-9806.022374
830.815676,-444.123565,2368.659014,-10035.851024
830.815996,0.000000,3701.029710,-10572.117872
830.816316,962.267725,4071.132681,-10878.556072
830.816636,74.020594,2072.576638,-10342.289223
830.816956,0.000000,-740.205942,-10495.508323
830.817276,1776.494261,-3256.906145,-10418.898773
830.817596,1184.329507,-2664.741391,-10189.070123
830.817916,-740.205942,-962.267725,-9959.241474
830.818236,-814.226536,2220.617826,-10495.508323
830.818556,-444.123565,3775.050304,-10572.117872
830.818876,-1258.350101,3034.844362,-11031.775171
830.819196,-444.123565,666.185348,-10572.117872
830.819516,1554.432478,-2146.597232,-10495.508323
830.819836,2368.659014,-3478.967927,-10418.898773
830.820156,1776.494261,-3404.947333,-9959.241474
830.820476,0.000000,-1036.288319,-9729.412825
830.820796,222.061783,1924.535449,-9959.241474
830.821116,0.000000,1628.453072,-10035.851024
830.821436,296.082377,1702.473667,-10189.070123
830.821756,1184.329507,1258.350101,-9959.241474
830.822076,2442.679609,-370.102971,-10112.460574
830.822396,2368.659014,-1628.453072,-9882.631924
830.822716,296.082377,-1332.370696,-9652.803275
830.823036,-1628.453072,-962.267725,-9882.631924
830.823356,-1258.350101,518.144159,-9729.412825
830.823676,0.000000,1702.473667,-10035.851024
830.823996,-888.247130,740.205942,-10035.851024
830.824316,888.247130,0.000000,-9729.412825
830.824636,1776.494261,-2146.597232,-9959.241474
830.824956,2220.617826,-2368.659014,-9729.412825
830.825276,-666.185348,-2072.576638,-9806.022374
830.825596,-888.247130,-444.123565,-10035.851024
830.825916,518.144159,2368.659014,-10112.460574
830.826236,296.082377,2368.659014,-10189.070123
830.826556,74.020594,222.061783,-10189.070123
830.826876,962.267725,-2294.638420,-9652.803275
830.827196,1998.556043,-2590.720797,-10878.556072
830.827516,296.082377,-1184.329507,-9806.022374
830.827836,-2516.700203,1258.350101,-10265.679673
830.828156,-1850.514855,1702.473667,-10189.070123
830.828476,296.082377,2146.597232,-10801.946522
830.828796,-740.205942,1554.432478,-10418.898773
830.829116,-1480.411884,-814.226536,-10418.898773
830.829436,518.144159,-1036.288319,-10035.851024
830.829756,370.102971,-666.185348,-10572.117872
830.830076,-592.164754,888.247130,-10648.727422
830.830396,-592.164754,1776.494261,-10112.460574
830.830716,1184.329507,1480.411884,-9959.241474
830.831036,666.185348,1184.329507,-10495.508323
830.831356,296.082377,1184.329507,-9959.241474
830.831676,-592.164754,814.226536,-9652.803275
830.831996,296.082377,-370.102971,-10035.851024
830.832316,1480.411884,-962.267725,-9882.631924
830.832636,592.164754,0.000000,-9652.803275
830.832956,-222.061783,888.247130,-9576.193725
830.833276,888.247130,2220.617826,-9882.631924
830.833595,148.041188,2812.782580,-10112.460574
830.833915,814.226536,1332.370696,-9729.412825
830.834235,888.247130,-666.185348,-9652.803275
830.834555,962.267725,-1258.350101,-10572.117872
830.834875,1554.432478,74.020594,-10955.165621
830.835195,1036.288319,1924.535449,-10189.070123
830.835515,1036.288319,3404.947333,-10725.336972
830.835835,2146.597232,4071.132681,-10572.117872
830.836155,2294.638420,4367.215058,-10572.117872
830.836475,1480.411884,4367.215058,-10265.679673
830.836795,814.226536,1554.432478,-10572.117872
830.837115,1332.370696,-666.185348,-11031.775171
830.837435,2146.597232,-2812.782580,-9499.584175
830.837755,1628.453072,-2516.700203,-9422.974625
830.838075,666.185348,444.123565,-9882.631924
830.838395,1184.329507,3182.885551,-10495.508323
830.838715,518.144159,3923.091493,-11414.822920
830.839035,-148.041188,2590.720797,-10265.679673
830.839355,666.185348,-740.205942,-9806.022374
830.839675,814.226536,-2516.700203,-10112.460574
830.839995,592.164754,-3849.070898,-9652.803275
830.840315,74.020594,-2960.823768,-9346.365076
830.840635,1628.453072,-1480.411884,-9959.241474
830.840955,2072.576638,1480.411884,-9882.631924
830.841275,666.185348,2220.617826,-10035.851024
830.841595,-444.123565,1332.370696,-9806.022374
830.841915,-444.123565,-296.082377,-9959.241474
830.842235,-1110.308913,-148.041188,-10112.460574
830.842555,-962.267725,-444.123565,-9499.584175
830.842875,148.041188,-1554.432478,-9422.974625
830.843195,666.185348,-1702.473667,-9806.022374
830.843515,-296.082377,-518.144159,-9882.631924
830.843835,-1998.556043,666.185348,-9882.631924
830.844155,-2368.659014,1554.432478,-9882.631924
830.844475,148.041188,740.205942,-10342.289223
830.844795,1332.370696,0.000000,-10418.898773
830.845115,370.102971,-666.185348,-9959.241474
830.845435,296.082377,-1184.329507,-9882.631924
830.845755,888.247130,-222.061783,-10495.508323
830.846075,148.041188,592.164754,-10342.289223
830.846395,-222.061783,222.061783,-10189.070123
830.846715,-148.041188,-148.041188,-10189.070123
830.847035,666.185348,-888.247130,-11031.775171
830.847355,888.247130,-888.247130,-10265.679673
830.847675,-962.267725,0.000000,-10189.070123
830.847995,0.000000,1480.411884,-10801.946522
830.848315,666.185348,2368.659014,-10725.336972
830.848635,666.185348,740.205942,-10955.165621
830.848955,-148.041188,-888.247130,-9576.193725
830.849275,0.000000,-2738.761985,-9193.145976
830.849595,1480.411884,-1998.556043,-9959.241474
830.849915,962.267725,-962.267725,-10112.460574
830.850235,0.000000,1110.308913,-9959.241474
830.850555,1036.288319,1480.411884,-9959.241474
830.850875,1776.494261,148.041188,-9576.193725
830.851195,1406.391290,-1184.329507,-9959.241474
830.851515,-666.185348,-962.267725,-9499.584175
830.851835,-370.102971,-2442.679609,-9652.803275
830.852155,296.082377,-2072.576638,-9729.412825
830.852475,-222.061783,-1184.329507,-9422.974625
830.852795,-444.123565,666.185348,-9729.412825
830.853115,1184.329507,592.164754,-9882.631924
830.853435,2368.659014,962.267725,-9959.241474
830.853755,518.144159,1406.391290,-10112.460574
830.854075,296.082377,814.226536,-10035.851024
830.854395,148.041188,-888.247130,-10189.070123
830.854715,0.000000,-2146.597232,-9959.241474
830.855035,-370.102971,-2664.741391,-9576.193725
830.855355,-740.205942,518.144159,-9959.241474
830.855675,-222.061783,1998.556043,-10725.336972
830.855995,1258.350101,3108.864956,-10418.898773
830.856315,740.205942,2146.597232,-10418.898773
830.856635,1406.391290,962.267725,-10342.289223
830.856955,888.247130,74.020594,-10801.946522
830.857275,-666.185348,-296.082377,-10572.117872
830.857595,-1332.370696,518.144159,-9806.022374
830.857915,666.185348,2146.597232,-10572.117872
830.858235,1776.494261,2442.679609,-10495.508323
830.858555,1924.535449,1702.473667,-10878.556072
830.858875,148.041188,888.247130,-9959.241474
830.859195,592.164754,-296.082377,-10112.460574
830.859515,2368.659014,-1406.391290,-10035.851024
830.859835,1036.288319,0.000000,-9806.022374
830.860155,0.000000,2368.659014,-9806.022374
830.860475,296.082377,3182.885551,-10265.679673
830.860795,1924.535449,1850.514855,-9729.412825
830.861115,1406.391290,666.185348,-10189.070123
830.861435,1036.288319,222.061783,-9729.412825
830.861755,2220.617826,-222.061783,-9806.022374
830.862075,2960.823768,-1036.288319,-9729.412825
830.862395,1258.350101,222.061783,-9806.022374
830.862715,-222.061783,1850.514855,-9806.022374
830.863035,0.000000,1776.494261,-10112.460574
830.863355,148.041188,1924.535449,-10265.679673
830.863674,444.123565,2146.597232,-10648.727422
830.863994,1110.308913,740.205942,-10265.679673
830.864314,1258.350101,-444.123565,-10342.289223
830.864634,814.226536,-740.205942,-10189.070123
830.864954,1110.308913,444.123565,-11797.870669
830.865274,518.144159,1702.473667,-10572.117872
830.865594,296.082377,3330.926739,-10725.336972
830.865914,444.123565,2664.741391,-10955.165621
830.866234,-518.144159,888.247130,-10342.289223
830.866554,-296.082377,-1702.473667,-10265.679673
830.866874,1258.350101,-3108.864956,-11031.775171
830.867194,0.000000,-3034.844362,-9882.631924
830.867514,-666.185348,-814.226536,-9959.241474
830.867834,888.247130,2442.679609,-10189.070123
830.868154,888.247130,2072.576638,-10189.070123
830.868474,148.041188,1036.288319,-10418.898773
830.868794,-962.267725,-370.102971,-9806.022374
830.869114,370.102971,-1850.514855,-10725.336972
830.869434,1924.535449,-2738.761985,-10035.851024
830.869754,888.247130,-2368.659014,-9346.365076
830.870074,-370.102971,-1332.370696,-9422.974625
830.870394,-518.144159,518.144159,-9652.803275
830.870714,74.020594,1480.411884,-9882.631924
830.871034,-518.144159,740.205942,-9806.022374
830.871354,-666.185348,-518.144159,-9806.022374
830.871674,1036.288319,-2146.597232,-9729.412825
830.871994,1554.432478,-2886.803174,-9882.631924
830.872314,2146.597232,-1406.391290,-9806.022374
830.872634,1702.473667,-148.041188,-9806.022374
830.872954,1406.391290,222.061783,-10035.851024
830.873274,814.226536,2072.576638,-10648.727422
830.873594,592.164754,1850.514855,-11184.994271
830.873914,-592.164754,444.123565,-10189.070123
830.874234,814.226536,-1554.432478,-10572.117872
830.874554,444.123565,-2368.659014,-10342.289223
830.874874,518.144159,-2220.617826,-10342.289223
830.875194,74.020594,-148.041188,-10418.898773
830.875514,0.000000,1036.288319,-10725.336972
830.875834,1110.308913,2368.659014,-11031.775171
830.876154,0.000000,1406.391290,-10801.946522
830.876474,1406.391290,-740.205942,-11031.775171
830.876794,370.102971,-1998.556043,-10418.898773
830.877114,-1036.288319,-2146.597232,-10189.070123
830.877434,-962.267725,-296.082377,-9882.631924
830.877754,1332.370696,888.247130,-10035.851024
830.878074,962.267725,1850.514855,-10572.117872
830.878394,-518.144159,2146.597232,-10495.508323
830.878714,-740.205942,74.020594,-9652.803275
830.879034,444.123565,-370.102971,-10035.851024
830.879354,-296.082377,-962.267725,-10112.460574
830.879674,-814.226536,74.020594,-9576.193725
830.879994,-666.185348,370.102971,-9193.145976
830.880314,2368.659014,370.102971,-9806.022374
830.880634,2294.638420,1776.494261,-10342.289223
830.880954,-148.041188,1924.535449,-9959.241474
830.881274,-1702.473667,2220.617826,-9422.974625
830.881594,0.000000,1628.453072,-10265.679673
830.881914,1924.535449,592.164754,-10035.851024
830.882234,444.123565,592.164754,-9652.803275
830.882554,-1184.329507,-222.061783,-9422.974625
830.882874,962.267725,-814.226536,-9269.755526
830.883194,2220.617826,-666.185348,-10189.070123
830.883514,1924.535449,1036.288319,-10189.070123
830.883834,444.123565,1554.432478,-9959.241474
830.884154,1480.411884,2220.617826,-10801.946522
830.884474,1924.535449,2442.679609,-10801.946522
830.884794,666.185348,2220.617826,-10418.898773
830.885114,296.082377,1628.453072,-10955.165621
830.885434,2368.659014,1184.329507,-10418.898773
830.885754,592.164754,888.247130,-11261.603821
830.886074,962.267725,1110.308913,-10035.851024
830.886394,-296.082377,2886.803174,-10112.460574
830.886714,1776.494261,2590.720797,-11031.775171
830.887034,3034.844362,2220.617826,-10495.508323
830.887354,1110.308913,2220.617826,-10495.508323
830.887674,962.267725,222.061783,-9116.536426
830.887994,1628.453072,-666.185348,-9499.584175
830.888314,518.144159,-1036.288319,-10035.851024
830.888634,-148.041188,-1850.514855,-9499.584175
830.888954,1036.288319,-1258.350101,-9959.241474
830.889274,1406.391290,222.061783,-9499.584175
830.889594,0.000000,518.144159,-9729.412825
830.889914,-888.247130,1628.453072,-9652.803275
830.890234,0.000000,1480.411884,-9422.974625
830.890554,1258.350101,296.082377,-10035.851024
830.890874,1036.288319,-2072.576638,-9269.755526
830.891194,370.102971,-3775.050304,-9116.536426
830.891514,148.041188,-4515.256246,-9576.193725
830.891834,0.000000,-2442.679609,-9576.193725
830.892154,74.020594,740.205942,-9959.241474
830.892474,-1110.308913,4071.132681,-10265.679673
830.892794,592.164754,4367.215058,-10572.117872
830.893114,1036.288319,2442.679609,-10495.508323
830.893434,370.102971,-1480.411884,-9959.241474
830.893754,-1554.432478,-3923.091493,-9806.022374
830.894073,0.000000,-5477.523971,-10112.460574
830.894393,370.102971,-3182.885551,-10495.508323
830.894713,296.082377,148.041188,-10035.851024
830.895033,518.144159,3034.844362,-10572.117872
830.895353,962.267725,3552.988522,-11261.603821
830.895673,1110.308913,2960.823768,-11414.822920
830.895993,-666.185348,888.247130,-10801.946522
830.896313,0.000000,-1480.411884,-10112.460574
830.896633,2146.597232,-3034.844362,-10495.508323
830.896953,2072.576638,-2664.741391,-10955.165621
830.897273,518.144159,-1184.329507,-10572.117872
830.897593,0.000000,1702.473667,-10572.117872
830.897913,-814.226536,3256.906145,-10572.117872
830.898233,-518.144159,3552.988522,-10725.336972
830.898553,-888.247130,814.226536,-9652.803275
830.898873,1110.308913,-1924.535449,-9882.631924
830.899193,2220.617826,-3478.967927,-9959.241474
830.899513,1554.432478,-3997.112087,-9269.755526
830.899833,814.226536,-1628.453072,-9729.412825
830.900153,1110.308913,518.144159,-9269.755526
830.900473,1628.453072,1998.556043,-10955.165621
830.900793,888.247130,2294.638420,-10112.460574
830.901113,-962.267725,1258.350101,-9269.755526
830.901433,0.000000,-740.205942,-9806.022374
830.901753,888.247130,-1628.453072,-9729.412825
830.902073,222.061783,-1184.329507,-9346.365076
830.902393,-1036.288319,0.000000,-9729.412825
830.902713,-888.247130,222.061783,-9729.412825
830.903033,0.000000,222.061783,-10035.851024
830.903353,-592.164754,-814.226536,-10189.070123
830.903673,-148.041188,518.144159,-9959.241474
830.903993,1110.308913,444.123565,-10878.556072
830.904313,1406.391290,444.123565,-10725.336972
830.904633,74.020594,518.144159,-10265.679673
830.904953,-666.185348,1332.370696,-10495.508323
830.905273,222.061783,1850.514855,-10801.946522
830.905593,592.164754,1776.494261,-11031.775171
830.905913,-518.144159,1628.453072,-10572.117872
830.906233,-1850.514855,2146.597232,-10725.336972
830.906553,814.226536,666.185348,-10955.165621
830.906873,888.247130,814.226536,-10648.727422
830.907193,-222.061783,1702.473667,-10342.289223
830.907513,666.185348,2072.576638,-9882.631924
830.907833,1776.494261,2738.761985,-10495.508323
830.908153,1554.432478,2664.741391,-10648.727422
830.908473,1184.329507,1480.411884,-9576.193725
830.908793,1998.556043,370.102971,-9882.631924
830.909113,2368.659014,-740.205942,-9729.412825
830.909433,2146.597232,-518.144159,-9499.584175
830.909753,666.185348,1036.288319,-9346.365076
830.910073,666.185348,2220.617826,-9806.022374
830.910393,518.144159,2590.720797,-9346.365076
830.910713,370.102971,1702.473667,-9729.412825
830.911033,740.205942,592.164754,-9039.926876
830.911353,2664.741391,-1110.308913,-9806.022374
830.911673,3404.947333,-1554.432478,-9959.241474
830.911993,1628.453072,-444.123565,-9039.926876
830.912313,-148.041188,1184.329507,-9422.974625
830.912633,962.267725,2368.659014,-10189.070123
830.912953,1702.473667,2960.823768,-10342.289223
830.913273,740.205942,2220.617826,-9576.193725
830.913593,1258.350101,962.267725,-9882.631924
830.913913,3330.926739,-666.185348,-10342.289223
830.914233,2664.741391,-1406.391290,-10418.898773
830.914553,296.082377,-1110.308913,-9959.241474
830.914873,-592.164754,296.082377,-9499.584175
830.915193,0.000000,1110.308913,-10648.727422
830.915513,148.041188,1850.514855,-11031.775171
830.915833,-1924.535449,2072.576638,-10265.679673
830.916153,-1628.453072,2146.597232,-10648.727422
830.916473,518.144159,74.020594,-11031.775171
830.916793,0.000000,-1332.370696,-10342.289223
830.917113,-1406.391290,-814.226536,-10112.460574
830.917433,-1184.329507,0.000000,-10189.070123
830.917753,592.164754,1184.329507,-10265.679673
830.918073,0.000000,1702.473667,-10878.556072
830.918393,-962.267725,592.164754,-9576.193725
830.918713,0.000000,-1332.370696,-9959.241474
830.919033,2442.679609,-3108.864956,-10035.851024
830.919353,740.205942,-2738.761985,-10035.851024
830.919673,-962.267725,-666.185348,-9576.193725
830.919993,-814.226536,962.267725,-10035.851024
830.920313,518.144159,814.226536,-9652.803275
830.920633,888.247130,-444.123565,-10035.851024
830.920954,-888.247130,-1406.391290,-9499.584175
830.921274,-740.205942,-1628.453072,-9652.803275
830.921594,296.082377,-1184.329507,-9729.412825
830.921914,592.164754,-1036.288319,-9652.803275
830.922234,-444.123565,-666.185348,-9422.974625
830.922554,518.144159,-370.102971,-9806.022374
830.922874,2368.659014,-1628.453072,-9959.241474
830.923195,962.267725,-1406.391290,-10035.851024
830.923515,0.000000,-1258.350101,-10112.460574
830.923835,0.000000,-740.205942,-9806.022374
830.924155,1036.288319,0.000000,-10495.508323
830.924475,222.061783,444.123565,-10189.070123
830.924795,444.123565,1110.308913,-10112.460574
830.925115,1924.535449,592.164754,-10955.165621
830.925436,1702.473667,74.020594,-10495.508323
830.925756,0.000000,-666.185348,-10418.898773
830.926076,-296.082377,-1110.308913,-10035.851024
830.926396,296.082377,-2072.576638,-9882.631924
830.926716,518.144159,-666.185348,-10572.117872
830.927036,-1258.350101,1406.391290,-10112.460574
830.927356,-1110.308913,2664.741391,-10648.727422
830.927677,222.061783,2368.659014,-9729.412825
830.927997,1258.350101,1036.288319,-10572.117872
830.928317,518.144159,74.020594,-10265.679673
830.928637,1184.329507,-1850.514855,-10342.289223
830.928957,2146.597232,-1036.288319,-10265.679673
830.929277,962.267725,0.000000,-9729.412825
830.929598,0.000000,1998.556043,-9729.412825
830.929918,-370.102971,2960.823768,-10189.070123
830.930238,0.000000,2886.803174,-10265.679673
830.930558,-1554.432478,1480.411884,-11184.994271
830.930878,-1184.329507,148.041188,-9959.241474
830.931198,0.000000,-1702.473667,-9652.803275
830.931518,888.247130,-444.123565,-9806.022374
830.931839,518.144159,444.123565,-9269.755526
830.932159,962.267725,2146.597232,-9576.193725
830.932479,1554.432478,2220.617826,-10035.851024
830.932799,2072.576638,2368.659014,-9959.241474
830.933119,740.205942,888.247130,-9806.022374
830.933439,1406.391290,-444.123565,-8350.440928
830.933759,3256.906145,-666.185348,-9959.241474
830.934080,1924.535449,-148.041188,-10112.460574
830.934400,370.102971,1554.432478,-9882.631924
830.934720,-444.123565,3108.864956,-10112.460574
830.935040,222.061783,2294.638420,-10265.679673
830.935360,444.123565,2072.576638,-10342.289223
830.935680,-296.082377,1406.391290,-10342.289223
830.936000,74.020594,740.205942,-10878.556072
830.936321,1924.535449,444.123565,-10418.898773
830.936641,1110.308913,814.226536,-10725.336972
830.936961,148.041188,1850.514855,-10035.851024
830.937281,814.226536,3182.885551,-10495.508323
830.937601,1258.350101,3182.885551,-10572.117872
830.937921,2738.761985,3330.926739,-10725.336972
830.938241,1998.556043,962.267725,-10342.289223
830.938562,1184.329507,-740.205942,-10112.460574
830.938882,1036.288319,-2368.659014,-10035.851024
830.939202,296.082377,-2072.576638,-9346.365076
830.939522,0.000000,74.020594,-9269.755526
830.939842,74.020594,1406.391290,-9806.022374
830.940162,1554.432478,1776.494261,-9806.022374
830.940483,74.020594,888.247130,-9806.022374
830.940803,-814.226536,-740.205942,-9193.145976
830.941123,-814.226536,-3330.926739,-9269.755526
830.941443,592.164754,-2812.782580,-9499.584175
830.941763,222.061783,-740.205942,-9346.365076
830.942083,444.123565,1258.350101,-9039.926876
830.942403,1702.473667,2368.659014,-10265.679673
830.942724,2220.617826,1480.411884,-9882.631924
830.943044,1110.308913,-444.123565,-9959.241474
830.943364,222.061783,-1554.432478,-8273.831378
830.943684,148.041188,-2220.617826,-10035.851024
830.944004,1332.370696,-1628.453072,-9959.241474
830.944324,592.164754,-666.185348,-9959.241474
830.944644,814.226536,1554.432478,-10112.460574
830.944965,962.267725,2220.617826,-10572.117872
830.945285,666.185348,2886.803174,-10801.946522
830.945605,-370.102971,1110.308913,-10725.336972
830.945925,-814.226536,-814.226536,-10572.117872
830.946245,592.164754,-3182.885551,-10495.508323
830.946565,740.205942,-3330.926739,-10418.898773
830.946885,-148.041188,-1406.391290,-10342.289223
830.947206,-1110.308913,1850.514855,-10495.508323
830.947526,-1554.432478,4367.215058,-10801.946522
830.947846,-888.247130,4515.256246,-11261.603821
830.948166,-888.247130,1702.473667,-10495.508323
830.948486,0.000000,-1776.494261,-10342.289223
830.948806,592.164754,-4293.194464,-10189.070123
830.949126,-444.123565,-3849.070898,-9806.022374
830.949447,-1110.308913,-1036.288319,-9729.412825
830.949767,-1628.453072,1554.432478,-9806.022374
830.950087,370.102971,2590.720797,-10112.460574
830.950407,-148.041188,1480.411884,-10035.851024
830.950727,-518.144159,370.102971,-10418.898773
830.951047,0.000000,-1998.556043,-10035.851024
830.951367,1110.308913,-2442.679609,-9729.412825
830.951688,-296.082377,-888.247130,-9193.145976
830.952008,-370.102971,740.205942,-9576.193725
830.952328,962.267725,888.247130,-9576.193725
830.952648,1480.411884,370.102971,-9806.022374
830.952968,740.205942,0.000000,-9882.631924
830.953288,-296.082377,-740.205942,-9576.193725
830.953609,518.144159,-888.247130,-10112.460574
830.953929,1332.370696,0.000000,-10112.460574
830.954249,962.267725,1554.432478,-9729.412825
830.954569,888.247130,1406.391290,-10648.727422
830.954889,2442.679609,1110.308913,-10495.508323
830.955209,888.247130,1628.453072,-10495.508323
830.955529,-222.061783,1702.473667,-10801.946522
830.955850,-592.164754,1258.350101,-10495.508323
830.956170,962.267725,518.144159,-10801.946522
830.956490,518.144159,222.061783,-10342.289223
830.956810,-962.267725,740.205942,-9959.241474
830.957130,74.020594,592.164754,-10342.289223
830.957450,2072.576638,962.267725,-10725.336972
830.957770,1406.391290,1110.308913,-10495.508323
830.958091,148.041188,1702.473667,-9806.022374
830.958411,74.020594,592.164754,-10265.679673
830.958731,1850.514855,814.226536,-10418.898773
830.959051,2664.741391,444.123565,-10112.460574
830.959371,1258.350101,1628.453072,-10189.070123
830.959691,148.041188,2368.659014,-10265.679673
830.960011,1406.391290,2220.617826,-9959.241474
830.960332,1258.350101,1110.308913,-10189.070123
830.960652,1110.308913,-518.144159,-9806.022374
830.960972,1554.432478,-1628.453072,-9806.022374
830.961292,1554.432478,-1702.473667,-9576.193725
830.961612,-444.123565,-1184.329507,-9652.803275
830.961932,-1628.453072,0.000000,-8197.221829
830.962252,-814.226536,1850.514855,-9652.803275
830.962573,296.082377,2516.700203,-9882.631924
830.962893,222.061783,1924.535449,-9959.241474
830.963213,148.041188,0.000000,-9882.631924
830.963533,1924.535449,-2220.617826,-9806.022374
830.963853,2072.576638,-3627.009116,-9959.241474
830.964173,74.020594,-2812.782580,-9499.584175
830.964494,-444.123565,-666.185348,-9806.022374
830.964814,666.185348,1702.473667,-10648.727422
830.965134,962.267725,2738.761985,-10572.117872
830.965454,370.102971,2368.659014,-10725.336972
830.965774,0.000000,222.061783,-10418.898773
830.966094,814.226536,-1998.556043,-10725.336972
830.966414,962.267725,-1554.432478,-10265.679673
830.966735,888.247130,0.000000,-10189.070123
830.967055,74.020594,1702.473667,-10572.117872
830.967375,1480.411884,2146.597232,-10418.898773
830.967695,888.247130,1628.453072,-9729.412825
830.968015,-888.247130,444.123565,-10112.460574
830.968335,-888.247130,-1184.329507,-10035.851024
830.968655,888.247130,-1480.411884,-10035.851024
830.968976,2368.659014,-1406.391290,-9116.536426
830.969296,2220.617826,296.082377,-9806.022374
830.969616,3034.844362,1554.432478,-10112.460574
830.969936,2368.659014,2220.617826,-10112.460574
830.970256,592.164754,1110.308913,-9959.241474
830.970576,444.123565,0.000000,-9499.584175
830.970896,2072.576638,-1702.473667,-9806.022374
830.971217,2220.617826,-1924.535449,-9806.022374
830.971537,0.000000,-1110.308913,-10035.851024
830.971857,-1184.329507,0.000000,-9116.536426
830.972177,-888.247130,1406.391290,-9882.631924
830.972497,-518.144159,1628.453072,-10035.851024
830.972817,-814.226536,0.000000,-9652.803275
830.973137,-592.164754,-888.247130,-9806.022374
830.973458,592.164754,-1480.411884,-9959.241474
830.973778,1776.494261,-1554.432478,-9882.631924
830.974098,296.082377,0.000000,-10418.898773
830.974418,-814.226536,740.205942,-10035.851024
830.974738,74.020594,1998.556043,-9882.631924
830.975058,1406.391290,3552.988522,-10878.556072
830.975379,-592.164754,2886.803174,-10878.556072
830.975699,-1036.288319,444.123565,-10265.679673
830.976019,148.041188,-2442.679609,-10189.070123
830.976339,370.102971,-2516.700203,-9806.022374
830.976659,-1554.432478,-2220.617826,-9729.412825
830.976979,-2146.597232,740.205942,-10112.460574
830.977299,-1406.391290,2960.823768,-10035.851024
830.977620,0.000000,4737.318029,-10648.727422
830.977940,-296.082377,3182.885551,-10265.679673
830.978260,-1332.370696,0.000000,-9806.022374
830.978580,-518.144159,-2442.679609,-10112.460574
830.978900,592.164754,-3330.926739,-9882.631924
830.979220,0.000000,-1406.391290,-9116.536426
830.979540,1110.308913,666.185348,-10112.460574
830.979861,740.205942,2590.720797,-9882.631924
830.980181,0.000000,1628.453072,-10265.679673
830.980501,-296.082377,2072.576638,-10035.851024
830.980821,1480.411884,518.144159,-10342.289223
830.981141,3182.885551,592.164754,-10112.460574
830.981461,2294.638420,222.061783,-10035.851024
830.981781,592.164754,666.185348,-9576.193725
830.982102,740.205942,592.164754,-9729.412825
830.982422,370.102971,666.185348,-9959.241474
830.982742,222.061783,962.267725,-9959.241474
830.983062,296.082377,740.205942,-9959.241474
830.983382,2294.638420,0.000000,-10495.508323
830.983702,2590.720797,-444.123565,-10342.289223
830.984022,1702.473667,0.000000,-10112.460574
830.984343,296.082377,666.185348,-10265.679673
830.984663,814.226536,1554.432478,-10112.460574
830.984983,1924.535449,1702.473667,-10648.727422
830.985303,1776.494261,592.164754,-10572.117872
830.985623,1776.494261,-1110.308913,-10648.727422
830.985943,2516.700203,-2516.700203,-10648.727422
830.986264,1702.473667,-1480.411884,-10112.460574
830.986584,0.000000,666.185348,-10342.289223
830.986904,-592.164754,3775.050304,-10725.336972
830.987224,296.082377,3849.070898,-10572.117872
830.987544,1628.453072,2590.720797,-11644.651570
830.987864,962.267725,370.102971,-9882.631924
830.988184,888.247130,-1480.411884,-10035.851024
830.988505,1332.370696,-2812.782580,-10112.460574
830.988825,888.247130,-2516.700203,-9499.584175
830.989145,296.082377,0.000000,-9499.584175
830.989465,370.102971,1850.514855,-9652.803275
830.989785,222.061783,2442.679609,-9806.022374
830.990105,666.185348,1702.473667,-10112.460574
830.990425,148.041188,370.102971,-9269.755526
830.990746,370.102971,-1628.453072,-9652.803275
830.991066,370.102971,-2812.782580,-9269.755526
830.991386,-1406.391290,-2812.782580,-9116.536426
830.991706,-2516.700203,-444.123565,-9269.755526
830.992026,-1480.411884,1480.411884,-10112.460574
830.992346,74.020594,2368.659014,-10035.851024
830.992666,74.020594,1628.453072,-10342.289223
830.992987,-1480.411884,296.082377,-9959.241474
830.993307,-296.082377,-1036.288319,-10112.460574
830.993627,962.267725,-1998.556043,-10495.508323
830.993947,370.102971,-814.226536,-10189.070123
830.994267,-1258.350101,444.123565,-10265.679673
830.994587,296.082377,1850.514855,-10801.946522
830.994907,2516.700203,2072.576638,-10878.556072
830.995228,1850.514855,2442.679609,-10955.165621
830.995548,740.205942,1184.329507,-10955.165621
830.995868,1110.308913,-1480.411884,-10878.556072
830.996188,1628.453072,-1702.473667,-10035.851024
830.996508,0.000000,-1332.370696,-10035.851024
830.996828,-666.185348,1332.370696,-10342.289223
830.997148,-740.205942,2590.720797,-10265.679673
830.997469,74.020594,3256.906145,-10648.727422
830.997789,0.000000,1998.556043,-10495.508323
830.998109,888.247130,74.020594,-10265.679673
830.998429,1702.473667,-1480.411884,-10112.460574
830.998749,962.267725,-1332.370696,-9499.584175
830.999069,0.000000,0.000000,-9346.365076
830.999390,518.144159,1480.411884,-9652.803275
830.999710,1332.370696,1998.556043,-9806.022374
831.000030,1036.288319,666.185348,-10112.460574
831.000350,1036.288319,0.000000,-9422.974625
831.000670,1850.514855,0.000000,-10035.851024
831.000990,2368.659014,296.082377,-10189.070123
831.001310,1554.432478,1184.329507,-9806.022374
831.001631,74.020594,1480.411884,-9729.412825
831.001951,0.000000,444.123565,-9499.584175
831.002271,-962.267725,-666.185348,-9576.193725
831.002591,-1110.308913,-222.061783,-10112.460574
831.002911,-1110.308913,518.144159,-9576.193725
831.003231,518.144159,1184.329507,-10495.508323
831.003551,1702.473667,-666.185348,-10189.070123
831.003872,1332.370696,-1480.411884,-9959.241474
831.004192,444.123565,-814.226536,-10035.851024
831.004512,0.000000,888.247130,-10112.460574
831.004832,74.020594,3627.009116,-10725.336972
831.005152,-518.144159,4145.153275,-10572.117872
831.005472,-1628.453072,2886.803174,-10495.508323
831.005792,-370.102971,296.082377,-11031.775171
831.006113,1258.350101,-2294.638420,-10035.851024
831.006433,962.267725,-2516.700203,-9729.412825
831.006753,592.164754,-592.164754,-10189.070123
831.007073,1924.535449,1184.329507,-9959.241474
831.007393,3182.885551,1110.308913,-9959.241474
831.007713,2294.638420,1406.391290,-10495.508323
831.008033,1406.391290,296.082377,-10418.898773
831.008354,2220.617826,-370.102971,-10112.460574
831.008674,1554.432478,-1110.308913,-10035.851024
831.008994,1332.370696,-296.082377,-10189.070123
831.009314,74.020594,-444.123565,-9652.803275
831.009634,0.000000,74.020594,-9729.412825
831.009954,-592.164754,444.123565,-9652.803275
831.010275,-1480.411884,370.102971,-9806.022374
831.010595,-592.164754,-444.123565,-9806.022374
831.010915,0.000000,-1924.535449,-10189.070123
831.011235,296.082377,-2664.741391,-9499.584175
831.011555,592.164754,-2146.597232,-9806.022374
831.011875,1184.329507,-962.267725,-9882.631924
831.012195,1480.411884,0.000000,-10265.679673
831.012516,148.041188,1258.350101,-10112.460574
831.012836,-1036.288319,518.144159,-10265.679673
831.013156,148.041188,-296.082377,-11644.651570
831.013476,370.102971,-1702.473667,-10955.165621
831.013796,0.000000,-2146.597232,-10265.679673
831.014116,-1184.329507,-1332.370696,-10189.070123
831.014436,0.000000,-592.164754,-10418.898773
831.014757,74.020594,222.061783,-10265.679673
831.015077,-1554.432478,-518.144159,-10418.898773
831.015397,-2516.700203,-962.267725,-9882.631924
831.015717,-370.102971,-1998.556043,-10801.946522
831.016037,740.205942,-1924.535449,-10265.679673
831.016357,0.000000,148.041188,-10189.070123
831.016677,-592.164754,1258.350101,-10265.679673
831.016998,296.082377,1998.556043,-10342.289223
831.017318,1480.411884,1850.514855,-10418.898773
831.017638,1184.329507,1332.370696,-11414.822920
831.017958,666.185348,296.082377,-10342.289223
831.018278,1850.514855,-962.267725,-10418.898773
831.018598,1702.473667,-1554.432478,-9882.631924
831.018918,-222.061783,-148.041188,-9346.365076
831.019238,-1184.329507,1184.329507,-10112.460574
831.019558,74.020594,2146.597232,-9959.241474
831.019879,1258.350101,2220.617826,-10112.460574
831.020199,1184.329507,814.226536,-9729.412825
831.020519,2516.700203,-2072.576638,-9959.241474
831.020839,2146.597232,-1850.514855,-9806.022374
831.021159,1258.350101,-1332.370696,-9806.022374
831.021479,370.102971,370.102971,-9652.803275
831.021799,962.267725,3034.844362,-10035.851024
831.022119,2146.597232,4071.132681,-10342.289223
831.022439,1850.514855,3256.906145,-10801.946522
831.022759,1184.329507,1406.391290,-10342.289223
831.023079,1924.535449,0.000000,-10572.117872
831.023399,2590.720797,444.123565,-10495.508323
831.023719,2220.617826,1258.350101,-10189.070123
831.024039,1332.370696,3627.009116,-10495.508323
831.024360,666.185348,4219.173869,-10342.289223
831.024680,-370.102971,2590.720797,-10189.070123
831.025000,-1702.473667,740.205942,-9346.365076
831.025320,-296.082377,-518.144159,-9499.584175
831.025640,1406.391290,-1184.329507,-10189.070123
831.025960,1036.288319,74.020594,-9882.631924
831.026280,296.082377,1332.370696,-9729.412825
831.026600,222.061783,2146.597232,-9576.193725
831.026920,1184.329507,2960.823768,-9806.022374
831.027240,-740.205942,2072.576638,-10112.460574
831.027560,-1554.432478,1480.411884,-8656.879127
831.027880,-1184.329507,-444.123565,-9806.022374
831.028200,518.144159,-1776.494261,-9806.022374
831.028520,592.164754,-1850.514855,-9729.412825
831.028840,370.102971,-370.102971,-11184.994271
831.029161,814.226536,1480.411884,-10035.851024
831.029481,1110.308913,3404.947333,-10418.898773
831.029801,-296.082377,3552.988522,-10418.898773
831.030121,-2220.617826,2516.700203,-9882.631924
831.030441,-2294.638420,0.000000,-10418.898773
831.030761,296.082377,-3034.844362,-10189.070123
831.031081,740.205942,-4145.153275,-9806.022374
831.031401,296.082377,-2072.576638,-9882.631924
831.031721,1332.370696,0.000000,-10572.117872
831.032041,1554.432478,2368.659014,-10801.946522
831.032361,740.205942,2738.761985,-10342.289223
831.032681,-1110.308913,2072.576638,-10189.070123
831.033001,296.082377,740.205942,-10801.946522
831.033321,1184.329507,-1036.288319,-10801.946522
831.033642,1924.535449,-2368.659014,-9959.241474
831.033962,1998.556043,-2294.638420,-10112.460574
831.034282,1184.329507,-1480.411884,-10189.070123
831.034602,1036.288319,148.041188,-9959.241474
831.034922,888.247130,1480.411884,-10495.508323
831.035242,-296.082377,2146.597232,-10418.898773
831.035562,814.226536,518.144159,-10495.508323
831.035882,222.061783,-1998.556043,-10418.898773
831.036202,0.000000,-3108.864956,-9039.926876
831.036522,592.164754,-2368.659014,-9882.631924
831.036842,2072.576638,-888.247130,-10189.070123
831.037162,2294.638420,888.247130,-10418.898773
831.037482,740.205942,1628.453072,-9959.241474
831.037802,444.123565,148.041188,-10265.679673
831.038122,1776.494261,-370.102971,-10342.289223
831.038443,1406.391290,-1184.329507,-10265.679673
831.038763,-444.123565,-962.267725,-9576.193725
831.039083,-962.267725,-444.123565,-9652.803275
831.039403,1036.288319,-370.102971,-9882.631924
831.039723,1110.308913,-666.185348,-9959.241474
831.040043,-222.061783,-592.164754,-10112.460574
831.040363,-1480.411884,-74.020594,-10035.851024
831.040683,370.102971,-814.226536,-10265.679673
831.041003,148.041188,-518.144159,-9806.022374
831.041323,-1036.288319,518.144159,-9806.022374
831.041643,-592.164754,0.000000,-9729.412825
831.041963,-370.102971,370.102971,-9959.241474
831.042283,222.061783,-222.061783,-10112.460574
831.042603,222.061783,0.000000,-9882.631924
831.042924,740.205942,222.061783,-10495.508323
831.043244,1258.350101,222.061783,-10418.898773
831.043564,666.185348,814.226536,-9882.631924
831.043884,296.082377,1776.494261,-10035.851024
831.044204,666.185348,2220.617826,-10418.898773
831.044524,1184.329507,2442.679609,-10572.117872
831.044844,1110.308913,1702.473667,-10112.460574
831.045164,1036.288319,888.247130,-10189.070123
831.045484,1184.329507,0.000000,-10418.898773
831.045804,370.102971,-222.061783,-9806.022374
831.046124,-370.102971,962.267725,-9882.631924
831.046444,-814.226536,2738.761985,-9882.631924
831.046764,518.144159,3627.009116,-10265.679673
831.047084,1110.308913,4219.173869,-10648.727422
831.047404,370.102971,2886.803174,-9576.193725
831.047725,518.144159,1184.329507,-9959.241474
831.048045,814.226536,74.020594,-10418.898773
831.048365,370.102971,0.000000,-10035.851024
831.048685,-962.267725,1110.308913,-9806.022374
831.049005,-296.082377,2442.679609,-10342.289223
831.049325,1184.329507,3108.864956,-10112.460574
831.049645,814.226536,2960.823768,-10418.898773
831.049965,-222.061783,1776.494261,-9422.974625
831.050285,740.205942,740.205942,-11261.603821
831.050605,2072.576638,-148.041188,-10189.070123
831.050925,1998.556043,0.000000,-9576.193725
831.051245,1480.411884,592.164754,-9729.412825
831.051565,1480.411884,1258.350101,-9269.755526
831.051885,1776.494261,1776.494261,-9959.241474
831.052206,962.267725,1702.473667,-9959.241474
831.052526,-1110.308913,1702.473667,-9806.022374
831.052846,-740.205942,0.000000,-9882.631924
831.053166,962.267725,-1998.556043,-9422.974625
831.053486,1258.350101,-2146.597232,-9652.803275
831.053806,1258.350101,-1036.288319,-9729.412825
831.054126,1406.391290,222.061783,-9806.022374
831.054446,444.123565,1184.329507,-9729.412825
831.054766,-444.123565,1628.453072,-9882.631924
831.055086,-518.144159,1110.308913,-9882.631924
831.055406,1776.494261,-296.082377,-10189.070123
831.055726,3256.906145,-1406.391290,-9959.241474
831.056046,3256.906145,-1480.411884,-10418.898773
831.056366,888.247130,-666.185348,-10648.727422
831.056687,1332.370696,0.000000,-10495.508323
831.057007,592.164754,518.144159,-10342.289223
831.057327,-518.144159,814.226536,-10035.851024
831.057647,-592.164754,222.061783,-10112.460574
831.057967,444.123565,-1036.288319,-10801.946522
831.058287,1406.391290,-2664.741391,-10495.508323
831.058607,1110.308913,-3108.864956,-10035.851024
831.058927,1628.453072,-1998.556043,-9882.631924
831.059247,1184.329507,-296.082377,-10418.898773
831.059567,-740.205942,814.226536,-10572.117872
831.059887,-1850.514855,740.205942,-10418.898773
831.060207,-1628.453072,-666.185348,-10342.289223
831.060527,-740.205942,-2442.679609,-10112.460574
831.060847,-1036.288319,-3775.050304,-9806.022374
831.061167,-2146.597232,-3849.070898,-9499.584175
831.061488,-1332.370696,-2368.659014,-9882.631924
831.061808,-666.185348,-222.061783,-9652.803275
831.062128,-740.205942,740.205942,-10265.679673
831.062448,-444.123565,74.020594,-10035.851024
831.062768,-222.061783,-1332.370696,-10418.898773
831.063088,-148.041188,-2368.659014,-8810.098227
831.063408,518.144159,-2442.679609,-9499.584175
831.063728,962.267725,-1850.514855,-9499.584175
831.064048,1850.514855,-444.123565,-9806.022374
831.064368,1258.350101,148.041188,-10265.679673
831.064688,-148.041188,0.000000,-9806.022374
831.065008,-1554.432478,-592.164754,-9576.193725
831.065328,-370.102971,-1702.473667,-10035.851024
831.065648,888.247130,-1998.556043,-9959.241474
831.065969,1110.308913,-1036.288319,-9959.241474
831.066289,592.164754,296.082377,-9806.022374
831.066609,148.041188,962.267725,-10265.679673
831.066929,148.041188,1702.473667,-10342.289223
831.067249,-962.267725,1850.514855,-10418.898773
831.067569,-962.267725,1184.329507,-10189.070123
831.067889,518.144159,-148.041188,-10648.727422
831.068209,1406.391290,-518.144159,-10648.727422
831.068529,148.041188,0.000000,-9959.241474
831.068849,1184.329507,1184.329507,-10189.070123
831.069169,1924.535449,2220.617826,-10878.556072
831.069489,1554.432478,1702.473667,-10878.556072
831.069809,148.041188,1998.556043,-10035.851024
831.070129,1036.288319,1924.535449,-10265.679673
831.070449,3182.885551,1998.556043,-10572.117872
831.070770,2886.803174,2368.659014,-10495.508323
831.071090,1110.308913,2590.720797,-10648.727422
831.071410,222.061783,1850.514855,-10035.851024
831.071730,962.267725,1702.473667,-11338.213370
831.072050,666.185348,1998.556043,-10342.289223
831.072370,-296.082377,1480.411884,-9806.022374
831.072690,74.020594,1850.514855,-10418.898773
831.073010,1036.288319,1998.556043,-9269.755526
831.073330,1110.308913,2220.617826,-10112.460574
831.073650,888.247130,2590.720797,-9959.241474
831.073970,740.205942,3182.885551,-10035.851024
831.074290,296.082377,2960.823768,-9882.631924
831.074610,-666.185348,2368.659014,-9806.022374
831.074930,-148.041188,370.102971,-9576.193725
831.075251,518.144159,-148.041188,-9806.022374
831.075571,370.102971,-592.164754,-9959.241474
831.075891,0.000000,1628.453072,-10495.508323
831.076211,-444.123565,2590.720797,-9499.584175
831.076531,-444.123565,3404.947333,-9806.022374
831.076851,-740.205942,2960.823768,-9959.241474
831.077171,-1184.329507,1184.329507,-9729.412825
831.077491,-296.082377,-296.082377,-9959.241474
831.077811,1110.308913,-962.267725,-10035.851024
831.078131,814.226536,-296.082377,-9806.022374
831.078451,74.020594,1332.370696,-9652.803275
831.078771,814.226536,3256.906145,-10418.898773
831.079091,1332.370696,3108.864956,-9882.631924
831.079411,74.020594,1628.453072,-10495.508323
831.079731,0.000000,518.144159,-9806.022374
831.080052,592.164754,-1184.329507,-10418.898773
831.080372,1554.432478,-1184.329507,-10418.898773
831.080692,888.247130,0.000000,-10495.508323
831.081012,-370.102971,370.102971,-10189.070123
831.081332,592.164754,740.205942,-10265.679673
831.081652,1628.453072,296.082377,-9729.412825
831.081972,1184.329507,0.000000,-10495.508323
831.082292,148.041188,-666.185348,-10189.070123
831.082612,1406.391290,-666.185348,-10801.946522
831.082932,2294.638420,-592.164754,-9806.022374
831.083252,1480.411884,-222.061783,-10035.851024
831.083572,296.082377,-222.061783,-10112.460574
831.083892,1036.288319,222.061783,-10189.070123
831.084212,1628.453072,-222.061783,-9959.241474
831.084533,1850.514855,-888.247130,-10035.851024
831.084853,518.144159,-1850.514855,-10112.460574
831.085173,962.267725,-2738.761985,-10418.898773
831.085493,518.144159,-2812.782580,-9806.022374
831.085813,0.000000,-1332.370696,-9652.803275
831.086133,-222.061783,0.000000,-9576.193725
831.086453,0.000000,1184.329507,-10342.289223
831.086773,74.020594,888.247130,-10189.070123
831.087093,0.000000,-740.205942,-9882.631924
831.087413,0.000000,-2442.679609,-9882.631924
831.087733,1480.411884,-3256.906145,-9959.241474
831.088053,888.247130,-3404.947333,-10112.460574
831.088373,-888.247130,-1776.494261,-9729.412825
831.088693,-444.123565,-962.267725,-10035.851024
831.089014,222.061783,1406.391290,-10112.460574
831.089334,518.144159,740.205942,-10648.727422
831.089654,0.000000,-1036.288319,-10112.460574
831.089974,-222.061783,-2590.720797,-10112.460574
831.090294,888.247130,-3256.906145,-9959.241474
831.090614,370.102971,-2516.700203,-10265.679673
831.090934,0.000000,-222.061783,-10112.460574
831.091254,-148.041188,1480.411884,-10342.289223
831.091574,1110.308913,2146.597232,-9729.412825
831.091894,444.123565,1406.391290,-11031.775171
831.092214,0.000000,0.000000,-10189.070123
831.092534,-222.061783,-2220.617826,-10342.289223
831.092854,740.205942,-2664.741391,-10418.898773
831.093174,0.000000,-2072.576638,-9499.584175
831.093494,0.000000,0.000000,-9959.241474
831.093815,444.123565,3034.844362,-10418.898773
831.094135,1110.308913,4219.173869,-11108.384721
831.094455,1332.370696,4367.215058,-10342.289223
831.094775,1406.391290,814.226536,-10495.508323
831.095095,1406.391290,-888.247130,-10189.070123
831.095415,666.185348,-962.267725,-9882.631924
831.095735,370.102971,222.061783,-10035.851024
831.096055,888.247130,2516.700203,-9806.022374
831.096375,1258.350101,3552.988522,-10418.898773
831.096695,222.061783,3182.885551,-10035.851024
831.097015,-962.267725,2072.576638,-9729.412825
831.097335,-592.164754,888.247130,-9806.022374
831.097655,1702.473667,74.020594,-9959.241474
831.097975,1924.535449,148.041188,-10189.070123
831.098296,222.061783,1258.350101,-9499.584175
831.098616,-592.164754,2368.659014,-9346.365076
831.098936,-592.164754,3182.885551,-9882.631924
831.099256,-296.082377,1998.556043,-10035.851024
831.099576,148.041188,962.267725,-9652.803275
831.099896,1110.308913,-296.082377,-9882.631924
831.100216,2146.597232,-370.102971,-9806.022374
831.100536,740.205942,814.226536,-9806.022374
831.100856,592.164754,2368.659014,-9729.412825
831.101176,1332.370696,3923.091493,-10265.679673
831.101496,1036.288319,3775.050304,-10035.851024
831.101816,-1184.329507,2442.679609,-10112.460574
831.102136,-2220.617826,0.000000,-9729.412825
831.102456,222.061783,-1998.556043,-9806.022374
831.102776,1998.556043,-1332.370696,-10112.460574
831.103097,1110.308913,-666.185348,-10112.460574
831.103417,-222.061783,1776.494261,-10189.070123
831.103737,0.000000,3775.050304,-10495.508323
831.104057,0.000000,4441.235652,-10112.460574
831.104377,-444.123565,4515.256246,-9729.412825
831.104697,-370.102971,1998.556043,-10112.460574
831.105017,740.205942,-1258.350101,-10342.289223
831.105337,2590.720797,-3330.926739,-9882.631924
831.105657,2368.659014,-2738.761985,-9882.631924
831.105977,1554.432478,222.061783,-10035.851024
831.106297,1110.308913,2368.659014,-10495.508323
831.106617,666.185348,4293.194464,-10801.946522
831.106937,666.185348,3552.988522,-10189.070123
831.107257,296.082377,1924.535449,-10189.070123
831.107578,1258.350101,-1184.329507,-10572.117872
831.107898,1184.329507,-3478.967927,-10112.460574
831.108218,1258.350101,-4441.235652,-9576.193725
831.108538,1702.473667,-2442.679609,-9806.022374
831.108858,1184.329507,-148.041188,-9806.022374
831.109178,370.102971,814.226536,-10265.679673
831.109498,-222.061783,1554.432478,-10112.460574
831.109818,444.123565,518.144159,-10342.289223
831.110138,1776.494261,-1332.370696,-10112.460574
831.110458,1924.535449,-3330.926739,-9959.241474
831.110778,666.185348,-3923.091493,-9652.803275
831.111098,814.226536,-2368.659014,-10035.851024
831.111418,814.226536,-814.226536,-10112.460574
831.111738,148.041188,222.061783,-10112.460574
831.112058,148.041188,1036.288319,-10342.289223
831.112379,518.144159,0.000000,-11031.775171
831.112699,740.205942,-1258.350101,-10572.117872
831.113019,-222.061783,-1850.514855,-9882.631924
831.113339,-1554.432478,-1406.391290,-10112.460574
831.113659,-962.267725,-740.205942,-10265.679673
831.113979,-962.267725,-222.061783,-10495.508323
831.114299,-814.226536,0.000000,-9882.631924
831.114619,-888.247130,148.041188,-10112.460574
831.114939,592.164754,222.061783,-10955.165621
831.115259,1110.308913,-740.205942,-10189.070123
831.115579,0.000000,-1184.329507,-10035.851024
831.115899,-1110.308913,-740.205942,-9959.241474
831.116219,-518.144159,-1406.391290,-9806.022374
831.116539,0.000000,-666.185348,-10035.851024
831.116860,-666.185348,-370.102971,-10035.851024
831.117180,-444.123565,-888.247130,-9806.022374
831.117500,962.267725,-222.061783,-10878.556072
831.117820,296.082377,-222.061783,-10035.851024
831.118140,-1036.288319,740.205942,-10035.851024
831.118460,0.000000,1184.329507,-10189.070123
831.118780,2072.576638,592.164754,-10035.851024
831.119100,1776.494261,0.000000,-10342.289223
831.119420,1924.535449,-666.185348,-9959.241474
831.119740,1998.556043,-592.164754,-10112.460574
831.120060,2812.782580,444.123565,-10265.679673
831.120380,1406.391290,2368.659014,-10265.679673
831.120700,-1184.329507,3478.967927,-10342.289223
831.121020,-1036.288319,3627.009116,-10112.460574
831.121340,0.000000,2294.638420,-10035.851024
831.121660,1628.453072,148.041188,-9806.022374
831.121980,1406.391290,-1258.350101,-9806.022374
831.122300,518.144159,-2294.638420,-10418.898773
831.122620,666.185348,-888.247130,-10265.679673
831.122940,518.144159,888.247130,-10112.460574
831.123260,1036.288319,3182.885551,-10265.679673
831.123580,962.267725,3923.091493,-10189.070123
831.123900,888.247130,3330.926739,-10495.508323
831.124220,222.061783,2146.597232,-9959.241474
831.124540,888.247130,518.144159,-11568.042020
831.124860,1850.514855,-2146.597232,-10112.460574
831.125180,1332.370696,-3108.864956,-9499.584175
831.125500,0.000000,-1776.494261,-9499.584175
831.125820,-814.226536,1776.494261,-9806.022374
831.126140,74.020594,3552.988522,-10189.070123
831.126460,0.000000,5033.400406,-10265.679673
831.126780,-444.123565,3330.926739,-10342.289223
831.127100,-592.164754,1110.308913,-9806.022374
831.127420,-370.102971,-1850.514855,-9729.412825
831.127740,-1258.350101,-2368.659014,-9422.974625
831.128060,-1110.308913,-1036.288319,-9882.631924
831.128380,296.082377,1332.370696,-9806.022374
831.128701,518.144159,3923.091493,-10495.508323
831.129021,-592.164754,4737.318029,-10342.289223
831.129341,-1184.329507,4367.215058,-10112.460574
831.129661,0.000000,1924.535449,-10572.117872
831.129981,1702.473667,-222.061783,-10189.070123
831.130301,1776.494261,-1850.514855,-9652.803275
831.130621,1406.391290,-2146.597232,-9806.022374
831.130941,666.185348,-1184.329507,-9959.241474
831.131261,0.000000,1110.308913,-10112.460574
831.131581,-444.123565,2590.720797,-10801.946522
831.131901,-370.102971,3701.029710,-10112.460574
831.132221,370.102971,2294.638420,-11108.384721
831.132541,1332.370696,0.000000,-10572.117872
831.132861,1184.329507,-1850.514855,-10112.460574
831.133181,1184.329507,-1924.535449,-10265.679673
831.133501,2516.700203,-1036.288319,-10112.460574
831.133821,2220.617826,74.020594,-10342.289223
831.134141,1332.370696,1184.329507,-10418.898773
831.134461,1480.411884,1554.432478,-9959.241474
831.134781,1184.329507,1110.308913,-10265.679673
831.135101,1184.329507,-148.041188,-10265.679673
831.135421,1036.288319,-814.226536,-9806.022374
831.135741,666.185348,-888.247130,-10035.851024
831.136061,2516.700203,-444.123565,-9729.412825
831.136381,2220.617826,74.020594,-9882.631924
831.136701,1480.411884,518.144159,-9729.412825
831.137021,148.041188,0.000000,-9806.022374
831.137341,-148.041188,-370.102971,-9806.022374
831.137661,-518.144159,-1406.391290,-9729.412825
831.137981,0.000000,-1110.308913,-9346.365076
831.138301,1554.432478,-666.185348,-9729.412825
831.138621,2442.679609,-222.061783,-9806.022374
831.138941,962.267725,0.000000,-10035.851024
831.139261,-1406.391290,-814.226536,-9806.022374
831.139581,-1776.494261,-1850.514855,-9576.193725
831.139901,0.000000,-1998.556043,-10035.851024
831.140221,962.267725,-1628.453072,-9806.022374
831.140541,-296.082377,-74.020594,-10035.851024
831.140861,-296.082377,592.164754,-10265.679673
831.141181,296.082377,1406.391290,-10725.336972
831.141501,-148.041188,888.247130,-10801.946522
831.141821,-1554.432478,592.164754,-10265.679673
831.142141,-370.102971,-444.123565,-10801.946522
831.142461,888.247130,-666.185348,-10725.336972
831.142781,888.247130,-1110.308913,-10572.117872
831.143101,0.000000,-370.102971,-10418.898773
831.143421,0.000000,222.061783,-10725.336972
831.143741,222.061783,1776.494261,-11031.775171
831.144061,-148.041188,2146.597232,-10801.946522
831.144381,0.000000,1036.288319,-10342.289223
831.144701,1184.329507,148.041188,-11031.775171
831.145021,1554.432478,-444.123565,-10112.460574
831.145341,0.000000,296.082377,-10189.070123
831.145661,-444.123565,888.247130,-10265.679673
831.145981,1036.288319,1258.350101,-10418.898773
831.146301,962.267725,1406.391290,-10418.898773
831.146621,0.000000,592.164754,-9269.755526
831.146941,-370.102971,0.000000,-9576.193725
831.147261,740.205942,-740.205942,-8963.317327
831.147581,2072.576638,-1258.350101,-9576.193725
831.147901,1110.308913,-740.205942,-9346.365076
831.148221,666.185348,814.226536,-9576.193725
831.148541,0.000000,1110.308913,-9576.193725
831.148861,148.041188,740.205942,-9806.022374
831.149181,-592.164754,444.123565,-9346.365076
831.149501,740.205942,-1258.350101,-10035.851024
831.149821,2220.617826,-1628.453072,-10265.679673
831.150141,1036.288319,-814.226536,-9193.145976
831.150461,-592.164754,222.061783,-9882.631924
831.150781,-1184.329507,2072.576638,-9882.631924
831.151101,-666.185348,3034.844362,-10342.289223
831.151421,-1258.350101,2812.782580,-10878.556072
831.151741,-1036.288319,1258.350101,-10189.070123
831.152061,74.020594,-814.226536,-10418.898773
831.152381,1554.432478,-1258.350101,-10189.070123
831.152701,1998.556043,-1184.329507,-10112.460574
831.153021,814.226536,888.247130,-9806.022374
831.153341,1258.350101,2294.638420,-10495.508323
831.153661,370.102971,2590.720797,-10648.727422
831.153981,-444.123565,1924.535449,-10112.460574
831.154301,-592.164754,740.205942,-9959.241474
831.154621,888.247130,-740.205942,-10342.289223
831.154941,2294.638420,-740.205942,-9882.631924
831.155261,1776.494261,-296.082377,-10112.460574
831.155581,1998.556043,1258.350101,-9959.241474
831.155901,2294.638420,2368.659014,-10035.851024
831.156221,1110.308913,2220.617826,-10265.679673
831.156541,0.000000,740.205942,-9576.193725
831.156861,0.000000,-888.247130,-9729.412825
831.157181,518.144159,-1776.494261,-9652.803275
831.157501,1258.350101,-1776.494261,-9652.803275
831.157821,666.185348,-296.082377,-9269.755526
831.158141,0.000000,1480.411884,-10189.070123
831.158461,592.164754,2294.638420,-10418.898773
831.158781,148.041188,2590.720797,-9652.803275
831.159101,-296.082377,814.226536,-9959.241474
831.159421,296.082377,-148.041188,-10189.070123
831.159741,1258.350101,-1036.288319,-10112.460574
831.160061,1554.432478,-74.020594,-11184.994271
831.160381,296.082377,296.082377,-9729.412825
831.160701,0.000000,1110.308913,-10572.117872
831.161021,148.041188,1628.453072,-10648.727422
831.161341,-296.082377,1332.370696,-10342.289223
831.161661,-1036.288319,888.247130,-9882.631924
831.161981,1036.288319,-444.123565,-10572.117872
831.162301,2442.679609,-1406.391290,-10189.070123
831.162621,814.226536,-1924.535449,-10418.898773
831.162941,-814.226536,444.123565,-9806.022374
831.163261,-1924.535449,1924.535449,-10648.727422
831.163581,-222.061783,1850.514855,-10265.679673
831.163901,148.041188,148.041188,-9882.631924
831.164221,814.226536,-1110.308913,-9882.631924
831.164541,1850.514855,-1776.494261,-10265.679673
831.164861,2220.617826,-1110.308913,-9959.241474
831.165181,1554.432478,518.144159,-10189.070123
831.165501,1036.288319,1554.432478,-9576.193725
831.165821,1184.329507,1480.411884,-9806.022374
831.166141,0.000000,814.226536,-9882.631924
831.166461,-1332.370696,-148.041188,-9576.193725
831.166781,-296.082377,-444.123565,-9806.022374
831.167101,2220.617826,-962.267725,-10572.117872
831.167421,2886.803174,-1332.370696,-9806.022374
831.167741,1184.329507,-592.164754,-9806.022374
831.168061,222.061783,518.144159,-9806.022374
831.168381,222.061783,1554.432478,-10265.679673
831.168701,518.144159,2072.576638,-10572.117872
831.169021,518.144159,1332.370696,-9959.241474
831.169341,1332.370696,0.000000,-10495.508323
831.169661,2294.638420,-962.267725,-10495.508323
831.169981,1110.308913,74.020594,-10495.508323
831.170301,0.000000,1998.556043,-10572.117872
831.170621,592.164754,2960.823768,-10418.898773
831.170941,1554.432478,2886.803174,-10725.336972
831.171261,370.102971,1480.411884,-10572.117872
831.171581,-1036.288319,-666.185348,-9729.412825
831.171901,-962.267725,-2960.823768,-10035.851024
831.172221,-518.144159,-3256.906145,-10112.460574
831.172541,0.000000,-1406.391290,-10342.289223
831.172861,296.082377,666.185348,-10189.070123
831.173181,-740.205942,2442.679609,-10418.898773
831.173501,-518.144159,3108.864956,-10342.289223
831.173821,-74.020594,1406.391290,-10265.679673
831.174141,1702.473667,-814.226536,-9806.022374
831.174461,2812.782580,-3034.844362,-10112.460574
831.174781,2516.700203,-3182.885551,-9806.022374
831.175101,666.185348,-1702.473667,-9576.193725
831.175421,296.082377,1110.308913,-9806.022374
831.175741,444.123565,3108.864956,-9882.631924
831.176061,-888.247130,3108.864956,-10265.679673
831.176381,-2220.617826,1110.308913,-9652.803275
831.176701,-1776.494261,-1110.308913,-9576.193725
831.177021,-962.267725,-3108.864956,-9422.974625
831.177341,-888.247130,-3256.906145,-8503.660028
831.177661,-1184.329507,-1406.391290,-9652.803275
831.177981,-370.102971,1184.329507,-10189.070123
831.178301,592.164754,3256.906145,-10112.460574
831.178621,592.164754,4219.173869,-10035.851024
831.178941,148.041188,3997.112087,-9806.022374
831.179261,0.000000,2072.576638,-10725.336972
831.179581,1184.329507,0.000000,-10572.117872
831.179901,148.041188,-1702.473667,-9959.241474
831.180221,296.082377,-2146.597232,-10112.460574
831.180541,296.082377,-1406.391290,-10112.460574
831.180861,444.123565,444.123565,-10112.460574
831.181181,-444.123565,1924.535449,-10495.508323
831.181501,-814.226536,2590.720797,-11414.822920
831.181821,0.000000,2146.597232,-10878.556072
831.182141,1406.391290,1258.350101,-10572.117872
831.182461,1702.473667,-222.061783,-10342.289223
831.182781,1406.391290,-740.205942,-8810.098227
831.183101,2072.576638,-666.185348,-10265.679673
831.183421,1998.556043,518.144159,-9882.631924
831.183741,1776.494261,814.226536,-10418.898773
831.184061,1628.453072,592.164754,-9882.631924
831.184381,1702.473667,148.041188,-10112.460574
831.184701,2294.638420,-296.082377,-10035.851024
831.185021,1702.473667,444.123565,-9806.022374
831.185341,1554.432478,1850.514855,-9882.631924
831.185661,2220.617826,1850.514855,-10189.070123
831.185982,1776.494261,740.205942,-9882.631924
831.186302,296.082377,-444.123565,-9729.412825
831.186622,-518.144159,-1480.411884,-9729.412825
831.186942,444.123565,-1850.514855,-9806.022374
831.187262,222.061783,-1184.329507,-8503.660028
831.187582,0.000000,296.082377,-9729.412825
831.187902,296.082377,1184.329507,-10265.679673
831.188222,1110.308913,1406.391290,-9806.022374
831.188542,518.144159,1184.329507,-10342.289223
831.188862,148.041188,0.000000,-10342.289223
831.189182,1332.370696,-1776.494261,-10265.679673
831.189502,2442.679609,-2220.617826,-10265.679673
831.189822,2220.617826,-1628.453072,-10342.289223
831.190142,444.123565,888.247130,-10342.289223
831.190462,-296.082377,2590.720797,-11031.775171
831.190782,-814.226536,3330.926739,-10495.508323
831.191102,-2590.720797,1776.494261,-10801.946522
831.191422,-1924.535449,-740.205942,-10878.556072
831.191742,444.123565,-2960.823768,-10725.336972
831.192062,962.267725,-3923.091493,-10265.679673
831.192382,592.164754,-1480.411884,-10189.070123
831.192702,-370.102971,1332.370696,-9959.241474
831.193022,222.061783,3552.988522,-10725.336972
831.193342,1110.308913,3478.967927,-10572.117872
831.193662,740.205942,1332.370696,-10418.898773
831.193982,1036.288319,296.082377,-10342.289223
831.194302,1184.329507,-1628.453072,-9576.193725
831.194622,1702.473667,-1924.535449,-10342.289223
831.194942,1258.350101,-740.205942,-10112.460574
831.195262,222.061783,1258.350101,-9652.803275
831.195582,-222.061783,2590.720797,-10801.946522
831.195902,-1628.453072,3330.926739,-9882.631924
831.196222,-2072.576638,2516.700203,-10265.679673
831.196542,-1924.535449,0.000000,-9652.803275
831.196862,148.041188,-2812.782580,-9959.241474
831.197182,1258.350101,-2368.659014,-9729.412825
831.197502,666.185348,-2886.803174,-9652.803275
831.197822,-148.041188,-1184.329507,-9806.022374
831.198142,518.144159,2442.679609,-10035.851024
831.198462,-148.041188,4219.173869,-10801.946522
831.198782,-1036.288319,3849.070898,-9959.241474
831.199102,-74.020594,518.144159,-10418.898773
831.199422,1924.535449,-2146.597232,-10265.679673
831.199742,2368.659014,-3923.091493,-9959.241474
831.200062,1184.329507,-2072.576638,-9959.241474
831.200382,74.020594,740.205942,-10112.460574
831.200702,-592.164754,2590.720797,-10265.679673
831.201022,-1110.308913,2812.782580,-10265.679673
831.201342,-888.247130,1998.556043,-9806.022374
831.201662,-444.123565,0.000000,-10648.727422
831.201982,888.247130,-1776.494261,-10112.460574
831.202302,1258.350101,-1406.391290,-10189.070123
831.202622,148.041188,444.123565,-10265.679673
831.202942,1480.411884,2072.576638,-9806.022374
831.203262,1036.288319,2960.823768,-10265.679673
831.203582,-518.144159,1998.556043,-10035.851024
831.203902,-666.185348,1332.370696,-9882.631924
831.204222,962.267725,-444.123565,-9346.365076
831.204542,1924.535449,-1258.350101,-9806.022374
831.204862,2220.617826,-518.144159,-9882.631924
831.205182,2146.597232,1628.453072,-9959.241474
831.205502,1480.411884,2664.741391,-10342.289223
831.205822,-296.082377,2516.700203,-10648.727422
831.206142,-1776.494261,1850.514855,-9882.631924
831.206462,-1332.370696,296.082377,-9806.022374
831.206782,1628.453072,-1332.370696,-9882.631924
831.207102,3256.906145,-1406.391290,-10495.508323
831.207422,2146.597232,-740.205942,-9959.241474
831.207742,1850.514855,1332.370696,-9959.241474
831.208062,1480.411884,2368.659014,-10495.508323
831.208382,0.000000,2812.782580,-9806.022374
831.208702,-1184.329507,2590.720797,-9499.584175
831.209022,-814.226536,370.102971,-9959.241474
831.209342,2146.597232,-814.226536,-10418.898773
831.209662,2368.659014,-1036.288319,-10189.070123
831.209982,1998.556043,296.082377,-9806.022374
831.210302,2368.659014,1776.494261,-10418.898773
831.210622,2590.720797,2442.679609,-10342.289223
831.210942,1924.535449,1998.556043,-10342.289223
831.211262,370.102971,1110.308913,-9806.022374
831.211582,296.082377,-592.164754,-10801.946522
831.211902,222.061783,-1406.391290,-10112.460574
831.212222,-1332.370696,-1258.350101,-9959.241474
831.212542,-1184.329507,296.082377,-9422.974625
831.212862,518.144159,1628.453072,-8963.317327
831.213182,888.247130,1924.535449,-10189.070123
831.213502,-222.061783,222.061783,-10342.289223
831.213822,-592.164754,0.000000,-9729.412825
831.214142,222.061783,-1554.432478,-10342.289223
831.214462,1184.329507,-1332.370696,-10035.851024
831.214782,-814.226536,-222.061783,-10112.460574
831.215102,-1110.308913,1998.556043,-10189.070123
831.215422,0.000000,2146.597232,-10342.289223
831.215742,888.247130,2590.720797,-10189.070123
831.216062,-1258.350101,222.061783,-9959.241474
831.216382,-1036.288319,-1332.370696,-9652.803275
831.216702,0.000000,-3256.906145,-10112.460574
831.217022,518.144159,-2886.803174,-10878.556072
831.217342,0.000000,-2146.597232,-9729.412825
831.217662,0.000000,444.123565,-10112.460574
831.217982,592.164754,2738.761985,-10189.070123
831.218302,0.000000,2516.700203,-10495.508323
831.218622,-740.205942,666.185348,-9959.241474
831.218942,-740.205942,-1332.370696,-9959.241474
831.219262,1480.411884,-4145.153275,-10112.460574
831.219582,1332.370696,-3404.947333,-9806.022374
831.219902,296.082377,-518.144159,-9346.365076
831.220166,-148.041188,1998.556043,-10572.117872
831.220486,592.164754,4441.235652,-10418.898773
831.220806,74.020594,4071.132681,-11031.775171
831.221126,-222.061783,1110.308913,-9806.022374
831.221446,1554.432478,-1702.473667,-9806.022374
831.221766,3478.967927,-4145.153275,-10495.508323
831.222086,2516.700203,-4737.318029,-9652.803275
831.222406,1184.329507,-1628.453072,-9959.241474
831.222726,370.102971,1850.514855,-10189.070123
831.223046,1110.308913,3701.029710,-10495.508323
831.223366,296.082377,2960.823768,-10572.117872
831.223686,-370.102971,1110.308913,-9806.022374
831.224006,888.247130,-1998.556043,-10648.727422
831.224326,296.082377,-3404.947333,-10342.289223
831.224646,814.226536,-3330.926739,-9882.631924
831.224966,0.000000,-1258.350101,-9959.241474
831.225286,592.164754,1036.288319,-10265.679673
831.225606,148.041188,3701.029710,-10342.289223
831.225927,-1258.350101,3478.967927,-10342.289223
831.226247,-1036.288319,2442.679609,-10265.679673
831.226567,296.082377,-148.041188,-10572.117872
831.226887,814.226536,-1776.494261,-9882.631924
831.227207,296.082377,-1480.411884,-9806.022374
831.227527,74.020594,74.020594,-10035.851024
831.227847,444.123565,1554.432478,-10112.460574
831.228167,0.000000,2812.782580,-10035.851024
831.228487,-1036.288319,3256.906145,-9652.803275
831.228807,-1332.370696,1406.391290,-9729.412825
831.229127,888.247130,-518.144159,-9806.022374
831.229447,2072.576638,-1702.473667,-9806.022374
831.229767,2146.597232,-444.123565,-8810.098227
831.230087,1406.391290,1332.370696,-9422.974625
831.230407,888.247130,3256.906145,-10342.289223
831.230727,740.205942,2738.761985,-9959.241474
831.231047,296.082377,1628.453072,-9499.584175
831.231367,1258.350101,222.061783,-10955.165621
831.231687,1036.288319,-1406.391290,-9959.241474
831.232007,0.000000,-1110.308913,-10189.070123
831.232327,0.000000,1332.370696,-10035.851024
831.232647,888.247130,3552.988522,-12410.747068
831.232967,148.041188,4737.318029,-10648.727422
831.233287,0.000000,3478.967927,-10648.727422
831.233607,-1110.308913,1702.473667,-9959.241474
831.233928,518.144159,-1110.308913,-10648.727422
831.234248,2960.823768,-2590.720797,-9806.022374
831.234568,2960.823768,-1480.411884,-9806.022374
831.234888,2368.659014,1406.391290,-10189.070123
831.235208,2368.659014,4367.215058,-10955.165621
831.235528,1406.391290,4737.318029,-10725.336972
831.235848,-444.123565,3256.906145,-10112.460574
831.236168,-1628.453072,962.267725,-9652.803275
831.236488,-814.226536,-2738.761985,-9806.022374
831.236808,-296.082377,-4367.215058,-9729.412825
831.237128,0.000000,-3627.009116,-9039.926876
831.237448,296.082377,-1406.391290,-9806.022374
831.237768,1554.432478,1110.308913,-9959.241474
831.238088,2516.700203,2812.782580,-10342.289223
831.238408,2368.659014,3552.988522,-8810.098227
831.238728,2072.576638,1628.453072,-10189.070123
831.239048,2072.576638,-444.123565,-10189.070123
831.239368,1110.308913,-2220.617826,-9882.631924
831.239688,222.061783,-2664.741391,-9499.584175
831.240008,-296.082377,-1850.514855,-9729.412825
831.240328,-370.102971,0.000000,-9806.022374
831.240648,-1332.370696,1110.308913,-10265.679673
831.240968,-1702.473667,814.226536,-9882.631924
831.241288,-1036.288319,370.102971,-10495.508323
831.241609,0.000000,-1406.391290,-10418.898773
831.241929,814.226536,-1036.288319,-10035.851024
831.242249,518.144159,518.144159,-10035.851024
831.242569,1480.411884,1332.370696,-10725.336972
831.242889,2368.659014,1184.329507,-10648.727422
831.243209,1184.329507,0.000000,-10725.336972
831.243529,296.082377,-666.185348,-9806.022374
831.243849,1258.350101,-814.226536,-10955.165621
831.244169,2072.576638,-1036.288319,-10342.289223
831.244489,592.164754,0.000000,-10648.727422
831.244809,-148.041188,444.123565,-10189.070123
831.245129,0.000000,0.000000,-10112.460574
831.245449,-1036.288319,1036.288319,-9499.584175
831.245769,-1554.432478,0.000000,-10418.898773
831.246089,-1332.370696,1258.350101,-9806.022374
831.246409,518.144159,-370.102971,-10878.556072
831.246729,1850.514855,-1258.350101,-9729.412825
831.247049,962.267725,-1702.473667,-9729.412825
831.247369,222.061783,-666.185348,-9806.022374
831.247689,518.144159,1036.288319,-10112.460574
831.248009,0.000000,1702.473667,-10265.679673
831.248329,-888.247130,2220.617826,-10112.460574
831.248649,-740.205942,0.000000,-9806.022374
831.248969,1480.411884,-2368.659014,-9959.241474
831.249289,1184.329507,-3627.009116,-9346.365076
831.249610,74.020594,-2812.782580,-9346.365076
831.249930,518.144159,222.061783,-9806.022374
831.250250,1036.288319,1850.514855,-10112.460574
831.250570,370.102971,2812.782580,-10572.117872
831.250890,-1036.288319,2146.597232,-9652.803275
831.251210,-1332.370696,740.205942,-11644.651570
831.251530,0.000000,-962.267725,-10418.898773
831.251850,148.041188,-2294.638420,-10035.851024
831.252170,296.082377,-666.185348,-9806.022374
831.252490,592.164754,444.123565,-9806.022374
831.252810,1036.288319,1406.391290,-10878.556072
831.253130,518.144159,2368.659014,-10725.336972
831.253450,296.082377,1628.453072,-9959.241474
831.253770,1332.370696,888.247130,-11108.384721
831.254090,2812.782580,-592.164754,-10035.851024
831.254410,1332.370696,444.123565,-10342.289223
831.254730,1184.329507,1924.535449,-10189.070123
831.255050,2072.576638,2220.617826,-10035.851024
831.255370,2886.803174,2442.679609,-10725.336972
831.255690,1406.391290,1258.350101,-10035.851024
831.256010,-666.185348,592.164754,-9652.803275
831.256330,0.000000,-740.205942,-10265.679673
831.256650,1776.494261,-814.226536,-9652.803275
831.256970,962.267725,1332.370696,-10189.070123
831.257290,888.247130,1110.308913,-10189.070123
831.257611,1702.473667,2072.576638,-9882.631924
831.257931,1406.391290,2960.823768,-10572.117872
831.258251,740.205942,2442.679609,-9499.584175
831.258571,1406.391290,1480.411884,-10035.851024
831.258891,1110.308913,0.000000,-10035.851024
831.259211,74.020594,-888.247130,-9806.022374
831.259531,296.082377,-444.123565,-9729.412825
831.259851,-148.041188,814.226536,-10189.070123
831.260171,814.226536,1406.391290,-9806.022374
831.260491,592.164754,1702.473667,-9882.631924
831.260811,-444.123565,666.185348,-9806.022374
831.261131,148.041188,-296.082377,-11031.775171
831.261451,666.185348,-222.061783,-10572.117872
831.261771,-1110.308913,-740.205942,-10189.070123
831.262091,0.000000,740.205942,-9806.022374
831.262411,814.226536,1406.391290,-10265.679673
831.262731,962.267725,2220.617826,-10418.898773
831.263051,-814.226536,1036.288319,-10265.679673
831.263371,-962.267725,-296.082377,-9652.803275
831.263691,-148.041188,-1702.473667,-10035.851024
831.264011,666.185348,-2220.617826,-10648.727422
831.264331,0.000000,-1480.411884,-10035.851024
831.264651,0.000000,148.041188,-10189.070123
831.264971,814.226536,1110.308913,-10342.289223
831.265291,0.000000,1702.473667,-10342.289223
831.265612,-888.247130,0.000000,-9499.584175
831.265932,-1184.329507,148.041188,-9652.803275
831.266252,1776.494261,-1036.288319,-10572.117872
831.266572,2664.741391,-2442.679609,-10035.851024
831.266892,1628.453072,-2294.638420,-9729.412825
831.267212,888.247130,-962.267725,-9806.022374
831.267532,296.082377,222.061783,-9729.412825
831.267852,518.144159,1628.453072,-10418.898773
831.268172,-518.144159,1702.473667,-9499.584175
831.268492,0.000000,74.020594,-10265.679673
831.268812,1480.411884,-2072.576638,-10265.679673
831.269132,888.247130,-2738.761985,-9959.241474
831.269452,444.123565,-2072.576638,-9959.241474
831.269772,1110.308913,-148.041188,-10265.679673
831.270092,1776.494261,814.226536,-10112.460574
831.270412,1480.411884,1406.391290,-10801.946522
831.270732,-1184.329507,1110.308913,-9652.803275
831.271052,-444.123565,444.123565,-10801.946522
831.271372,962.267725,-1332.370696,-10648.727422
831.271692,1184.329507,-1480.411884,-10495.508323
831.272012,1184.329507,-1110.308913,-10725.336972
831.272332,1850.514855,-962.267725,-10112.460574
831.272652,1998.556043,74.020594,-10495.508323
831.272972,-1258.350101,1184.329507,-10495.508323
831.273292,-1628.453072,1332.370696,-10189.070123
831.273613,148.041188,0.000000,-11108.384721
831.273933,1184.329507,0.000000,-10265.679673
831.274253,222.061783,-1480.411884,-10342.289223
831.274573,-592.164754,-1850.514855,-9806.022374
831.274893,74.020594,0.000000,-10572.117872
831.275213,-222.061783,1036.288319,-9806.022374
831.275533,-1110.308913,1850.514855,-9576.193725
831.275853,-1036.288319,1480.411884,-9346.365076
831.276173,0.000000,444.123565,-10801.946522
831.276493,-592.164754,-1332.370696,-9729.412825
831.276813,-666.185348,-1628.453072,-9422.974625
831.277133,296.082377,-296.082377,-9269.755526
831.277453,1406.391290,962.267725,-9729.412825
831.277773,2072.576638,2294.638420,-9806.022374
831.278093,962.267725,2960.823768,-10035.851024
831.278413,-740.205942,2368.659014,-9729.412825
831.278733,148.041188,444.123565,-10112.460574
831.279053,-1184.329507,-888.247130,-9576.193725
831.279373,-740.205942,-518.144159,-9193.145976
831.279693,592.164754,592.164754,-9652.803275
831.280013,1776.494261,2146.597232,-9959.241474
831.280333,1702.473667,2516.700203,-10189.070123
831.280653,1258.350101,2516.700203,-9576.193725
831.280973,2368.659014,1924.535449,-10342.289223
831.281293,3627.009116,518.144159,-9882.631924
831.281614,2516.700203,0.000000,-10189.070123
831.281934,1184.329507,-370.102971,-10112.460574
831.282254,1332.370696,592.164754,-9882.631924
831.282574,2146.597232,3034.844362,-9576.193725
831.282894,1258.350101,3701.029710,-10495.508323
831.283214,-222.061783,3182.885551,-10265.679673
831.283534,814.226536,2072.576638,-11184.994271
831.283854,962.267725,222.061783,-10495.508323
831.284174,0.000000,-1110.308913,-10112.460574
831.284494,296.082377,-444.123565,-10112.460574
831.284814,1998.556043,592.164754,-10189.070123
831.285134,3108.864956,2590.720797,-10418.898773
831.285454,2294.638420,1628.453072,-10265.679673
831.285774,1406.391290,1406.391290,-9882.631924
831.286094,1850.514855,814.226536,-10572.117872
831.286414,518.144159,1036.288319,-10342.289223
831.286734,-518.144159,814.226536,-9576.193725
831.287054,370.102971,740.205942,-9959.241474
831.287374,592.164754,592.164754,-9806.022374
831.287694,-740.205942,-740.205942,-9806.022374
831.288014,-888.247130,-962.267725,-9422.974625
831.288334,-814.226536,1406.391290,-9806.022374
831.288654,0.000000,-444.123565,-9959.241474
831.288974,1332.370696,-888.247130,-9882.631924
831.289294,666.185348,-444.123565,-9422.974625
831.289615,666.185348,592.164754,-9576.193725
831.289935,666.185348,296.082377,-9806.022374
831.290255,-666.185348,444.123565,-9806.022374
831.290575,-370.102971,0.000000,-9729.412825
831.290895,0.000000,-1332.370696,-10189.070123
831.291215,1184.329507,-2146.597232,-10342.289223
831.291535,-444.123565,-1332.370696,-10035.851024
831.291855,-1332.370696,-222.061783,-9806.022374
831.292175,-740.205942,296.082377,-10495.508323
831.292495,148.041188,444.123565,-9652.803275
831.292815,-666.185348,-888.247130,-10572.117872
831.293135,-1036.288319,-888.247130,-10112.460574
831.293455,-518.144159,-1480.411884,-10572.117872
831.293775,1184.329507,-1036.288319,-10801.946522
831.294095,888.247130,0.000000,-10725.336972
831.294415,518.144159,444.123565,-10189.070123
831.294735,1554.432478,740.205942,-11031.775171
831.295055,888.247130,444.123565,-10418.898773
831.295375,-888.247130,296.082377,-11184.994271
831.295695,-666.185348,518.144159,-10112.460574
831.296015,666.185348,-888.247130,-10878.556072
831.296335,1406.391290,-1554.432478,-10189.070123
831.296655,592.164754,-2220.617826,-10648.727422
831.296975,-518.144159,-2220.617826,-10189.070123
831.297295,444.123565,-296.082377,-10189.070123
831.297616,-444.123565,1702.473667,-10035.851024
831.297936,-814.226536,1776.494261,-10418.898773
831.298256,0.000000,1036.288319,-10572.117872
831.298576,1998.556043,-1628.453072,-10189.070123
831.298896,1998.556043,-3330.926739,-9959.241474
831.299216,592.164754,-2368.659014,-9882.631924
831.299536,74.020594,-1406.391290,-9576.193725
831.299856,666.185348,888.247130,-10418.898773
831.300176,-592.164754,1036.288319,-9652.803275
831.300496,-1480.411884,1776.494261,-10035.851024
831.300816,-1036.288319,296.082377,-9729.412825
831.301136,1110.308913,-1480.411884,-10189.070123
831.301456,1406.391290,-1184.329507,-10189.070123
831.301776,1480.411884,-370.102971,-9806.022374
831.302096,2442.679609,592.164754,-10265.679673
831.302416,962.267725,1776.494261,-9806.022374
831.302736,-1110.308913,2072.576638,-10265.679673
831.303056,-2072.576638,2146.597232,-10265.679673
831.303376,-592.164754,1258.350101,-10495.508323
831.303696,444.123565,444.123565,-10418.898773
831.304016,0.000000,148.041188,-9346.365076
831.304336,222.061783,962.267725,-9882.631924
831.304656,1480.411884,2516.700203,-10801.946522
831.304976,740.205942,1554.432478,-9806.022374
831.305296,740.205942,2294.638420,-10342.289223
831.305617,1110.308913,814.226536,-9806.022374
831.305937,2368.659014,-518.144159,-10418.898773
831.306257,3108.864956,-444.123565,-9959.241474
831.306577,1628.453072,1332.370696,-10189.070123
831.306897,1480.411884,3330.926739,-10495.508323
831.307217,1776.494261,2960.823768,-10418.898773
831.307537,0.000000,3034.844362,-10648.727422
831.307857,-1776.494261,888.247130,-9576.193725
831.308177,666.185348,-962.267725,-9576.193725
831.308497,2886.803174,-1332.370696,-9882.631924
831.308817,2220.617826,-1332.370696,-9576.193725
831.309137,1332.370696,1258.350101,-10112.460574
831.309457,0.000000,2590.720797,-9882.631924
831.309777,1406.391290,2368.659014,-9729.412825
831.310097,1184.329507,2738.761985,-9806.022374
831.310417,222.061783,222.061783,-9269.755526
831.310737,592.164754,-1776.494261,-9959.241474
831.311057,1258.350101,-3182.885551,-9729.412825
831.311377,444.123565,-1924.535449,-10189.070123
831.311697,-592.164754,962.267725,-9499.584175
831.312017,0.000000,2368.659014,-9882.631924
831.312337,1258.350101,3404.947333,-10418.898773
831.312657,370.102971,2516.700203,-10418.898773
831.312977,-222.061783,444.123565,-9959.241474
831.313297,1480.411884,-2072.576638,-10418.898773
831.313618,518.144159,-2516.700203,-10112.460574
831.313938,-1036.288319,-2590.720797,-9346.365076
831.314258,-1480.411884,74.020594,-9806.022374
831.314578,-962.267725,2590.720797,-10572.117872
831.314898,-370.102971,3701.029710,-10342.289223
831.315218,0.000000,2516.700203,-10801.946522
831.315538,0.000000,74.020594,-10035.851024
831.315858,1924.535449,-1480.411884,-10648.727422
831.316178,2812.782580,-3034.844362,-10189.070123
831.316498,1850.514855,-2516.700203,-9882.631924
831.316818,222.061783,-518.144159,-9959.241474
831.317138,444.123565,2072.576638,-10725.336972
831.317458,-814.226536,2590.720797,-10418.898773
831.317778,-962.267725,1628.453072,-9806.022374
831.318098,296.082377,0.000000,-9882.631924
831.318418,1850.514855,-1480.411884,-10342.289223
831.318738,1554.432478,-2886.803174,-9806.022374
831.319058,666.185348,-2886.803174,-9499.584175
831.319378,148.041188,-962.267725,-9729.412825
831.319698,370.102971,222.061783,-9652.803275
831.320018,888.247130,1332.370696,-9806.022374
831.320338,814.226536,1110.308913,-9806.022374
831.320658,1850.514855,-370.102971,-9959.241474
831.320978,1554.432478,-148.041188,-9116.536426
831.321298,1110.308913,-740.205942,-10265.679673
831.321618,1184.329507,0.000000,-9806.022374
831.321938,1554.432478,518.144159,-10418.898773
831.322258,1258.350101,1628.453072,-10112.460574
831.322579,-148.041188,592.164754,-10265.679673
831.322899,-1332.370696,-1110.308913,-9729.412825
831.323219,-370.102971,-2368.659014,-10189.070123
831.323539,74.020594,-2368.659014,-10112.460574
831.323859,-518.144159,-1628.453072,-10265.679673
831.324179,-888.247130,666.185348,-9959.241474
831.324499,222.061783,3552.988522,-11108.384721
831.324819,0.000000,3552.988522,-11108.384721
831.325139,74.020594,2368.659014,-10878.556072
831.325459,0.000000,370.102971,-9729.412825
831.325779,148.041188,-888.247130,-10955.165621
831.326099,1406.391290,-1628.453072,-9806.022374
831.326419,1258.350101,-1406.391290,-10418.898773
831.326739,370.102971,-962.267725,-9729.412825
831.327059,0.000000,0.000000,-10112.460574
831.327379,-1776.494261,1776.494261,-9882.631924
831.327699,-1924.535449,2442.679609,-9959.241474
831.328019,-518.144159,2812.782580,-10035.851024
831.328339,592.164754,666.185348,-9729.412825
831.328659,222.061783,-814.226536,-9959.241474
831.328979,0.000000,-1628.453072,-9499.584175
831.329299,666.185348,74.020594,-9806.022374
831.329619,1554.432478,2072.576638,-9116.536426
831.329939,1332.370696,2664.741391,-9499.584175
831.330259,1850.514855,2590.720797,-10189.070123
831.330579,1406.391290,370.102971,-9806.022374
831.330899,2072.576638,-1110.308913,-10112.460574
831.331219,296.082377,-1702.473667,-9422.974625
831.331539,-444.123565,-444.123565,-9806.022374
831.331859,1258.350101,962.267725,-9959.241474
831.332179,2146.597232,3034.844362,-10342.289223
831.332499,1332.370696,3256.906145,-10648.727422
831.332819,1406.391290,1332.370696,-9652.803275
831.333139,1036.288319,0.000000,-10725.336972
831.333459,1998.556043,-962.267725,-10035.851024
831.333779,740.205942,-444.123565,-10189.070123
831.334100,-814.226536,296.082377,-10112.460574
831.334420,888.247130,740.205942,-10112.460574
831.334740,-222.061783,2960.823768,-10418.898773
831.335060,-1702.473667,3330.926739,-10418.898773
831.335380,-370.102971,2294.638420,-10189.070123
831.335700,2146.597232,740.205942,-10801.946522
831.336020,3478.967927,-1184.329507,-10342.289223
831.336340,2294.638420,-1702.473667,-9729.412825
831.336660,814.226536,-1702.473667,-9576.193725
831.336980,962.267725,74.020594,-9576.193725
831.337300,-962.267725,1110.308913,-9806.022374
831.337620,-1406.391290,962.267725,-9729.412825
831.337940,-740.205942,-1184.329507,-9806.022374
831.338260,592.164754,-2664.741391,-9576.193725
831.338580,518.144159,-1998.556043,-9959.241474
831.338900,0.000000,-1036.288319,-9652.803275
831.339220,1036.288319,666.185348,-10342.289223
831.339540,0.000000,1036.288319,-10265.679673
831.339860,-1184.329507,1036.288319,-10112.460574
831.340180,-2072.576638,-888.247130,-9576.193725
831.340500,-888.247130,-1036.288319,-9882.631924
831.340820,1184.329507,-1036.288319,-10648.727422
831.341140,2516.700203,74.020594,-10035.851024
831.341460,1850.514855,814.226536,-9882.631924
831.341780,3552.988522,2072.576638,-11184.994271
831.342100,1258.350101,2294.638420,-10189.070123
831.342420,-444.123565,1184.329507,-10572.117872
831.342740,-2368.659014,0.000000,-9576.193725
831.343060,-814.226536,-1998.556043,-10418.898773
831.343380,1554.432478,-2516.700203,-10035.851024
831.343700,1776.494261,-1776.494261,-10648.727422
831.344020,888.247130,444.123565,-11644.651570
831.344340,1258.350101,1924.535449,-10955.165621
831.344660,592.164754,3330.926739,-10418.898773
831.344980,-148.041188,2812.782580,-10725.336972
831.345301,-814.226536,592.164754,-9652.803275
831.345621,222.061783,-1924.535449,-10878.556072
831.345941,370.102971,-3256.906145,-9806.022374
831.346261,0.000000,-2072.576638,-9729.412825
831.346581,-148.041188,148.041188,-9882.631924
831.346901,1924.535449,2812.782580,-10495.508323
831.347221,222.061783,3775.050304,-10265.679673
831.347541,-1332.370696,2368.659014,-9729.412825
831.347861,-2516.700203,592.164754,-9806.022374
831.348181,-1850.514855,-1998.556043,-9729.412825
831.348501,-1332.370696,-3034.844362,-9576.193725
831.348821,-1184.329507,-2368.659014,-8810.098227
831.349141,1184.329507,-296.082377,-10342.289223
831.349461,1776.494261,2442.679609,-9806.022374
831.349781,2220.617826,3923.091493,-10725.336972
831.350101,2516.700203,3478.967927,-10035.851024
831.350421,3330.926739,1702.473667,-10725.336972
831.350741,2368.659014,-74.020594,-10418.898773
831.351061,-518.144159,-1702.473667,-9422.974625
831.351381,-740.205942,-1110.308913,-9882.631924
831.351701,-740.205942,222.061783,-10265.679673
831.352021,888.247130,2072.576638,-10648.727422
831.352341,740.205942,2664.741391,-10418.898773
831.352661,-148.041188,3701.029710,-10878.556072
831.352981,814.226536,3182.885551,-11184.994271
831.353301,1184.329507,1776.494261,-10572.117872
831.353621,0.000000,0.000000,-10265.679673
831.353941,296.082377,-592.164754,-10725.336972
831.354261,370.102971,-370.102971,-10112.460574
831.354581,592.164754,0.000000,-10112.460574
831.354901,1702.473667,1110.308913,-9806.022374
831.355221,2294.638420,1628.453072,-9652.803275
831.355541,2886.803174,1628.453072,-10955.165621
831.355861,3108.864956,-296.082377,-10035.851024
831.356181,1924.535449,-444.123565,-9652.803275
831.356501,296.082377,148.041188,-9576.193725
831.356822,740.205942,444.123565,-9806.022374
831.357142,-666.185348,148.041188,-9729.412825
831.357462,-592.164754,0.000000,-9729.412825
831.357782,444.123565,-1258.350101,-9652.803275
831.358102,3108.864956,-2368.659014,-10035.851024
831.358422,2664.741391,-2294.638420,-9806.022374
831.358742,814.226536,74.020594,-10189.070123
831.359062,0.000000,1702.473667,-10112.460574
831.359382,296.082377,1628.453072,-10495.508323
831.359702,-1110.308913,740.205942,-9806.022374
831.360022,-1184.329507,518.144159,-9806.022374
831.360342,-592.164754,-1332.370696,-10265.679673
831.360662,1332.370696,-2368.659014,-10648.727422
831.360982,1258.350101,-1406.391290,-10495.508323
831.361302,740.205942,-666.185348,-10265.679673
831.361622,666.185348,666.185348,-10342.289223
831.361942,1110.308913,1850.514855,-10648.727422
831.362262,-148.041188,1480.411884,-10801.946522
831.362582,-1332.370696,444.123565,-9882.631924
831.362902,-740.205942,-888.247130,-10878.556072
831.363222,-444.123565,-2590.720797,-10495.508323
831.363542,-148.041188,-1998.556043,-10035.851024
831.363862,-222.061783,740.205942,-10265.679673
831.364182,1110.308913,1184.329507,-10265.679673
831.364502,1258.350101,2590.720797,-10801.946522
831.364822,-666.185348,370.102971,-10265.679673
831.365142,-592.164754,-962.267725,-9806.022374
831.365462,0.000000,-3627.009116,-9882.631924
831.365782,1332.370696,-3404.947333,-10035.851024
831.366102,1036.288319,-1850.514855,-9806.022374
831.366422,1110.308913,888.247130,-10189.070123
831.366742,2072.576638,2960.823768,-10112.460574
831.367062,1480.411884,2442.679609,-9959.241474
831.367382,1036.288319,1258.350101,-10035.851024
831.367702,74.020594,-370.102971,-10112.460574
831.368022,1036.288319,-1998.556043,-9729.412825
831.368343,296.082377,-2442.679609,-9193.145976
831.368663,-1258.350101,-1628.453072,-9116.536426
831.368983,-1258.350101,666.185348,-9193.145976
831.369303,296.082377,1554.432478,-9959.241474
831.369623,2664.741391,2442.679609,-10189.070123
831.369943,1480.411884,1184.329507,-9959.241474
831.370263,666.185348,296.082377,-10189.070123
831.370583,-222.061783,-814.226536,-10189.070123
831.370903,-370.102971,0.000000,-9499.584175
831.371223,962.267725,814.226536,-10112.460574
831.371543,518.144159,1776.494261,-10572.117872
831.371863,-222.061783,1406.391290,-10418.898773
831.372183,-518.144159,1110.308913,-10572.117872
831.372503,-444.123565,1258.350101,-9422.974625
831.372823,814.226536,1036.288319,-11414.822920
831.373143,1332.370696,0.000000,-10342.289223
831.373463,148.041188,0.000000,-10495.508323
831.373783,-740.205942,518.144159,-10035.851024
831.374103,148.041188,888.247130,-10495.508323
831.374423,518.144159,1554.432478,-10112.460574
831.374743,-222.061783,2368.659014,-10342.289223
831.375063,-1628.453072,1258.350101,-9882.631924
831.375383,-296.082377,222.061783,-10342.289223
831.375703,1702.473667,-1036.288319,-10189.070123
831.376023,1406.391290,-1406.391290,-10035.851024
831.376343,-296.082377,1110.308913,-9806.022374
831.376663,1184.329507,2220.617826,-9193.145976
831.376983,962.267725,1554.432478,-9882.631924
831.377303,-444.123565,518.144159,-9116.536426
831.377623,-666.185348,1110.308913,-9959.241474
831.377943,1036.288319,296.082377,-9652.803275
831.378263,2368.659014,-1332.370696,-9959.241474
831.378583,1776.494261,-296.082377,-9576.193725
831.378903,740.205942,444.123565,-9576.193725
831.379223,1776.494261,1406.391290,-9882.631924
831.379543,444.123565,1554.432478,-9729.412825
831.379864,-222.061783,1332.370696,-9882.631924
831.380184,-1480.411884,370.102971,-9806.022374
831.380504,592.164754,-1110.308913,-9959.241474
831.380824,2664.741391,-1258.350101,-9806.022374
831.381144,2368.659014,-740.205942,-9806.022374
831.381464,2960.823768,592.164754,-10572.117872
831.381784,2738.761985,1184.329507,-10342.289223
831.382104,1776.494261,1998.556043,-10648.727422
831.382424,74.020594,1998.556043,-10112.460574
831.382744,296.082377,222.061783,-11031.775171
831.383064,1110.308913,-666.185348,-10725.336972
831.383384,592.164754,-444.123565,-10572.117872
831.383704,444.123565,1406.391290,-10342.289223
831.384024,1554.432478,592.164754,-10955.165621
831.384344,1406.391290,1406.391290,-10495.508323
831.384664,0.000000,1036.288319,-10572.117872
831.384984,-592.164754,1776.494261,-10495.508323
831.385304,-222.061783,296.082377,-12104.308868
831.385624,814.226536,-666.185348,-10801.946522
831.385944,222.061783,-1258.350101,-9806.022374
831.386264,0.000000,-148.041188,-9729.412825
831.386584,592.164754,0.000000,-10342.289223
831.386904,1110.308913,666.185348,-10801.946522
831.387224,-370.102971,814.226536,-9729.412825
831.387544,-1036.288319,-222.061783,-9882.631924
831.387864,74.020594,-1480.411884,-9499.584175
831.388184,-740.205942,-1406.391290,-9346.365076
831.388504,-1332.370696,-1258.350101,-9422.974625
831.388824,-222.061783,-962.267725,-8886.707777
831.389144,1628.453072,0.000000,-9729.412825
831.389464,1628.453072,666.185348,-9882.631924
831.389784,222.061783,-814.226536,-9422.974625
831.390104,-370.102971,-1924.535449,-9576.193725
831.390424,74.020594,-2368.659014,-9806.022374
831.390744,0.000000,-1184.329507,-9882.631924
831.391064,-518.144159,518.144159,-10035.851024
831.391385,-444.123565,1554.432478,-10418.898773
831.391705,888.247130,2368.659014,-10265.679673
831.392025,0.000000,1702.473667,-11414.822920
831.392345,-370.102971,592.164754,-9806.022374
831.392665,222.061783,-1110.308913,-11031.775171
831.392985,370.102971,-1776.494261,-10342.289223
831.393305,1702.473667,-740.205942,-10725.336972
831.393625,1332.370696,1776.494261,-10342.289223
831.393945,1554.432478,2590.720797,-10878.556072
831.394265,962.267725,3849.070898,-11338.213370
831.394585,-592.164754,3108.864956,-10725.336972
831.394905,-888.247130,2294.638420,-10265.679673
831.395225,1554.432478,148.041188,-10801.946522
831.395545,2442.679609,-1850.514855,-10189.070123
831.395865,962.267725,-2442.679609,-9959.241474
831.396185,222.061783,-2738.761985,-9806.022374
831.396505,666.185348,-962.267725,-9882.631924
831.396825,518.144159,2664.741391,-9806.022374
831.397145,-370.102971,3108.864956,-10189.070123
831.397465,296.082377,2738.761985,-9959.241474
831.397785,814.226536,814.226536,-10495.508323
831.398105,1406.391290,-1258.350101,-9729.412825
831.398425,-148.041188,-2368.659014,-9039.926876
831.398745,-222.061783,-1924.535449,-9346.365076
831.399065,74.020594,148.041188,-9652.803275
831.399385,0.000000,2146.597232,-9882.631924
831.399705,370.102971,2442.679609,-9729.412825
831.400025,1850.514855,1332.370696,-10112.460574
831.400345,2590.720797,222.061783,-9806.022374
831.400665,1406.391290,-74.020594,-10112.460574
831.400985,222.061783,370.102971,-9729.412825
831.401305,592.164754,1480.411884,-10342.289223
831.401625,444.123565,2442.679609,-10112.460574
831.401945,-296.082377,444.123565,-10418.898773
831.402265,444.123565,-1332.370696,-9882.631924
831.402585,1628.453072,-1628.453072,-10495.508323
831.402906,1776.494261,0.000000,-10265.679673
831.403226,666.185348,1628.453072,-10495.508323
831.403546,-370.102971,3034.844362,-10189.070123
831.403866,1036.288319,2368.659014,-10572.117872
831.404186,518.144159,1554.432478,-10418.898773
831.404506,-296.082377,-370.102971,-10418.898773
831.404826,-962.267725,-1924.535449,-9806.022374
831.405146,888.247130,-1924.535449,-10189.070123
831.405466,1998.556043,-444.123565,-10189.070123
831.405786,1776.494261,1036.288319,-10265.679673
831.406106,444.123565,2368.659014,-9959.241474
831.406426,370.102971,2738.761985,-10801.946522
831.406746,962.267725,1628.453072,-10189.070123
831.407066,666.185348,814.226536,-10112.460574
831.407386,1184.329507,-1184.329507,-10189.070123
831.407706,2072.576638,-2590.720797,-9806.022374
831.408026,1184.329507,-2738.761985,-8886.707777
831.408346,0.000000,-1776.494261,-9576.193725
831.408666,-666.185348,666.185348,-9806.022374
831.408986,-666.185348,2146.597232,-9806.022374
831.409306,-370.102971,1332.370696,-9959.241474
831.409626,222.061783,-518.144159,-9576.193725
831.409946,1480.411884,-2664.741391,-10572.117872
831.410266,2368.659014,-2960.823768,-9806.022374
831.410586,740.205942,-2590.720797,-9882.631924
831.410906,-666.185348,0.000000,-10112.460574
831.411226,-740.205942,1554.432478,-9806.022374
831.411546,370.102971,2220.617826,-10189.070123
831.411866,962.267725,1480.411884,-10648.727422
831.412186,666.185348,-592.164754,-10265.679673
831.412506,1258.350101,-1554.432478,-10878.556072
831.412826,1332.370696,-1554.432478,-10112.460574
831.413146,1036.288319,-962.267725,-10112.460574
831.413466,666.185348,1036.288319,-10265.679673
831.413786,962.267725,1406.391290,-10189.070123
831.414106,0.000000,1406.391290,-10418.898773
831.414427,-1110.308913,0.000000,-10418.898773
831.414747,-444.123565,-1332.370696,-9652.803275
831.415067,1110.308913,-1406.391290,-9882.631924
831.415387,1110.308913,-1628.453072,-9806.022374
831.415707,0.000000,-814.226536,-10189.070123
831.416027,148.041188,0.000000,-9729.412825
831.416347,888.247130,1036.288319,-10112.460574
831.416667,888.247130,1702.473667,-9576.193725
831.416987,592.164754,592.164754,-9959.241474
831.417307,814.226536,-518.144159,-9652.803275
831.417627,1924.535449,-1258.350101,-10418.898773
831.417947,1406.391290,-1184.329507,-10035.851024
831.418267,222.061783,-222.061783,-10112.460574
831.418587,74.020594,1480.411884,-9806.022374
831.418907,370.102971,2590.720797,-10035.851024
831.419227,-370.102971,2442.679609,-10265.679673
831.419547,-1184.329507,1628.453072,-9806.022374
831.419867,74.020594,-148.041188,-10342.289223
831.420187,1628.453072,-370.102971,-10265.679673
831.420507,1036.288319,-666.185348,-10112.460574
831.420827,0.000000,962.267725,-11261.603821
831.421147,0.000000,2738.761985,-10112.460574
831.421467,1036.288319,3997.112087,-10189.070123
831.421787,222.061783,2516.700203,-10801.946522
831.422107,0.000000,740.205942,-10035.851024
831.422427,0.000000,-1480.411884,-11261.603821
831.422747,-814.226536,-2072.576638,-9882.631924
831.423067,-814.226536,-962.267725,-9959.241474
831.423387,-518.144159,1406.391290,-10035.851024
831.423707,962.267725,2812.782580,-10342.289223
831.424027,740.205942,3775.050304,-10801.946522
831.424347,74.020594,3256.906145,-10648.727422
831.424667,222.061783,1036.288319,-10112.460574
831.424987,222.061783,-1332.370696,-10035.851024
831.425307,1628.453072,-2886.803174,-9576.193725
831.425627,888.247130,-1776.494261,-9422.974625
831.425947,222.061783,74.020594,-9882.631924
831.426267,-296.082377,1998.556043,-10035.851024
831.426587,-1998.556043,3330.926739,-10189.070123
831.426907,-1332.370696,2738.761985,-9882.631924
831.427227,296.082377,1628.453072,-10035.851024
831.427547,2368.659014,-148.041188,-10112.460574
831.427867,2886.803174,-1702.473667,-9576.193725
831.428187,1406.391290,-1332.370696,-9652.803275
831.428507,370.102971,148.041188,-9729.412825
831.428827,1036.288319,2146.597232,-10035.851024
831.429147,-222.061783,2960.823768,-10265.679673
831.429467,-296.082377,1110.308913,-10495.508323
831.429787,370.102971,148.041188,-10112.460574
831.430107,2664.741391,-1184.329507,-9882.631924
831.430427,3256.906145,-1554.432478,-10189.070123
831.430747,2664.741391,-814.226536,-10035.851024
831.431067,1702.473667,740.205942,-10572.117872
831.431387,1258.350101,2220.617826,-10418.898773
831.431707,814.226536,2072.576638,-10265.679673
831.432027,148.041188,1184.329507,-10572.117872
831.432347,888.247130,-74.020594,-9806.022374
831.432667,1258.350101,-1036.288319,-10265.679673
831.432987,1332.370696,-1184.329507,-10035.851024
831.433307,1332.370696,148.041188,-9806.022374
831.433627,1480.411884,666.185348,-10189.070123
831.433947,666.185348,370.102971,-9959.241474
831.434267,-518.144159,-518.144159,-10189.070123
831.434587,-518.144159,-1258.350101,-9882.631924
831.434907,-222.061783,-1480.411884,-10189.070123
831.435227,0.000000,-1110.308913,-10112.460574
831.435547,74.020594,0.000000,-9882.631924
831.435867,592.164754,1036.288319,-10112.460574
831.436187,962.267725,1406.391290,-10342.289223
831.436507,222.061783,962.267725,-10189.070123
831.436827,-1184.329507,-666.185348,-9959.241474
831.437147,-1406.391290,-1702.473667,-9652.803275
831.437467,370.102971,-2368.659014,-10035.851024
831.437787,296.082377,-1776.494261,-10265.679673
831.438107,-814.226536,-740.205942,-9806.022374
831.438427,-518.144159,666.185348,-10035.851024
831.438747,1184.329507,1036.288319,-10342.289223
831.439067,370.102971,1184.329507,-10878.556072
831.439387,-1480.411884,-296.082377,-9959.241474
831.439707,-2072.576638,-1628.453072,-9959.241474
831.440027,148.041188,-1480.411884,-10495.508323
831.440347,1480.411884,-296.082377,-10648.727422
831.440667,888.247130,1924.535449,-10342.289223
831.440987,296.082377,2072.576638,-10418.898773
831.441307,666.185348,1702.473667,-10342.289223
831.441627,666.185348,1480.411884,-10878.556072
831.441947,592.164754,222.061783,-9959.241474
831.442267,2516.700203,-1554.432478,-9959.241474
831.442587,2738.761985,-2220.617826,-10495.508323
831.442907,1628.453072,-1406.391290,-9882.631924
831.443227,222.061783,888.247130,-9652.803275
831.443547,74.020594,2146.597232,-9882.631924
831.443867,666.185348,2368.659014,-9806.022374
831.444187,-370.102971,2294.638420,-9806.022374
831.444507,0.000000,814.226536,-9499.584175
831.444827,2368.659014,-1332.370696,-9882.631924
831.445147,2590.720797,-2220.617826,-9116.536426
831.445467,296.082377,-2886.803174,-9269.755526
831.445787,-518.144159,-1110.308913,-9269.755526
831.446107,518.144159,1924.535449,-9806.022374
831.446427,0.000000,4219.173869,-10265.679673
831.446747,-370.102971,3997.112087,-9959.241474
831.447067,-592.164754,1998.556043,-10189.070123
831.447387,1776.494261,-2368.659014,-10495.508323
831.447707,1480.411884,-1998.556043,-9959.241474
831.448027,-222.061783,-1036.288319,-10265.679673
831.448347,-222.061783,1998.556043,-10265.679673
831.448667,-296.082377,3404.947333,-10418.898773
831.448987,-1406.391290,4145.153275,-10418.898773
831.449307,-2960.823768,1628.453072,-9882.631924
831.449627,-1628.453072,-222.061783,-10418.898773
831.449947,1776.494261,-1406.391290,-10572.117872
