#time,accel_x,accel_y,accel_z
819.330056,518.144159,0.000000,-10035.851024
819.330376,444.123565,0.000000,-9882.631924
819.330696,518.144159,148.041188,-9806.022374
819.331016,518.144159,740.205942,-9959.241474
819.331336,296.082377,1184.329507,-10112.460574
819.331656,444.123565,444.123565,-9959.241474
819.331975,666.185348,0.000000,-9959.241474
819.332295,592.164754,-148.041188,-10189.070123
819.332615,814.226536,-222.061783,-9882.631924
819.332935,444.123565,370.102971,-10112.460574
819.333255,444.123565,888.247130,-10112.460574
819.333575,518.144159,888.247130,-9346.365076
819.333895,444.123565,518.144159,-10112.460574
819.334215,370.102971,0.000000,-10112.460574
819.334535,444.123565,-444.123565,-10035.851024
819.334854,296.082377,0.000000,-10265.679673
819.335174,592.164754,0.000000,-10112.460574
819.335494,592.164754,444.123565,-9959.241474
819.335814,518.144159,962.267725,-10112.460574
819.336134,962.267725,814.226536,-10189.070123
819.336454,1036.288319,296.082377,-10189.070123
819.336774,148.041188,-444.123565,-10112.460574
819.337094,222.061783,-592.164754,-9806.022374
819.337413,370.102971,0.000000,-10112.460574
819.337733,592.164754,370.102971,-10342.289223
819.338053,74.020594,518.144159,-9882.631924
819.338373,444.123565,74.020594,-9959.241474
819.338693,666.185348,74.020594,-10035.851024
819.339013,740.205942,-444.123565,-10265.679673
819.339333,296.082377,0.000000,-11491.432470
819.339653,148.041188,0.000000,-10189.070123
819.339972,444.123565,0.000000,-9806.022374
819.340292,666.185348,-148.041188,-9959.241474
819.340612,0.000000,-370.102971,-10265.679673
819.340932,-444.123565,-666.185348,-10342.289223
819.341252,0.000000,-888.247130,-10265.679673
819.341572,592.164754,-888.247130,-9806.022374
819.341892,74.020594,-222.061783,-9959.241474
819.342212,-1110.308913,0.000000,-9959.241474
819.342532,-444.123565,-592.164754,-9959.241474
819.342851,74.020594,-814.226536,-9959.241474
819.343171,-666.185348,-962.267725,-10189.070123
819.343491,-1184.329507,-1628.453072,-9882.631924
819.343811,-1258.350101,-1628.453072,-9959.241474
819.344131,-518.144159,-1480.411884,-9959.241474
819.344451,-1258.350101,-1258.350101,-9806.022374
819.344771,-2294.638420,-1554.432478,-10342.289223
819.345091,-1850.514855,-1702.473667,-9882.631924
819.345410,-740.205942,-1776.494261,-10035.851024
819.345730,-666.185348,-1480.411884,-10035.851024
819.346050,-1554.432478,-1850.514855,-10112.460574
819.346370,-1776.494261,-2072.576638,-9959.241474
819.346690,-962.267725,-1924.535449,-9806.022374
819.347010,-962.267725,-1036.288319,-10265.679673
819.347330,-1776.494261,-1332.370696,-10112.460574
819.347650,-3108.864956,-2294.638420,-10265.679673
819.347969,-3552.988522,-2664.741391,-9806.022374
819.348289,-2812.782580,-3182.885551,-10189.070123
819.348609,-2368.659014,-3182.885551,-9882.631924
819.348929,-2664.741391,-3034.844362,-10112.460574
819.349249,-2590.720797,-2886.803174,-9882.631924
819.349569,-1628.453072,-2664.741391,-10112.460574
819.349889,148.041188,-1998.556043,-10112.460574
819.350209,518.144159,-1332.370696,-10189.070123
819.350528,-148.041188,-1184.329507,-10725.336972
819.350848,-1776.494261,-888.247130,-11031.775171
819.351168,-2886.803174,-1406.391290,-10035.851024
819.351488,-4515.256246,-2072.576638,-10035.851024
819.351808,-5477.523971,-3182.885551,-9576.193725
819.352128,-5329.482782,-4811.338623,-9652.803275
819.352448,-3552.988522,-5551.544565,-9422.974625
819.352768,-1036.288319,-4737.318029,-9959.241474
819.353088,740.205942,-3552.988522,-10342.289223
819.353407,1332.370696,-1406.391290,-10189.070123
819.353727,1702.473667,888.247130,-10418.898773
819.354047,2664.741391,1924.535449,-10342.289223
819.354367,2664.741391,2072.576638,-10878.556072
819.354687,1258.350101,740.205942,-10418.898773
819.355007,-740.205942,-1184.329507,-10265.679673
819.355327,-2368.659014,-2664.741391,-9882.631924
819.355647,-4441.235652,-3256.906145,-9806.022374
819.355966,-5181.441594,-4663.297435,-9346.365076
819.356286,-4737.318029,-5255.462188,-9116.536426
819.356606,-1702.473667,-5329.482782,-9499.584175
819.356926,1036.288319,-3997.112087,-9806.022374
819.357246,2072.576638,-2072.576638,-10189.070123
819.357566,2664.741391,888.247130,-9959.241474
819.357886,3701.029710,3182.885551,-11184.994271
819.358206,4589.276840,3404.947333,-11261.603821
819.358525,2220.617826,2516.700203,-11184.994271
819.358845,-2220.617826,370.102971,-10418.898773
819.359165,-5847.626942,-1998.556043,-9346.365076
819.359485,-6439.791695,-4737.318029,-9806.022374
819.359805,-4737.318029,-6365.771101,-9806.022374
819.360125,-3552.988522,-7254.018232,-9116.536426
819.360445,-2960.823768,-6291.750507,-9116.536426
819.360765,-1332.370696,-2072.576638,-10112.460574
819.361085,1036.288319,1332.370696,-10342.289223
819.361404,1924.535449,3478.967927,-11031.775171
819.361724,1776.494261,4737.318029,-10725.336972
819.362044,1776.494261,3182.885551,-10342.289223
819.362364,1480.411884,1036.288319,-10878.556072
819.362684,-296.082377,-1110.308913,-10418.898773
819.363004,-3478.967927,-2960.823768,-10035.851024
819.363324,-5107.421000,-4071.132681,-9576.193725
819.363644,-5551.544565,-4441.235652,-9729.412825
819.363963,-7402.059420,-5107.421000,-9346.365076
819.364283,-7402.059420,-6217.729913,-8733.488677
819.364603,-4959.379811,-5255.462188,-9116.536426
819.364923,-444.123565,-4293.194464,-10725.336972
819.365243,2960.823768,-814.226536,-10265.679673
819.365563,3182.885551,2368.659014,-10265.679673
819.365883,1998.556043,3256.906145,-10495.508323
819.366203,1332.370696,3108.864956,-10342.289223
819.366522,1480.411884,1258.350101,-10801.946522
819.366842,222.061783,-1406.391290,-10725.336972
819.367162,-3034.844362,-3923.091493,-10648.727422
819.367482,-5403.503377,-5699.585753,-10342.289223
819.367802,-7994.224174,-4737.318029,-9959.241474
819.368122,-7920.203579,-4441.235652,-9576.193725
819.368442,-6217.729913,-3404.947333,-9729.412825
819.368762,-2368.659014,-3849.070898,-9576.193725
819.369082,1406.391290,-3775.050304,-10112.460574
819.369401,2368.659014,-2812.782580,-10725.336972
819.369721,2812.782580,-1332.370696,-10648.727422
819.370041,3775.050304,888.247130,-10648.727422
819.370361,4293.194464,2590.720797,-10955.165621
819.370681,3775.050304,3404.947333,-10725.336972
819.371001,444.123565,1480.411884,-11184.994271
819.371321,-3701.029710,-1480.411884,-10648.727422
819.371641,-6809.894666,-5625.565159,-9806.022374
819.371960,-7846.182985,-8808.450710,-8733.488677
819.372280,-6883.915261,-9252.574275,-8656.879127
819.372600,-4959.379811,-7994.224174,-9193.145976
819.372920,-3404.947333,-5699.585753,-9193.145976
819.373240,-1406.391290,-2738.761985,-9806.022374
819.373560,1332.370696,370.102971,-9806.022374
819.373880,5847.626942,2368.659014,-10878.556072
819.374200,8142.265362,3478.967927,-11261.603821
819.374519,3923.091493,2664.741391,-10955.165621
819.374839,-888.247130,296.082377,-9882.631924
819.375159,-2886.803174,-1628.453072,-9959.241474
819.375479,-2220.617826,-3701.029710,-10035.851024
819.375799,-3849.070898,-4737.318029,-9959.241474
819.376119,-7624.121203,-5921.647536,-9499.584175
819.376439,-7698.141797,-5329.482782,-9422.974625
819.376759,-3108.864956,-3256.906145,-10112.460574
819.377079,666.185348,-1184.329507,-10342.289223
819.377398,888.247130,1258.350101,-10878.556072
819.377718,740.205942,1998.556043,-10725.336972
819.378038,2664.741391,2072.576638,-10265.679673
819.378358,4811.338623,2812.782580,-10801.946522
819.378678,5033.400406,3404.947333,-11414.822920
819.378998,3034.844362,2220.617826,-11108.384721
819.379318,222.061783,-740.205942,-10189.070123
819.379638,-2368.659014,-2516.700203,-9652.803275
819.379957,-3478.967927,-4071.132681,-9806.022374
819.380277,-4145.153275,-3627.009116,-9806.022374
819.380597,-3849.070898,-1702.473667,-9576.193725
819.380917,-2072.576638,-1110.308913,-9116.536426
819.381237,592.164754,148.041188,-10112.460574
819.381557,3108.864956,666.185348,-9959.241474
819.381877,5181.441594,2368.659014,-9959.241474
819.382197,5995.668130,5181.441594,-10495.508323
819.382516,4959.379811,6143.709319,-11414.822920
819.382836,2960.823768,4515.256246,-10265.679673
819.383156,148.041188,1258.350101,-9806.022374
819.383476,-740.205942,-370.102971,-9116.536426
819.383796,0.000000,-2220.617826,-9806.022374
819.384116,-888.247130,-4071.132681,-10112.460574
819.384436,-2220.617826,-4293.194464,-9116.536426
819.384756,-1702.473667,-2960.823768,-9806.022374
819.385076,2146.597232,1480.411884,-9576.193725
819.385395,4663.297435,5329.482782,-10801.946522
819.385715,3701.029710,6143.709319,-11108.384721
819.386035,0.000000,4811.338623,-10801.946522
819.386355,-222.061783,1998.556043,-9806.022374
819.386675,1332.370696,0.000000,-10189.070123
819.386995,2072.576638,0.000000,-10112.460574
819.387315,-740.205942,-740.205942,-9959.241474
819.387635,-962.267725,814.226536,-11031.775171
819.387954,-666.185348,0.000000,-10342.289223
819.388274,-1406.391290,-370.102971,-10265.679673
819.388595,-2664.741391,0.000000,-9576.193725
819.388915,-2812.782580,-296.082377,-9499.584175
819.389235,1924.535449,0.000000,-9882.631924
819.389555,3701.029710,740.205942,-9882.631924
819.389875,2220.617826,1628.453072,-10035.851024
819.390195,518.144159,1628.453072,-10189.070123
819.390515,1776.494261,2220.617826,-10035.851024
819.390835,1850.514855,2442.679609,-10495.508323
819.391155,0.000000,1480.411884,-9959.241474
819.391475,-3034.844362,-1406.391290,-9499.584175
819.391795,-2368.659014,-3849.070898,-9499.584175
819.392115,-1036.288319,-2886.803174,-9806.022374
819.392435,-814.226536,-1850.514855,-9806.022374
819.392755,-592.164754,-962.267725,-9576.193725
819.393075,1628.453072,370.102971,-9806.022374
819.393396,4367.215058,1776.494261,-10112.460574
819.393716,3404.947333,2220.617826,-10725.336972
819.394036,888.247130,1332.370696,-10342.289223
819.394356,296.082377,0.000000,-9959.241474
819.394676,2442.679609,0.000000,-10648.727422
819.394996,2220.617826,1036.288319,-10955.165621
819.395316,0.000000,0.000000,-10648.727422
819.395636,-1036.288319,148.041188,-10112.460574
819.395956,-1406.391290,0.000000,-10342.289223
819.396276,-518.144159,-962.267725,-9806.022374
819.396596,-370.102971,-2590.720797,-10112.460574
819.396916,-2442.679609,-3256.906145,-9806.022374
819.397236,-1776.494261,-2590.720797,-9959.241474
819.397556,888.247130,74.020594,-10801.946522
819.397876,3997.112087,1554.432478,-10342.289223
819.398197,4219.173869,2220.617826,-10342.289223
819.398517,5403.503377,1702.473667,-10572.117872
819.398837,4737.318029,1406.391290,-10878.556072
819.399157,592.164754,-444.123565,-10495.508323
819.399477,-2886.803174,-1406.391290,-10035.851024
819.399797,-3404.947333,-3256.906145,-9269.755526
819.400117,-2590.720797,-4515.256246,-9806.022374
819.400437,-2442.679609,-3108.864956,-8886.707777
819.400757,-2590.720797,-2960.823768,-9269.755526
819.401077,-740.205942,-1036.288319,-10112.460574
819.401397,1332.370696,814.226536,-10112.460574
819.401717,1480.411884,2442.679609,-10418.898773
819.402037,1702.473667,2220.617826,-10035.851024
819.402357,2072.576638,1258.350101,-10189.070123
819.402677,2072.576638,-740.205942,-10265.679673
819.402998,1184.329507,-1184.329507,-10418.898773
819.403318,-814.226536,-222.061783,-9882.631924
819.403638,-666.185348,222.061783,-10342.289223
819.403958,1332.370696,148.041188,-10342.289223
819.404278,296.082377,-1406.391290,-10189.070123
819.404598,-3034.844362,-962.267725,-10189.070123
819.404918,-5033.400406,-1850.514855,-9652.803275
819.405238,-2590.720797,-814.226536,-10035.851024
819.405558,222.061783,592.164754,-10418.898773
819.405878,1480.411884,2442.679609,-10342.289223
819.406198,3182.885551,3034.844362,-10342.289223
819.406518,4219.173869,2812.782580,-10878.556072
819.406838,4367.215058,3404.947333,-11568.042020
819.407158,1406.391290,2886.803174,-10801.946522
819.407478,-1184.329507,2812.782580,-10342.289223
819.407799,74.020594,1554.432478,-10112.460574
819.408119,1332.370696,444.123565,-10342.289223
819.408439,-222.061783,-962.267725,-10112.460574
819.408759,-1998.556043,-666.185348,-9576.193725
819.409079,-444.123565,-148.041188,-9806.022374
819.409399,3478.967927,296.082377,-10112.460574
819.409719,2590.720797,1332.370696,-9576.193725
819.410039,148.041188,1702.473667,-9652.803275
819.410359,888.247130,740.205942,-9806.022374
819.410679,2812.782580,296.082377,-9806.022374
819.410999,2516.700203,518.144159,-10035.851024
819.411319,0.000000,74.020594,-9422.974625
819.411639,-148.041188,-518.144159,-9576.193725
819.411959,2738.761985,-518.144159,-10648.727422
819.412279,2664.741391,-370.102971,-9806.022374
819.412600,148.041188,-370.102971,-9959.241474
819.412920,-1480.411884,-370.102971,-9499.584175
819.413240,-592.164754,-888.247130,-9039.926876
819.413560,222.061783,0.000000,-10725.336972
819.413880,0.000000,1036.288319,-9346.365076
819.414200,148.041188,0.000000,-10035.851024
819.414520,2442.679609,296.082377,-10495.508323
819.414840,4293.194464,2664.741391,-9959.241474
819.415160,1406.391290,2220.617826,-11108.384721
819.415480,-2294.638420,1924.535449,-9959.241474
819.415800,-2146.597232,444.123565,-9882.631924
819.416120,-666.185348,148.041188,-9959.241474
819.416440,74.020594,148.041188,-10189.070123
819.416760,-1480.411884,-370.102971,-10112.460574
819.417080,-518.144159,-888.247130,-10572.117872
819.417401,1406.391290,0.000000,-10572.117872
819.417721,1332.370696,814.226536,-10342.289223
819.418041,592.164754,740.205942,-9959.241474
819.418361,444.123565,0.000000,-10265.679673
819.418681,1702.473667,0.000000,-10035.851024
819.419001,74.020594,888.247130,-10112.460574
819.419321,-444.123565,444.123565,-9652.803275
819.419641,814.226536,814.226536,-10035.851024
819.419961,1776.494261,148.041188,-10189.070123
819.420281,1332.370696,-666.185348,-9882.631924
819.420601,-1184.329507,-1036.288319,-9806.022374
819.420921,-1702.473667,-1924.535449,-9576.193725
819.421241,370.102971,-1924.535449,-9576.193725
819.421561,1036.288319,-1110.308913,-10342.289223
819.421881,1480.411884,-888.247130,-9346.365076
819.422202,148.041188,-518.144159,-9652.803275
819.422522,2220.617826,0.000000,-10189.070123
819.422842,3775.050304,1036.288319,-10725.336972
819.423162,2368.659014,1850.514855,-10189.070123
819.423482,222.061783,1924.535449,-10112.460574
819.423802,-444.123565,370.102971,-10189.070123
819.424122,518.144159,-370.102971,-9806.022374
819.424442,-222.061783,-962.267725,-10112.460574
819.424762,-1776.494261,-1036.288319,-9422.974625
819.425082,-1110.308913,-1776.494261,-9729.412825
819.425402,1036.288319,-1036.288319,-10418.898773
819.425722,888.247130,148.041188,-10265.679673
819.426042,-814.226536,1258.350101,-10342.289223
819.426362,-592.164754,1850.514855,-10035.851024
819.426682,1850.514855,1776.494261,-10648.727422
819.427003,2442.679609,222.061783,-10725.336972
819.427323,0.000000,740.205942,-10189.070123
819.427643,-1036.288319,1036.288319,-10342.289223
819.427963,1036.288319,0.000000,-10572.117872
819.428283,1480.411884,148.041188,-10342.289223
819.428603,-1480.411884,518.144159,-10418.898773
819.428923,-3552.988522,0.000000,-11644.651570
819.429243,-1702.473667,-1332.370696,-10112.460574
819.429563,0.000000,-1332.370696,-10648.727422
819.429883,-814.226536,0.000000,-9806.022374
819.430203,-1184.329507,666.185348,-10189.070123
819.430523,1184.329507,1184.329507,-10801.946522
819.430843,3923.091493,1702.473667,-10648.727422
819.431163,1406.391290,1406.391290,-10035.851024
819.431483,-814.226536,666.185348,-9806.022374
819.431804,-888.247130,296.082377,-9269.755526
819.432124,444.123565,814.226536,-10418.898773
819.432444,666.185348,74.020594,-9652.803275
819.432764,-592.164754,-1184.329507,-9269.755526
819.433084,-888.247130,-1110.308913,-9499.584175
819.433404,2590.720797,0.000000,-9882.631924
819.433724,3330.926739,740.205942,-10189.070123
819.434044,2294.638420,1332.370696,-9729.412825
819.434364,1406.391290,1998.556043,-9806.022374
819.434684,962.267725,3478.967927,-9882.631924
819.435004,2590.720797,2812.782580,-10572.117872
819.435324,1850.514855,1776.494261,-9959.241474
819.435644,1110.308913,74.020594,-9806.022374
819.435964,1998.556043,-222.061783,-10189.070123
819.436284,1332.370696,666.185348,-10189.070123
819.436605,296.082377,1998.556043,-10418.898773
819.436925,-1184.329507,1406.391290,-10418.898773
819.437245,666.185348,1184.329507,-10342.289223
819.437565,2886.803174,740.205942,-11414.822920
819.437885,2146.597232,1110.308913,-10495.508323
819.438205,2294.638420,740.205942,-10035.851024
819.438525,3404.947333,1406.391290,-10572.117872
819.438845,3997.112087,2590.720797,-10112.460574
819.439165,1332.370696,2294.638420,-10648.727422
819.439485,-1554.432478,1036.288319,-9959.241474
819.439805,-666.185348,74.020594,-9959.241474
819.440125,296.082377,-666.185348,-10112.460574
819.440445,-222.061783,-148.041188,-9422.974625
819.440765,-1924.535449,0.000000,-9346.365076
819.441085,-1480.411884,-370.102971,-9576.193725
819.441406,1406.391290,0.000000,-10112.460574
819.441726,1628.453072,518.144159,-9499.584175
819.442046,-1036.288319,666.185348,-9499.584175
819.442366,-518.144159,296.082377,-9576.193725
819.442686,2220.617826,0.000000,-9729.412825
819.443006,2072.576638,222.061783,-9959.241474
819.443326,518.144159,444.123565,-9422.974625
819.443646,-370.102971,0.000000,-9729.412825
819.443966,296.082377,-370.102971,-10035.851024
819.444286,518.144159,0.000000,-10189.070123
819.444606,-1850.514855,-148.041188,-9882.631924
819.444926,-3182.885551,-370.102971,-9959.241474
819.445246,-1110.308913,-1258.350101,-9729.412825
819.445566,370.102971,-1332.370696,-10189.070123
819.445886,0.000000,-1036.288319,-9882.631924
819.446207,-740.205942,370.102971,-9806.022374
819.446527,1702.473667,1036.288319,-10342.289223
819.446847,2886.803174,1554.432478,-11031.775171
819.447167,370.102971,888.247130,-10112.460574
819.447487,-1628.453072,0.000000,-10035.851024
819.447807,814.226536,-1406.391290,-10189.070123
819.448127,2812.782580,-1480.411884,-10878.556072
819.448447,1924.535449,0.000000,-10648.727422
819.448767,-1036.288319,1776.494261,-10112.460574
819.449087,-148.041188,1184.329507,-10878.556072
819.449407,962.267725,814.226536,-10725.336972
819.449727,444.123565,-592.164754,-10112.460574
819.450047,-2368.659014,-296.082377,-10189.070123
819.450367,-1702.473667,-370.102971,-9422.974625
819.450687,1776.494261,-518.144159,-10265.679673
819.451008,3552.988522,-296.082377,-10112.460574
819.451328,1702.473667,148.041188,-9422.974625
819.451648,1184.329507,592.164754,-9576.193725
819.451968,2590.720797,-296.082377,-9806.022374
819.452288,1554.432478,0.000000,-10035.851024
819.452608,-1998.556043,-740.205942,-9652.803275
819.452928,-3256.906145,-1554.432478,-9269.755526
819.453248,-222.061783,-740.205942,-9729.412825
819.453568,962.267725,-814.226536,-10112.460574
819.453888,222.061783,-814.226536,-9729.412825
819.454208,-222.061783,-222.061783,-9806.022374
819.454528,2072.576638,0.000000,-9959.241474
819.454848,2738.761985,592.164754,-10495.508323
819.455168,518.144159,518.144159,-10418.898773
819.455488,-2886.803174,962.267725,-9882.631924
819.455809,-2368.659014,296.082377,-10112.460574
819.456129,74.020594,1184.329507,-10725.336972
819.456449,1406.391290,518.144159,-10418.898773
819.456769,-148.041188,1110.308913,-10112.460574
819.457089,666.185348,518.144159,-10112.460574
819.457409,2368.659014,1406.391290,-11031.775171
819.457729,1406.391290,1850.514855,-10725.336972
819.458049,-2368.659014,1110.308913,-10342.289223
819.458369,-1702.473667,0.000000,-10035.851024
819.458689,1110.308913,-888.247130,-9882.631924
819.459009,1628.453072,296.082377,-10265.679673
819.459329,1628.453072,2886.803174,-10265.679673
819.459649,740.205942,3552.988522,-10418.898773
819.459969,2368.659014,2072.576638,-10495.508323
819.460289,2812.782580,1998.556043,-9806.022374
819.460610,-1184.329507,1850.514855,-9422.974625
819.460930,-2738.761985,592.164754,-9652.803275
819.461250,-148.041188,-740.205942,-9882.631924
819.461570,2220.617826,-592.164754,-9652.803275
819.461890,1406.391290,814.226536,-9729.412825
819.462210,-444.123565,1332.370696,-9269.755526
819.462530,1924.535449,1406.391290,-9652.803275
819.462850,3404.947333,1924.535449,-10418.898773
819.463170,2960.823768,2738.761985,-10035.851024
819.463490,592.164754,3182.885551,-9806.022374
819.463810,1036.288319,1776.494261,-10035.851024
819.464130,3034.844362,962.267725,-10418.898773
819.464450,1628.453072,74.020594,-9499.584175
819.464770,-1406.391290,0.000000,-9729.412825
819.465090,0.000000,-444.123565,-9652.803275
819.465411,2442.679609,0.000000,-10495.508323
819.465731,2590.720797,1406.391290,-10342.289223
819.466051,-666.185348,1554.432478,-9806.022374
819.466371,-1924.535449,592.164754,-9806.022374
819.466691,666.185348,-222.061783,-10035.851024
819.467011,1850.514855,444.123565,-10189.070123
819.467331,-1258.350101,-444.123565,-10189.070123
819.467651,-1110.308913,-592.164754,-10342.289223
819.467971,1628.453072,-370.102971,-10112.460574
819.468291,2368.659014,592.164754,-10878.556072
819.468611,0.000000,666.185348,-10035.851024
819.468931,-2368.659014,740.205942,-10112.460574
819.469251,-1258.350101,1110.308913,-10265.679673
819.469571,1258.350101,0.000000,-11108.384721
819.469891,74.020594,148.041188,-9959.241474
819.470212,-1776.494261,-666.185348,-10112.460574
819.470532,1628.453072,-1702.473667,-10035.851024
819.470852,2812.782580,-1258.350101,-10572.117872
819.471172,962.267725,296.082377,-9882.631924
819.471492,-2590.720797,888.247130,-9806.022374
819.471812,-962.267725,148.041188,-9806.022374
819.472132,1184.329507,0.000000,-10342.289223
819.472452,1110.308913,-814.226536,-9959.241474
819.472772,-1184.329507,-1480.411884,-9652.803275
819.473092,-666.185348,-1702.473667,-9882.631924
819.473412,2368.659014,-1184.329507,-10035.851024
819.473732,2368.659014,0.000000,-10495.508323
819.474052,-518.144159,666.185348,-10035.851024
819.474372,-1332.370696,814.226536,-9806.022374
819.474692,592.164754,-666.185348,-10418.898773
819.475013,2146.597232,-666.185348,-10112.460574
819.475333,518.144159,-1258.350101,-9806.022374
819.475653,0.000000,-1628.453072,-9499.584175
819.475973,2516.700203,-1776.494261,-9729.412825
819.476293,2886.803174,-592.164754,-10572.117872
819.476613,592.164754,1110.308913,-10189.070123
819.476933,-592.164754,666.185348,-10265.679673
819.477253,1332.370696,814.226536,-10418.898773
819.477573,2146.597232,444.123565,-10342.289223
819.477893,962.267725,740.205942,-10725.336972
819.478213,-1554.432478,370.102971,-9576.193725
819.478533,0.000000,0.000000,-10035.851024
819.478853,2368.659014,666.185348,-9882.631924
819.479173,666.185348,518.144159,-9882.631924
819.479493,-1036.288319,740.205942,-10342.289223
819.479814,-370.102971,296.082377,-10189.070123
819.480134,2294.638420,0.000000,-10572.117872
819.480454,1406.391290,1480.411884,-9959.241474
819.480774,-1406.391290,1776.494261,-10035.851024
819.481094,-888.247130,888.247130,-9959.241474
819.481414,2294.638420,-222.061783,-10725.336972
819.481734,2072.576638,-370.102971,-9806.022374
819.482054,-1924.535449,1036.288319,-9729.412825
819.482374,-2516.700203,-592.164754,-9806.022374
819.482694,1406.391290,148.041188,-10189.070123
819.483014,1702.473667,0.000000,-9882.631924
819.483334,-1184.329507,1258.350101,-9882.631924
819.483654,-2442.679609,1110.308913,-9346.365076
819.483974,-518.144159,-74.020594,-10112.460574
819.484294,2220.617826,74.020594,-9882.631924
819.484615,296.082377,222.061783,-9806.022374
819.484935,-2516.700203,1184.329507,-9729.412825
819.485255,0.000000,592.164754,-9959.241474
819.485575,2146.597232,1850.514855,-10112.460574
819.485895,222.061783,2664.741391,-8810.098227
819.486215,370.102971,2220.617826,-9806.022374
819.486535,2294.638420,1258.350101,-10265.679673
819.486855,3034.844362,518.144159,-10112.460574
819.487175,2146.597232,1110.308913,-10189.070123
819.487495,-740.205942,1110.308913,-9499.584175
819.487815,74.020594,-370.102971,-9729.412825
819.488135,1998.556043,814.226536,-9882.631924
819.488455,1924.535449,2812.782580,-10572.117872
819.488775,0.000000,3701.029710,-9806.022374
819.489095,740.205942,1924.535449,-10418.898773
819.489415,2886.803174,1850.514855,-10648.727422
819.489735,1850.514855,74.020594,-9959.241474
819.490055,74.020594,0.000000,-10265.679673
819.490375,74.020594,0.000000,-9806.022374
819.490695,1554.432478,0.000000,-10189.070123
819.491015,1776.494261,740.205942,-10725.336972
819.491335,-814.226536,1628.453072,-9806.022374
819.491655,-740.205942,1480.411884,-10648.727422
819.491975,1924.535449,1480.411884,-10725.336972
819.492295,2886.803174,814.226536,-10495.508323
819.492615,814.226536,-222.061783,-9959.241474
819.492935,-2368.659014,-1036.288319,-9576.193725
819.493255,-592.164754,-1850.514855,-9806.022374
819.493575,2368.659014,-888.247130,-9882.631924
819.493895,1110.308913,-888.247130,-9729.412825
819.494215,-1776.494261,296.082377,-9806.022374
819.494535,296.082377,1110.308913,-10189.070123
819.494855,1776.494261,2442.679609,-10648.727422
819.495175,666.185348,1702.473667,-10878.556072
819.495495,-1702.473667,444.123565,-9729.412825
819.495815,-1554.432478,-1628.453072,-9499.584175
819.496135,1628.453072,-1110.308913,-10265.679673
819.496455,-222.061783,-296.082377,-10342.289223
819.496775,-2368.659014,0.000000,-10035.851024
819.497095,-1406.391290,-1406.391290,-9882.631924
819.497415,1480.411884,-2072.576638,-9882.631924
819.497735,814.226536,-1332.370696,-10265.679673
819.498055,-1184.329507,-1554.432478,-8886.707777
819.498375,-814.226536,-666.185348,-10112.460574
819.498695,2886.803174,-1776.494261,-9882.631924
819.499015,3775.050304,-1036.288319,-10342.289223
819.499335,0.000000,-1480.411884,-9959.241474
819.499655,-888.247130,-1924.535449,-9806.022374
819.499975,962.267725,-1332.370696,-10265.679673
819.500295,2368.659014,148.041188,-11031.775171
819.500615,0.000000,-222.061783,-10112.460574
819.500935,-1406.391290,-888.247130,-10112.460574
819.501255,296.082377,-1480.411884,-9806.022374
819.501575,2294.638420,-148.041188,-10572.117872
819.501895,1480.411884,148.041188,-10112.460574
819.502215,296.082377,814.226536,-10418.898773
819.502535,1998.556043,666.185348,-10189.070123
819.502855,3552.988522,222.061783,-10648.727422
819.503175,1480.411884,0.000000,-10189.070123
819.503495,-1258.350101,0.000000,-9806.022374
819.503815,0.000000,0.000000,-9806.022374
819.504135,2516.700203,0.000000,-10265.679673
819.504455,1702.473667,-370.102971,-9806.022374
819.504775,-1628.453072,-814.226536,-10265.679673
819.505095,-1554.432478,-666.185348,-9269.755526
819.505415,370.102971,666.185348,-10648.727422
819.505735,2368.659014,1480.411884,-10572.117872
819.506055,-148.041188,518.144159,-9652.803275
819.506375,-2294.638420,-148.041188,-9806.022374
819.506695,1036.288319,-222.061783,-9959.241474
819.507015,2664.741391,0.000000,-10418.898773
819.507335,1258.350101,518.144159,-9652.803275
819.507655,-1110.308913,74.020594,-9806.022374
819.507975,222.061783,74.020594,-10495.508323
819.508295,592.164754,-518.144159,-10418.898773
819.508615,-2368.659014,0.000000,-10035.851024
819.508935,-5181.441594,370.102971,-9576.193725
819.509255,-2368.659014,0.000000,-10035.851024
819.509575,962.267725,-296.082377,-10572.117872
819.509894,148.041188,1110.308913,-9959.241474
819.510214,-1554.432478,1406.391290,-10189.070123
819.510534,518.144159,-518.144159,-10189.070123
819.510854,2812.782580,-740.205942,-10265.679673
819.511174,1184.329507,666.185348,-9729.412825
819.511494,-1776.494261,2368.659014,-9806.022374
819.511814,-518.144159,2516.700203,-9806.022374
819.512134,2368.659014,2072.576638,-10572.117872
819.512454,2442.679609,370.102971,-10342.289223
819.512774,222.061783,148.041188,-9806.022374
819.513094,74.020594,-222.061783,-9806.022374
819.513414,2368.659014,296.082377,-10112.460574
819.513734,2590.720797,1776.494261,-10265.679673
819.514054,-1184.329507,1554.432478,-9576.193725
819.514374,-962.267725,1776.494261,-9729.412825
819.514694,2442.679609,814.226536,-9652.803275
819.515014,3849.070898,0.000000,-10112.460574
819.515334,3478.967927,1776.494261,-9959.241474
819.515654,1554.432478,1110.308913,-10265.679673
819.515974,2590.720797,592.164754,-9806.022374
819.516294,1998.556043,1036.288319,-10572.117872
819.516614,-222.061783,1406.391290,-10265.679673
819.516934,-1036.288319,1480.411884,-10112.460574
819.517254,1036.288319,518.144159,-10265.679673
819.517574,3923.091493,1036.288319,-10418.898773
819.517894,1258.350101,814.226536,-10495.508323
819.518214,148.041188,518.144159,-9959.241474
819.518534,1184.329507,592.164754,-10189.070123
819.518854,2738.761985,1036.288319,-10495.508323
819.519174,1332.370696,962.267725,-9882.631924
819.519494,-2146.597232,888.247130,-9882.631924
819.519814,-1702.473667,-518.144159,-9806.022374
819.520134,1332.370696,-518.144159,-9806.022374
819.520454,1036.288319,-962.267725,-9806.022374
819.520774,-1776.494261,-1332.370696,-9499.584175
819.521094,-1258.350101,-888.247130,-9729.412825
819.521414,1998.556043,-222.061783,-10189.070123
819.521734,2516.700203,296.082377,-9959.241474
819.522054,-962.267725,74.020594,-9959.241474
819.522374,-2072.576638,-1628.453072,-9346.365076
819.522694,592.164754,-1702.473667,-10035.851024
819.523014,1332.370696,-814.226536,-10265.679673
819.523334,-962.267725,814.226536,-9499.584175
819.523654,-2590.720797,0.000000,-9806.022374
819.523974,888.247130,148.041188,-10112.460574
819.524294,1480.411884,-370.102971,-10418.898773
819.524614,-222.061783,-1110.308913,-10572.117872
819.524934,-2960.823768,-1776.494261,-9422.974625
819.525254,-1554.432478,-1850.514855,-9729.412825
819.525574,2590.720797,-1036.288319,-10725.336972
819.525894,2146.597232,-518.144159,-9576.193725
819.526214,0.000000,0.000000,-10342.289223
819.526534,962.267725,518.144159,-10648.727422
819.526854,2368.659014,592.164754,-11031.775171
819.527174,1998.556043,370.102971,-10342.289223
819.527494,-222.061783,0.000000,-9959.241474
819.527814,-296.082377,-1554.432478,-10035.851024
819.528134,444.123565,-1554.432478,-10495.508323
819.528454,0.000000,-1258.350101,-10418.898773
819.528774,-1554.432478,666.185348,-11031.775171
819.529094,-1110.308913,370.102971,-10265.679673
819.529414,2368.659014,1628.453072,-11108.384721
819.529734,1480.411884,592.164754,-10725.336972
819.530054,-518.144159,-1480.411884,-11414.822920
819.530374,0.000000,-2738.761985,-9806.022374
819.530694,2368.659014,-962.267725,-10725.336972
819.531014,2368.659014,740.205942,-10801.946522
819.531334,-518.144159,3997.112087,-10572.117872
819.531654,-1110.308913,4293.194464,-10572.117872
819.531974,592.164754,2442.679609,-10648.727422
819.532294,1628.453072,-296.082377,-10342.289223
819.532614,-518.144159,-2590.720797,-9039.926876
819.532934,-2664.741391,-3404.947333,-8963.317327
819.533254,296.082377,-2960.823768,-9116.536426
819.533574,2590.720797,-2220.617826,-10189.070123
819.533894,0.000000,-1258.350101,-9346.365076
819.534214,-2146.597232,-296.082377,-9269.755526
819.534534,0.000000,1258.350101,-10189.070123
819.534854,2590.720797,1406.391290,-10342.289223
819.535174,1480.411884,1332.370696,-10189.070123
819.535494,-2886.803174,370.102971,-9806.022374
819.535814,-2738.761985,-888.247130,-8273.831378
819.536134,2516.700203,-888.247130,-9882.631924
819.536454,3256.906145,-1110.308913,-9959.241474
819.536774,592.164754,444.123565,-9806.022374
819.537094,-1332.370696,666.185348,-9806.022374
819.537414,1702.473667,1332.370696,-10418.898773
819.537734,666.185348,2146.597232,-10495.508323
819.538054,-1850.514855,1924.535449,-9729.412825
819.538374,-1776.494261,1332.370696,-10112.460574
819.538694,1998.556043,2294.638420,-9806.022374
819.539014,2664.741391,1332.370696,-10725.336972
819.539334,1258.350101,1628.453072,-10725.336972
819.539654,0.000000,592.164754,-9729.412825
819.539974,2590.720797,222.061783,-10572.117872
819.540294,3256.906145,1850.514855,-10189.070123
819.540614,518.144159,2886.803174,-10418.898773
819.540934,-1480.411884,2664.741391,-9882.631924
819.541254,962.267725,1554.432478,-9882.631924
819.541574,4145.153275,-518.144159,-10572.117872
819.541894,2590.720797,148.041188,-10112.460574
819.542214,1258.350101,666.185348,-9882.631924
819.542534,1480.411884,1554.432478,-10342.289223
819.542854,2886.803174,2590.720797,-10572.117872
819.543174,1184.329507,2072.576638,-10418.898773
819.543494,-2072.576638,1480.411884,-9729.412825
819.543814,-1332.370696,148.041188,-9959.241474
819.544134,1850.514855,-592.164754,-10112.460574
819.544454,1850.514855,-814.226536,-9193.145976
819.544774,-370.102971,148.041188,-9576.193725
819.545094,-518.144159,814.226536,-9882.631924
819.545414,2664.741391,1332.370696,-10418.898773
819.545734,2294.638420,1776.494261,-9806.022374
819.546054,-740.205942,1480.411884,-9806.022374
819.546374,-1628.453072,518.144159,-9346.365076
819.546694,444.123565,0.000000,-10342.289223
819.547014,2442.679609,-370.102971,-10035.851024
819.547334,740.205942,444.123565,-9422.974625
819.547654,-444.123565,370.102971,-10265.679673
819.547973,888.247130,444.123565,-10189.070123
819.548293,814.226536,444.123565,-10648.727422
819.548613,-1036.288319,962.267725,-10265.679673
819.548933,-2886.803174,-148.041188,-9499.584175
819.549253,-296.082377,-962.267725,-10035.851024
819.549573,1702.473667,-666.185348,-10265.679673
819.549893,518.144159,0.000000,-10189.070123
819.550213,-1406.391290,1776.494261,-9499.584175
819.550533,1184.329507,518.144159,-10112.460574
819.550853,3701.029710,-370.102971,-10801.946522
819.551173,1628.453072,-962.267725,-10189.070123
819.551493,-2368.659014,-962.267725,-10035.851024
819.551813,-2664.741391,-1480.411884,-10112.460574
819.552133,0.000000,0.000000,-10572.117872
819.552453,1110.308913,592.164754,-10801.946522
819.552773,0.000000,1036.288319,-10648.727422
819.553093,1332.370696,1110.308913,-10648.727422
819.553413,2220.617826,962.267725,-10648.727422
819.553733,2146.597232,666.185348,-10878.556072
819.554053,0.000000,370.102971,-10265.679673
819.554373,-814.226536,370.102971,-10418.898773
819.554693,1998.556043,-222.061783,-10189.070123
819.555013,2516.700203,0.000000,-10648.727422
819.555333,0.000000,-592.164754,-10112.460574
819.555653,-222.061783,-962.267725,-9269.755526
819.555973,1998.556043,-888.247130,-9959.241474
819.556293,2664.741391,-592.164754,-10035.851024
819.556613,-296.082377,-666.185348,-9882.631924
819.556933,-2590.720797,-370.102971,-9652.803275
819.557253,-1332.370696,-888.247130,-9346.365076
819.557573,1554.432478,-2442.679609,-9806.022374
819.557893,1776.494261,-1702.473667,-9806.022374
819.558213,-1406.391290,-1110.308913,-9269.755526
819.558533,1332.370696,0.000000,-11108.384721
819.558853,3256.906145,962.267725,-10572.117872
819.559173,1628.453072,1628.453072,-10725.336972
819.559493,-1480.411884,592.164754,-9422.974625
819.559813,-1702.473667,-518.144159,-9806.022374
819.560133,-222.061783,-1406.391290,-9806.022374
819.560453,222.061783,-2294.638420,-9806.022374
819.560773,-2368.659014,-888.247130,-9652.803275
819.561093,-2220.617826,74.020594,-9576.193725
819.561413,666.185348,1258.350101,-10189.070123
819.561733,3701.029710,3034.844362,-10801.946522
819.562053,-1036.288319,2368.659014,-11031.775171
819.562373,-2442.679609,592.164754,-9882.631924
819.562693,-1258.350101,-666.185348,-10112.460574
819.563013,2072.576638,-666.185348,-10572.117872
819.563333,814.226536,370.102971,-9806.022374
819.563653,-666.185348,1998.556043,-10495.508323
819.563973,888.247130,2146.597232,-10418.898773
819.564293,2738.761985,2368.659014,-11031.775171
819.564613,74.020594,1258.350101,-10418.898773
819.564933,-1776.494261,666.185348,-9652.803275
819.565253,-518.144159,444.123565,-10265.679673
819.565573,2516.700203,1480.411884,-10265.679673
819.565893,2146.597232,1110.308913,-10495.508323
819.566213,74.020594,1554.432478,-10035.851024
819.566533,1036.288319,1924.535449,-9959.241474
819.566853,4145.153275,2146.597232,-10495.508323
819.567173,4071.132681,2664.741391,-10112.460574
819.567493,962.267725,2886.803174,-10112.460574
819.567813,-296.082377,1036.288319,-9806.022374
819.568133,1850.514855,-666.185348,-10112.460574
819.568453,666.185348,-1184.329507,-9729.412825
819.568773,-1554.432478,-962.267725,-9193.145976
819.569093,0.000000,1036.288319,-9652.803275
819.569413,1776.494261,3478.967927,-10265.679673
819.569733,2664.741391,4737.318029,-10955.165621
819.570053,1036.288319,2220.617826,-9806.022374
819.570373,-1480.411884,1332.370696,-9729.412825
819.570693,592.164754,-666.185348,-9806.022374
819.571013,2442.679609,-370.102971,-10112.460574
819.571333,296.082377,-888.247130,-9729.412825
819.571653,-1036.288319,222.061783,-9882.631924
819.571973,0.000000,444.123565,-9806.022374
819.572293,2072.576638,814.226536,-10342.289223
819.572613,592.164754,1036.288319,-10265.679673
819.572933,-444.123565,1036.288319,-9576.193725
819.573253,1332.370696,-296.082377,-10265.679673
819.573573,3182.885551,-370.102971,-10189.070123
819.573893,1036.288319,-1406.391290,-10035.851024
819.574213,-1776.494261,-740.205942,-9959.241474
819.574533,-1332.370696,-1036.288319,-9652.803275
819.574853,1184.329507,-592.164754,-10801.946522
819.575173,1628.453072,-370.102971,-9959.241474
819.575493,-1998.556043,1776.494261,-10035.851024
819.575813,-1924.535449,518.144159,-8733.488677
819.576133,740.205942,-222.061783,-10112.460574
819.576453,1776.494261,-1554.432478,-10418.898773
819.576773,-296.082377,-1924.535449,-9499.584175
819.577093,-1184.329507,-1184.329507,-9806.022374
819.577413,1332.370696,-814.226536,-10112.460574
819.577733,3182.885551,0.000000,-10418.898773
819.578053,-814.226536,148.041188,-10112.460574
819.578373,-1924.535449,518.144159,-10189.070123
819.578693,1702.473667,0.000000,-10495.508323
819.579013,2738.761985,0.000000,-10955.165621
819.579333,592.164754,0.000000,-9806.022374
819.579653,-1554.432478,370.102971,-9806.022374
819.579973,-1184.329507,74.020594,-9039.926876
819.580293,1480.411884,-814.226536,-10035.851024
819.580613,814.226536,-1998.556043,-10112.460574
819.580933,-1258.350101,-2368.659014,-9806.022374
819.581253,814.226536,-1480.411884,-9576.193725
819.581573,2590.720797,0.000000,-10189.070123
819.581893,2590.720797,1036.288319,-10725.336972
819.582213,74.020594,1850.514855,-10035.851024
819.582533,518.144159,888.247130,-10112.460574
819.582853,2442.679609,444.123565,-10342.289223
819.583173,1036.288319,-1554.432478,-10342.289223
819.583493,-1554.432478,-1554.432478,-9729.412825
819.583813,-1554.432478,-1258.350101,-10112.460574
819.584133,148.041188,-370.102971,-10112.460574
819.584453,1554.432478,888.247130,-10955.165621
819.584773,370.102971,1332.370696,-10112.460574
819.585093,-1406.391290,2072.576638,-9806.022374
819.585413,592.164754,888.247130,-10648.727422
819.585733,1332.370696,888.247130,-10189.070123
819.586052,-370.102971,0.000000,-9652.803275
819.586372,-814.226536,-962.267725,-9576.193725
819.586692,2590.720797,-592.164754,-9959.241474
819.587012,2294.638420,0.000000,-10189.070123
819.587332,518.144159,-740.205942,-10035.851024
819.587652,-1480.411884,1554.432478,-8810.098227
819.587972,0.000000,962.267725,-10648.727422
819.588292,2590.720797,1628.453072,-10112.460574
819.588612,-962.267725,1110.308913,-11568.042020
819.588932,-3627.009116,0.000000,-9116.536426
819.589252,-1702.473667,-1850.514855,-9193.145976
819.589572,2294.638420,-592.164754,-10342.289223
819.589893,1998.556043,296.082377,-9499.584175
819.590213,0.000000,2072.576638,-10342.289223
819.590533,666.185348,2590.720797,-10342.289223
819.590853,3478.967927,2738.761985,-10572.117872
819.591173,1258.350101,2146.597232,-10418.898773
819.591493,-2294.638420,1850.514855,-9039.926876
819.591814,-1998.556043,740.205942,-9806.022374
819.592134,2442.679609,518.144159,-10648.727422
819.592454,3182.885551,518.144159,-10418.898773
819.592774,444.123565,1406.391290,-9269.755526
819.593094,-666.185348,1776.494261,-9806.022374
819.593415,1924.535449,2146.597232,-10878.556072
819.593735,1924.535449,2368.659014,-10495.508323
819.594055,-444.123565,1850.514855,-10035.851024
819.594375,-1776.494261,740.205942,-9422.974625
819.594695,1406.391290,-370.102971,-9882.631924
819.595015,3478.967927,-592.164754,-10572.117872
819.595336,1702.473667,74.020594,-9959.241474
819.595656,-740.205942,1998.556043,-10035.851024
819.595976,222.061783,2146.597232,-10189.070123
819.596296,2664.741391,2812.782580,-10648.727422
819.596616,1776.494261,814.226536,-9882.631924
819.596937,-814.226536,-370.102971,-9039.926876
819.597257,0.000000,-1998.556043,-9422.974625
819.597577,2664.741391,-962.267725,-9882.631924
819.597897,1850.514855,-888.247130,-9882.631924
819.598217,592.164754,592.164754,-9576.193725
819.598537,0.000000,1480.411884,-9882.631924
819.598858,2220.617826,1776.494261,-10265.679673
819.599178,1628.453072,1702.473667,-10572.117872
819.599498,-2146.597232,666.185348,-9729.412825
819.599818,-2368.659014,0.000000,-9499.584175
819.600138,518.144159,-370.102971,-9882.631924
819.600458,2220.617826,-888.247130,-10189.070123
819.600779,1258.350101,-1332.370696,-9729.412825
819.601099,0.000000,-1110.308913,-9729.412825
819.601419,2886.803174,296.082377,-10572.117872
819.601739,2960.823768,1480.411884,-11108.384721
819.602059,-222.061783,1184.329507,-10648.727422
819.602380,-2368.659014,666.185348,-10035.851024
819.602700,-888.247130,-148.041188,-10112.460574
819.603020,1184.329507,0.000000,-11031.775171
819.603340,0.000000,0.000000,-10572.117872
819.603660,-1184.329507,296.082377,-10112.460574
819.603980,0.000000,518.144159,-10342.289223
819.604301,1998.556043,518.144159,-10495.508323
819.604621,444.123565,0.000000,-9882.631924
819.604941,-3108.864956,-1406.391290,-9806.022374
819.605261,-1110.308913,-1998.556043,-9806.022374
819.605581,2442.679609,-962.267725,-11184.994271
819.605902,2368.659014,-1110.308913,-10112.460574
819.606222,-148.041188,814.226536,-10035.851024
819.606542,-518.144159,1036.288319,-10342.289223
819.606862,1850.514855,2220.617826,-10955.165621
819.607182,296.082377,2220.617826,-11568.042020
819.607502,-1924.535449,1406.391290,-9959.241474
819.607823,-1628.453072,-518.144159,-9806.022374
819.608143,814.226536,-1184.329507,-10495.508323
819.608463,1850.514855,-2146.597232,-9729.412825
819.608783,-222.061783,-666.185348,-9882.631924
819.609103,-888.247130,518.144159,-9959.241474
819.609424,1776.494261,1702.473667,-10265.679673
819.609744,3552.988522,1850.514855,-11031.775171
819.610064,888.247130,0.000000,-9806.022374
819.610384,-1406.391290,-962.267725,-9652.803275
819.610704,-518.144159,-1924.535449,-9806.022374
819.611024,1628.453072,-1036.288319,-9806.022374
819.611345,814.226536,-592.164754,-10265.679673
819.611665,-222.061783,0.000000,-9959.241474
819.611985,666.185348,-444.123565,-10342.289223
819.612305,1110.308913,-370.102971,-10265.679673
819.612625,-1332.370696,-222.061783,-9882.631924
819.612945,-3552.988522,222.061783,-8810.098227
819.613266,-1110.308913,74.020594,-9806.022374
819.613586,2220.617826,0.000000,-10112.460574
819.613906,3108.864956,-814.226536,-10495.508323
819.614226,740.205942,-1036.288319,-9346.365076
819.614546,592.164754,-740.205942,-10495.508323
819.614867,1110.308913,1110.308913,-10342.289223
819.615187,814.226536,2294.638420,-10955.165621
819.615507,-888.247130,2442.679609,-10342.289223
819.615827,-962.267725,1776.494261,-9882.631924
819.616147,1036.288319,740.205942,-10648.727422
819.616467,1332.370696,-518.144159,-10495.508323
819.616788,-444.123565,-222.061783,-9576.193725
819.617108,-518.144159,-666.185348,-9652.803275
819.617428,1332.370696,1184.329507,-10495.508323
819.617748,1036.288319,1184.329507,-10265.679673
819.618068,-1480.411884,1332.370696,-10112.460574
819.618389,-2738.761985,296.082377,-9576.193725
819.618709,370.102971,518.144159,-10189.070123
819.619029,2590.720797,592.164754,-10342.289223
819.619349,2738.761985,0.000000,-9806.022374
819.619669,0.000000,592.164754,-9959.241474
819.619989,1776.494261,1184.329507,-9499.584175
819.620310,1776.494261,2146.597232,-10725.336972
819.620630,-592.164754,2516.700203,-10418.898773
819.620950,-1924.535449,2738.761985,-9806.022374
819.621270,-148.041188,0.000000,-9729.412825
819.621590,2590.720797,-1184.329507,-9346.365076
819.621910,2294.638420,-1628.453072,-10112.460574
819.622231,370.102971,-148.041188,-9499.584175
819.622551,962.267725,1480.411884,-9806.022374
819.622871,2294.638420,2294.638420,-10189.070123
819.623191,1998.556043,2368.659014,-10189.070123
819.623511,-1406.391290,1258.350101,-9499.584175
819.623832,-740.205942,1036.288319,-9806.022374
819.624152,2072.576638,222.061783,-9959.241474
819.624472,3552.988522,518.144159,-10112.460574
819.624792,2368.659014,148.041188,-10035.851024
819.625112,962.267725,148.041188,-9499.584175
819.625432,2220.617826,74.020594,-10189.070123
819.625753,1702.473667,888.247130,-10265.679673
819.626073,148.041188,1776.494261,-10112.460574
819.626393,-1776.494261,2368.659014,-10112.460574
819.626713,296.082377,1184.329507,-10112.460574
819.627033,1332.370696,814.226536,-9959.241474
819.627354,1258.350101,-518.144159,-9806.022374
819.627674,222.061783,-592.164754,-9499.584175
819.627994,1036.288319,-518.144159,-10572.117872
819.628314,2368.659014,666.185348,-10801.946522
819.628634,-74.020594,1776.494261,-10572.117872
819.628954,-2812.782580,1332.370696,-9806.022374
819.629275,-2294.638420,296.082377,-9652.803275
819.629595,222.061783,-148.041188,-10189.070123
819.629915,1702.473667,-444.123565,-9422.974625
819.630235,-444.123565,-296.082377,-9959.241474
819.630555,-222.061783,0.000000,-9959.241474
819.630876,1480.411884,370.102971,-10495.508323
819.631196,1628.453072,0.000000,-10572.117872
819.631516,-592.164754,-148.041188,-9576.193725
819.631836,-2442.679609,-1332.370696,-9806.022374
819.632156,-740.205942,-666.185348,-10189.070123
819.632476,592.164754,-592.164754,-10035.851024
819.632797,-740.205942,814.226536,-9959.241474
819.633117,-222.061783,962.267725,-10342.289223
819.633437,2146.597232,370.102971,-10418.898773
819.633757,2368.659014,370.102971,-11031.775171
819.634077,814.226536,-592.164754,-10342.289223
819.634397,-2072.576638,-296.082377,-9959.241474
819.634718,-1998.556043,-1036.288319,-9806.022374
819.635038,814.226536,-222.061783,-10265.679673
819.635358,444.123565,-222.061783,-10189.070123
819.635678,-370.102971,-222.061783,-9882.631924
819.635998,1332.370696,-222.061783,-10342.289223
819.636319,2368.659014,222.061783,-10572.117872
819.636639,1258.350101,0.000000,-10342.289223
819.636959,-1628.453072,-444.123565,-9652.803275
819.637279,-814.226536,-1036.288319,-9729.412825
819.637599,1036.288319,-1480.411884,-9882.631924
819.637919,2072.576638,-1406.391290,-10035.851024
819.638240,-370.102971,-1258.350101,-9806.022374
819.638560,296.082377,-222.061783,-10495.508323
819.638880,2368.659014,1554.432478,-10495.508323
819.639200,2442.679609,1184.329507,-11031.775171
819.639520,-370.102971,1480.411884,-10035.851024
819.639841,-1776.494261,666.185348,-9882.631924
819.640161,-444.123565,-148.041188,-10342.289223
819.640481,814.226536,-148.041188,-10265.679673
819.640801,-296.082377,-370.102971,-9882.631924
819.641121,-222.061783,-370.102971,-9959.241474
819.641441,1702.473667,0.000000,-9882.631924
819.641762,3404.947333,814.226536,-10572.117872
819.642082,1184.329507,888.247130,-10189.070123
819.642402,-1110.308913,1554.432478,-9729.412825
819.642722,666.185348,444.123565,-11338.213370
819.643042,1998.556043,518.144159,-10572.117872
819.643362,148.041188,148.041188,-9806.022374
819.643683,-1110.308913,0.000000,-9346.365076
819.644003,74.020594,444.123565,-10342.289223
819.644323,1924.535449,1110.308913,-11108.384721
819.644643,74.020594,814.226536,-9882.631924
819.644963,-2738.761985,1036.288319,-9576.193725
819.645284,-1258.350101,1110.308913,-9422.974625
819.645604,1480.411884,296.082377,-9422.974625
819.645924,1776.494261,888.247130,-9806.022374
819.646244,-592.164754,444.123565,-9499.584175
819.646564,74.020594,148.041188,-9576.193725
819.646884,3108.864956,740.205942,-10495.508323
819.647205,2812.782580,1924.535449,-10189.070123
819.647525,0.000000,2146.597232,-9882.631924
819.647845,-592.164754,1628.453072,-9576.193725
819.648165,1850.514855,1332.370696,-10035.851024
819.648485,1850.514855,888.247130,-10112.460574
819.648806,-1184.329507,148.041188,-9806.022374
819.649126,-2442.679609,-148.041188,-9806.022374
819.649446,444.123565,0.000000,-10265.679673
819.649766,2960.823768,1702.473667,-10725.336972
819.650086,1184.329507,1924.535449,-10112.460574
819.650406,-1184.329507,2960.823768,-10112.460574
819.650727,888.247130,2294.638420,-10725.336972
819.651047,2738.761985,1110.308913,-10648.727422
819.651367,1628.453072,0.000000,-10189.070123
819.651687,-592.164754,-814.226536,-9576.193725
819.652007,740.205942,-444.123565,-10035.851024
819.652328,3256.906145,1332.370696,-10955.165621
819.652648,2368.659014,1554.432478,-10495.508323
819.652968,0.000000,1702.473667,-10112.460574
819.653288,0.000000,444.123565,-10342.289223
819.653608,1480.411884,74.020594,-10725.336972
819.653928,1110.308913,-518.144159,-10265.679673
819.654249,-1258.350101,0.000000,-9422.974625
819.654569,-814.226536,-592.164754,-9499.584175
819.654889,2368.659014,-518.144159,-10572.117872
819.655209,1998.556043,-740.205942,-9959.241474
819.655529,148.041188,-444.123565,-9959.241474
819.655849,148.041188,592.164754,-9882.631924
819.656170,2146.597232,370.102971,-9882.631924
819.656490,2590.720797,222.061783,-10112.460574
819.656810,-370.102971,0.000000,-9729.412825
819.657130,-2072.576638,-666.185348,-9576.193725
819.657450,-222.061783,-666.185348,-10342.289223
819.657771,1036.288319,-518.144159,-10495.508323
819.658091,148.041188,-1258.350101,-10265.679673
819.658411,-1332.370696,-962.267725,-9806.022374
819.658731,-1036.288319,-1332.370696,-10265.679673
819.659051,444.123565,-518.144159,-10572.117872
819.659371,-1258.350101,592.164754,-10648.727422
819.659692,-1406.391290,1258.350101,-10035.851024
819.660012,1036.288319,814.226536,-10035.851024
819.660332,4145.153275,444.123565,-11184.994271
819.660652,2220.617826,-592.164754,-10495.508323
819.660972,-740.205942,-1036.288319,-9652.803275
819.661293,-888.247130,-592.164754,-10035.851024
819.661613,1406.391290,-740.205942,-10189.070123
819.661933,1776.494261,-370.102971,-10572.117872
819.662253,-1258.350101,74.020594,-9422.974625
819.662573,-1554.432478,296.082377,-9806.022374
819.662893,518.144159,740.205942,-10035.851024
819.663214,370.102971,74.020594,-10495.508323
819.663534,-1332.370696,-444.123565,-9806.022374
819.663854,-2072.576638,-1480.411884,-9499.584175
819.664174,1110.308913,-2368.659014,-9269.755526
819.664494,2590.720797,-1036.288319,-10189.070123
819.664814,0.000000,444.123565,-9882.631924
819.665135,-962.267725,814.226536,-9806.022374
819.665455,1554.432478,1036.288319,-10648.727422
819.665775,3108.864956,1998.556043,-11338.213370
819.666095,888.247130,1184.329507,-10112.460574
819.666415,-1184.329507,296.082377,-9729.412825
819.666736,962.267725,-592.164754,-10112.460574
819.667056,2590.720797,-888.247130,-11874.480219
819.667376,814.226536,-1184.329507,-10035.851024
819.667696,-2220.617826,-518.144159,-9346.365076
819.668016,-962.267725,518.144159,-10189.070123
819.668336,1480.411884,2442.679609,-10878.556072
819.668657,1110.308913,2516.700203,-10725.336972
819.668977,-1184.329507,1036.288319,-9882.631924
819.669297,-222.061783,-888.247130,-10035.851024
819.669617,2516.700203,-2072.576638,-10495.508323
819.669937,2368.659014,-2960.823768,-9882.631924
819.670258,-1258.350101,-740.205942,-9806.022374
819.670578,-962.267725,962.267725,-10189.070123
819.670898,2664.741391,2368.659014,-10495.508323
819.671218,2590.720797,2516.700203,-10955.165621
819.671538,0.000000,2220.617826,-10801.946522
819.671858,-1554.432478,518.144159,-10189.070123
819.672179,0.000000,0.000000,-10418.898773
819.672499,888.247130,370.102971,-10418.898773
819.672819,-1776.494261,1702.473667,-9959.241474
819.673139,-1184.329507,2146.597232,-10035.851024
819.673459,1036.288319,2294.638420,-10418.898773
819.673779,1702.473667,2738.761985,-10418.898773
819.674100,518.144159,296.082377,-9806.022374
819.674420,-1184.329507,296.082377,-9729.412825
819.674740,518.144159,-666.185348,-9806.022374
819.675060,2368.659014,-222.061783,-9576.193725
819.675380,962.267725,444.123565,-9499.584175
819.675701,-592.164754,1258.350101,-9576.193725
819.676021,1184.329507,1702.473667,-9729.412825
819.676341,2812.782580,2146.597232,-10112.460574
819.676661,2442.679609,1850.514855,-10035.851024
819.676981,296.082377,962.267725,-9193.145976
819.677301,-296.082377,-1332.370696,-9346.365076
819.677622,1184.329507,-1258.350101,-9652.803275
819.677942,814.226536,-296.082377,-9576.193725
819.678262,-1110.308913,814.226536,-9499.584175
819.678582,-814.226536,1554.432478,-9959.241474
819.678902,1998.556043,2368.659014,-10801.946522
819.679223,2590.720797,1480.411884,-10342.289223
819.679543,0.000000,666.185348,-10418.898773
819.679863,-518.144159,222.061783,-9346.365076
819.680183,962.267725,296.082377,-10112.460574
819.680503,2072.576638,518.144159,-10725.336972
819.680823,1184.329507,222.061783,-10112.460574
819.681144,-444.123565,592.164754,-10342.289223
819.681464,1184.329507,0.000000,-10418.898773
819.681784,1924.535449,222.061783,-10801.946522
819.682104,74.020594,740.205942,-10495.508323
819.682424,-2368.659014,592.164754,-9959.241474
819.682745,-74.020594,1480.411884,-10189.070123
819.683065,740.205942,-518.144159,-10265.679673
819.683385,1406.391290,-1110.308913,-10189.070123
819.683705,222.061783,-962.267725,-9959.241474
819.684025,1776.494261,-740.205942,-10112.460574
819.684345,3034.844362,0.000000,-10112.460574
819.684666,2516.700203,74.020594,-10265.679673
819.684986,0.000000,-518.144159,-9499.584175
819.685306,-296.082377,-1332.370696,-9729.412825
819.685626,1480.411884,-1850.514855,-9576.193725
819.685946,1850.514855,-1110.308913,-10035.851024
819.686266,-370.102971,-1110.308913,-9729.412825
819.686587,-962.267725,-1406.391290,-9576.193725
819.686907,666.185348,-222.061783,-9499.584175
819.687227,2072.576638,74.020594,-10189.070123
819.687547,-296.082377,888.247130,-10265.679673
819.687867,-1776.494261,1998.556043,-10189.070123
819.688188,370.102971,1850.514855,-10418.898773
819.688508,1776.494261,666.185348,-9806.022374
819.688828,222.061783,0.000000,-10189.070123
819.689148,-1258.350101,-814.226536,-9882.631924
819.689468,1036.288319,-370.102971,-10572.117872
819.689788,2442.679609,444.123565,-10648.727422
819.690108,666.185348,0.000000,-10342.289223
819.690429,-1998.556043,296.082377,-9882.631924
819.690749,-740.205942,0.000000,-10342.289223
819.691069,370.102971,222.061783,-10572.117872
819.691389,0.000000,666.185348,-10572.117872
819.691709,-1258.350101,0.000000,-10265.679673
819.692029,0.000000,-1036.288319,-10418.898773
819.692349,1258.350101,-1036.288319,-10648.727422
819.692669,518.144159,-888.247130,-10572.117872
819.692989,-2886.803174,-666.185348,-10112.460574
819.693310,-2072.576638,-296.082377,-10265.679673
819.693630,-370.102971,1332.370696,-10725.336972
819.693950,-148.041188,2294.638420,-10265.679673
819.694270,-888.247130,2442.679609,-10112.460574
819.694590,-740.205942,1110.308913,-9806.022374
819.694910,2368.659014,-148.041188,-10495.508323
819.695230,1480.411884,-1554.432478,-9959.241474
819.695550,-222.061783,-1776.494261,-9269.755526
819.695871,-962.267725,-592.164754,-8886.707777
819.696191,148.041188,1258.350101,-9806.022374
819.696511,1258.350101,2146.597232,-9806.022374
819.696831,74.020594,1924.535449,-9806.022374
819.697151,-592.164754,740.205942,-9039.926876
819.697471,1332.370696,74.020594,-9576.193725
819.697791,2442.679609,0.000000,-9652.803275
819.698111,1332.370696,-518.144159,-9116.536426
819.698432,-1036.288319,-962.267725,-9269.755526
819.698752,1036.288319,-1332.370696,-9806.022374
819.699072,3256.906145,-666.185348,-9806.022374
819.699392,2664.741391,222.061783,-9959.241474
819.699712,1480.411884,2072.576638,-10035.851024
819.700032,2294.638420,2368.659014,-10265.679673
819.700352,3923.091493,2886.803174,-10725.336972
819.700672,2294.638420,2294.638420,-10572.117872
819.700992,74.020594,444.123565,-10342.289223
819.701313,1258.350101,-1776.494261,-10112.460574
819.701633,3108.864956,-666.185348,-10725.336972
819.701953,2590.720797,518.144159,-10495.508323
819.702273,0.000000,740.205942,-10725.336972
819.702593,-888.247130,2294.638420,-10112.460574
819.702913,1554.432478,2738.761985,-10725.336972
819.703233,1776.494261,3330.926739,-11184.994271
819.703553,-296.082377,2590.720797,-10495.508323
819.703874,-2442.679609,666.185348,-9576.193725
819.704194,1036.288319,0.000000,-10342.289223
819.704514,2220.617826,-518.144159,-9959.241474
819.704834,1406.391290,-814.226536,-10035.851024
819.705154,-962.267725,-518.144159,-9499.584175
819.705474,0.000000,518.144159,-9806.022374
819.705794,1924.535449,2072.576638,-10112.460574
819.706114,740.205942,814.226536,-10035.851024
819.706435,-1554.432478,74.020594,-9193.145976
819.706755,-518.144159,-1110.308913,-9576.193725
819.707075,1702.473667,-1258.350101,-9346.365076
819.707395,962.267725,-2072.576638,-9499.584175
819.707715,-962.267725,-888.247130,-9039.926876
819.708035,-592.164754,-222.061783,-9576.193725
819.708355,666.185348,0.000000,-9959.241474
819.708675,-296.082377,-296.082377,-9959.241474
819.708996,-2738.761985,-666.185348,-9269.755526
819.709316,-3108.864956,-370.102971,-10112.460574
819.709636,0.000000,0.000000,-10342.289223
819.709956,1332.370696,148.041188,-10342.289223
819.710276,-222.061783,74.020594,-9959.241474
819.710596,296.082377,518.144159,-10035.851024
819.710916,2590.720797,666.185348,-10955.165621
819.711236,2960.823768,1258.350101,-10801.946522
819.711556,148.041188,296.082377,-10572.117872
819.711877,-1332.370696,148.041188,-10112.460574
819.712197,592.164754,-1036.288319,-10495.508323
819.712517,2664.741391,-814.226536,-10572.117872
819.712837,888.247130,-444.123565,-10418.898773
819.713157,-962.267725,1184.329507,-9959.241474
819.713477,1036.288319,2072.576638,-10495.508323
819.713797,2960.823768,2664.741391,-10878.556072
819.714117,518.144159,1776.494261,-10495.508323
819.714438,-148.041188,518.144159,-9959.241474
819.714758,962.267725,-1998.556043,-9806.022374
819.715078,3108.864956,-2368.659014,-9576.193725
819.715398,4219.173869,-1850.514855,-9806.022374
819.715718,962.267725,370.102971,-9806.022374
819.716038,1110.308913,1702.473667,-9729.412825
819.716358,2220.617826,2442.679609,-10495.508323
819.716678,1184.329507,1702.473667,-10495.508323
819.716999,-1332.370696,444.123565,-9806.022374
819.717319,-1850.514855,-1184.329507,-9729.412825
819.717639,370.102971,-1924.535449,-9499.584175
819.717959,1258.350101,-1702.473667,-9652.803275
819.718279,222.061783,-888.247130,-9422.974625
819.718599,148.041188,962.267725,-9652.803275
819.718919,1628.453072,1702.473667,-10572.117872
819.719239,1554.432478,2294.638420,-10725.336972
819.719559,-666.185348,814.226536,-9882.631924
819.719880,-2590.720797,-444.123565,-8656.879127
819.720200,-296.082377,-666.185348,-10342.289223
819.720520,1036.288319,-518.144159,-10189.070123
819.720840,-370.102971,-666.185348,-9959.241474
819.721160,-2146.597232,370.102971,-9193.145976
819.721480,222.061783,814.226536,-9806.022374
819.721800,2442.679609,1628.453072,-10418.898773
819.722120,1110.308913,1184.329507,-10265.679673
819.722441,-2294.638420,592.164754,-10035.851024
819.722761,-2368.659014,-222.061783,-10648.727422
819.723081,0.000000,-518.144159,-10189.070123
819.723401,296.082377,148.041188,-9806.022374
819.723721,-1036.288319,1258.350101,-9806.022374
819.724041,-740.205942,2146.597232,-11491.432470
819.724361,1110.308913,1776.494261,-10265.679673
819.724681,814.226536,666.185348,-10418.898773
819.725002,-962.267725,-666.185348,-9806.022374
819.725322,-444.123565,-1850.514855,-8427.050478
819.725642,1850.514855,-1110.308913,-9959.241474
819.725962,2738.761985,222.061783,-10265.679673
819.726282,592.164754,1850.514855,-10189.070123
819.726602,0.000000,3182.885551,-10418.898773
819.726922,1850.514855,1702.473667,-10495.508323
819.727242,1628.453072,1110.308913,-10265.679673
819.727562,-370.102971,74.020594,-10035.851024
819.727883,-1036.288319,-666.185348,-9652.803275
819.728203,1850.514855,-888.247130,-10035.851024
819.728523,2516.700203,-370.102971,-10495.508323
819.728843,1110.308913,0.000000,-10495.508323
819.729163,-1110.308913,1628.453072,-10112.460574
819.729483,888.247130,2368.659014,-10648.727422
819.729803,3034.844362,3330.926739,-10955.165621
819.730123,2590.720797,2960.823768,-10342.289223
819.730444,740.205942,1110.308913,-10189.070123
819.730764,1332.370696,-1036.288319,-10112.460574
819.731084,2886.803174,-2368.659014,-9806.022374
819.731404,1628.453072,-1924.535449,-9652.803275
819.731724,-444.123565,518.144159,-9346.365076
819.732044,148.041188,2368.659014,-9652.803275
819.732364,1998.556043,3330.926739,-10342.289223
819.732684,1110.308913,2368.659014,-10342.289223
819.733005,-1110.308913,-814.226536,-9269.755526
819.733325,-1110.308913,-2516.700203,-8886.707777
819.733645,1110.308913,-3034.844362,-9576.193725
819.733965,2220.617826,-1628.453072,-9652.803275
819.734285,-296.082377,-666.185348,-9422.974625
819.734605,-370.102971,1702.473667,-9729.412825
819.734925,1702.473667,2368.659014,-10189.070123
819.735245,1998.556043,2294.638420,-10418.898773
819.735566,74.020594,962.267725,-9882.631924
819.735886,-1258.350101,-666.185348,-9346.365076
819.736206,-222.061783,-1850.514855,-9882.631924
819.736526,2368.659014,-1702.473667,-10265.679673
819.736846,1258.350101,-1406.391290,-9499.584175
819.737166,-1480.411884,-222.061783,-9806.022374
819.737486,148.041188,2442.679609,-11031.775171
819.737806,666.185348,2960.823768,-11031.775171
819.738126,-518.144159,2738.761985,-11184.994271
819.738447,-1776.494261,370.102971,-10112.460574
819.738767,-666.185348,-1554.432478,-10189.070123
819.739087,1480.411884,-1702.473667,-10648.727422
819.739407,1036.288319,-1110.308913,-10418.898773
819.739727,-1554.432478,0.000000,-9959.241474
819.740047,-740.205942,888.247130,-10265.679673
819.740367,962.267725,1998.556043,-10725.336972
819.740687,2294.638420,1998.556043,-10572.117872
819.741008,0.000000,740.205942,-9959.241474
819.741328,-1184.329507,0.000000,-9806.022374
819.741648,74.020594,-518.144159,-9806.022374
819.741968,518.144159,-592.164754,-9806.022374
819.742288,0.000000,-518.144159,-9499.584175
819.742608,-814.226536,0.000000,-9806.022374
819.742928,1406.391290,444.123565,-10265.679673
819.743248,2294.638420,592.164754,-10265.679673
819.743569,592.164754,740.205942,-9806.022374
819.743889,-296.082377,370.102971,-9652.803275
819.744209,888.247130,518.144159,-10342.289223
819.744529,1776.494261,-370.102971,-10035.851024
819.744849,666.185348,-296.082377,-9652.803275
819.745169,-444.123565,296.082377,-9806.022374
819.745489,2442.679609,1110.308913,-10189.070123
819.745809,2886.803174,1554.432478,-10572.117872
819.746129,962.267725,888.247130,-10342.289223
819.746450,-1554.432478,518.144159,-9806.022374
819.746770,-740.205942,962.267725,-9039.926876
819.747090,1406.391290,740.205942,-10112.460574
819.747410,962.267725,370.102971,-10342.289223
819.747730,-1036.288319,518.144159,-9806.022374
819.748050,-148.041188,1110.308913,-10495.508323
819.748370,2590.720797,1332.370696,-11031.775171
819.748690,2368.659014,518.144159,-10495.508323
819.749011,518.144159,0.000000,-10189.070123
819.749331,222.061783,-370.102971,-9806.022374
819.749651,1554.432478,888.247130,-10801.946522
819.749971,1628.453072,1554.432478,-10112.460574
819.750291,0.000000,1110.308913,-9652.803275
819.750611,74.020594,962.267725,-10035.851024
819.750931,2220.617826,0.000000,-9269.755526
819.751251,2294.638420,-370.102971,-9576.193725
819.751572,-444.123565,-814.226536,-9806.022374
819.751892,-2886.803174,-666.185348,-9346.365076
819.752212,-1554.432478,-148.041188,-9499.584175
819.752532,1406.391290,-444.123565,-9116.536426
819.752852,888.247130,592.164754,-9806.022374
819.753172,-518.144159,0.000000,-9499.584175
819.753492,740.205942,-1036.288319,-9806.022374
819.753812,2738.761985,-296.082377,-9882.631924
819.754133,888.247130,74.020594,-10035.851024
819.754453,-1480.411884,0.000000,-9806.022374
819.754773,-962.267725,-148.041188,-10035.851024
819.755093,1184.329507,74.020594,-10495.508323
819.755413,962.267725,222.061783,-10265.679673
819.755733,-1776.494261,222.061783,-10189.070123
819.756053,-1850.514855,-148.041188,-10342.289223
819.756373,0.000000,0.000000,-10495.508323
819.756693,-222.061783,0.000000,-10801.946522
819.757014,-1998.556043,-1110.308913,-9959.241474
819.757334,-2368.659014,-1110.308913,-9959.241474
819.757654,222.061783,-740.205942,-10495.508323
819.757974,1036.288319,0.000000,-10342.289223
819.758294,-518.144159,666.185348,-10572.117872
819.758614,-222.061783,740.205942,-10265.679673
819.758934,814.226536,0.000000,-10725.336972
819.759254,2072.576638,-148.041188,-10648.727422
819.759575,296.082377,-1036.288319,-9806.022374
819.759895,-1036.288319,-444.123565,-9882.631924
819.760215,518.144159,-444.123565,-9806.022374
819.760535,2368.659014,666.185348,-10342.289223
819.760855,1776.494261,666.185348,-9959.241474
819.761175,370.102971,74.020594,-9269.755526
819.761495,2072.576638,0.000000,-9652.803275
819.761815,2664.741391,0.000000,-9882.631924
819.762136,1406.391290,-592.164754,-10035.851024
819.762456,0.000000,0.000000,-9346.365076
819.762776,0.000000,444.123565,-10112.460574
819.763096,740.205942,444.123565,-9806.022374
819.763416,1258.350101,296.082377,-10035.851024
819.763736,296.082377,148.041188,-9729.412825
819.764056,1776.494261,74.020594,-9959.241474
819.764376,2886.803174,222.061783,-10418.898773
819.764696,1702.473667,518.144159,-10265.679673
819.765017,-370.102971,444.123565,-9959.241474
819.765337,-2072.576638,-222.061783,-9652.803275
819.765657,962.267725,-296.082377,-10189.070123
819.765977,2664.741391,444.123565,-9729.412825
819.766297,1184.329507,962.267725,-10878.556072
819.766617,1480.411884,1480.411884,-9882.631924
819.766937,2072.576638,2590.720797,-11031.775171
819.767257,2220.617826,2516.700203,-10801.946522
819.767578,962.267725,2294.638420,-10801.946522
819.767898,-1332.370696,1480.411884,-10112.460574
819.768218,-222.061783,148.041188,-10035.851024
819.768538,1554.432478,148.041188,-10189.070123
819.768858,814.226536,740.205942,-9806.022374
819.769178,-962.267725,1628.453072,-9729.412825
819.769498,-814.226536,2220.617826,-10418.898773
819.769818,518.144159,1776.494261,-10648.727422
819.770139,0.000000,1406.391290,-10035.851024
819.770459,-1258.350101,518.144159,-9806.022374
819.770779,-1998.556043,0.000000,-10189.070123
819.771099,592.164754,-444.123565,-8580.269578
819.771419,1184.329507,-740.205942,-9576.193725
819.771739,-888.247130,518.144159,-9576.193725
819.772059,-444.123565,1406.391290,-9806.022374
819.772379,1184.329507,1332.370696,-10112.460574
819.772699,666.185348,962.267725,-10112.460574
819.773020,-1702.473667,222.061783,-9806.022374
819.773340,-2886.803174,0.000000,-9269.755526
819.773660,-1924.535449,0.000000,-9576.193725
819.773980,148.041188,0.000000,-10572.117872
819.774300,296.082377,-370.102971,-9729.412825
819.774620,222.061783,-222.061783,-9652.803275
819.774940,1480.411884,148.041188,-10342.289223
819.775260,1998.556043,1406.391290,-10495.508323
819.775581,0.000000,1332.370696,-10265.679673
819.775901,-1850.514855,962.267725,-9959.241474
819.776221,-666.185348,-222.061783,-9959.241474
819.776541,1406.391290,-1406.391290,-10189.070123
819.776861,814.226536,-592.164754,-9806.022374
819.777181,370.102971,0.000000,-10418.898773
819.777501,2220.617826,518.144159,-10495.508323
819.777821,3775.050304,1924.535449,-10955.165621
819.778142,1776.494261,1628.453072,-10495.508323
819.778462,-740.205942,1110.308913,-9882.631924
819.778782,-370.102971,222.061783,-10035.851024
819.779102,814.226536,-370.102971,-9959.241474
819.779422,2590.720797,-1258.350101,-10035.851024
819.779742,2368.659014,-592.164754,-10189.070123
819.780062,1184.329507,-1110.308913,-9806.022374
819.780382,1998.556043,-592.164754,-10418.898773
819.780703,2146.597232,1184.329507,-10418.898773
819.781023,222.061783,2442.679609,-10035.851024
819.781343,-1332.370696,2072.576638,-9959.241474
819.781663,1554.432478,888.247130,-10342.289223
819.781983,2368.659014,-592.164754,-9882.631924
819.782303,814.226536,-1554.432478,-9729.412825
819.782623,-370.102971,-1850.514855,-9499.584175
819.782943,1924.535449,-592.164754,-10035.851024
819.783263,3108.864956,296.082377,-10265.679673
819.783584,1702.473667,962.267725,-10265.679673
819.783904,-296.082377,740.205942,-11414.822920
819.784224,0.000000,0.000000,-9959.241474
819.784544,1110.308913,0.000000,-10035.851024
819.784864,296.082377,74.020594,-10189.070123
819.785184,-444.123565,-296.082377,-9806.022374
819.785504,370.102971,-1628.453072,-10265.679673
819.785824,1776.494261,-1332.370696,-10418.898773
819.786145,74.020594,-592.164754,-10035.851024
819.786465,-1998.556043,222.061783,-9806.022374
819.786785,-1110.308913,1184.329507,-9882.631924
819.787105,740.205942,888.247130,-10342.289223
819.787425,518.144159,370.102971,-10035.851024
819.787745,-814.226536,444.123565,-9806.022374
819.788065,-444.123565,814.226536,-10035.851024
819.788385,1924.535449,148.041188,-10801.946522
819.788706,1702.473667,592.164754,-10265.679673
819.789026,-666.185348,666.185348,-9806.022374
819.789346,-2146.597232,0.000000,-9729.412825
819.789666,-148.041188,-148.041188,-10342.289223
819.789986,148.041188,296.082377,-10418.898773
819.790306,-1480.411884,74.020594,-9806.022374
819.790626,-1998.556043,74.020594,-9499.584175
819.790946,1406.391290,0.000000,-10189.070123
819.791266,2738.761985,-148.041188,-9959.241474
819.791587,444.123565,-370.102971,-9882.631924
819.791907,-1998.556043,-296.082377,-9346.365076
819.792227,-666.185348,-814.226536,-9806.022374
819.792547,2146.597232,-518.144159,-9499.584175
819.792867,1332.370696,-148.041188,-10035.851024
819.793187,-222.061783,74.020594,-9576.193725
819.793507,1628.453072,1184.329507,-10112.460574
819.793827,3182.885551,1554.432478,-10801.946522
819.794147,1702.473667,1702.473667,-10725.336972
819.794467,-222.061783,1554.432478,-9959.241474
819.794787,-740.205942,740.205942,-10035.851024
819.795107,1406.391290,370.102971,-10342.289223
819.795427,1850.514855,444.123565,-11721.261119
819.795747,74.020594,518.144159,-10495.508323
819.796067,-296.082377,1480.411884,-10342.289223
819.796387,888.247130,3478.967927,-10189.070123
819.796707,1036.288319,3034.844362,-10801.946522
819.797027,-296.082377,2220.617826,-10418.898773
819.797347,814.226536,296.082377,-10112.460574
819.797667,2738.761985,-1406.391290,-10112.460574
819.797987,3034.844362,-1554.432478,-10112.460574
819.798307,1406.391290,-740.205942,-9806.022374
819.798627,-592.164754,1184.329507,-9729.412825
819.798947,1406.391290,1480.411884,-10189.070123
819.799267,1776.494261,1702.473667,-10725.336972
819.799588,814.226536,1702.473667,-8963.317327
819.799908,-1184.329507,0.000000,-9499.584175
819.800228,1332.370696,-1110.308913,-9806.022374
819.800548,2960.823768,-1628.453072,-9806.022374
819.800868,1036.288319,-1184.329507,-9576.193725
819.801188,-2146.597232,370.102971,-9346.365076
819.801508,-666.185348,740.205942,-9729.412825
819.801828,1110.308913,1110.308913,-9806.022374
819.802148,296.082377,222.061783,-9806.022374
819.802468,-1406.391290,74.020594,-9269.755526
819.802788,-740.205942,74.020594,-9729.412825
819.803108,0.000000,-370.102971,-9959.241474
819.803428,444.123565,962.267725,-10112.460574
819.803748,-666.185348,1258.350101,-9959.241474
819.804068,0.000000,1258.350101,-10878.556072
819.804388,1258.350101,1036.288319,-10572.117872
819.804708,592.164754,222.061783,-10418.898773
819.805028,-740.205942,222.061783,-10189.070123
819.805348,-444.123565,0.000000,-11108.384721
819.805668,1628.453072,74.020594,-10725.336972
819.805988,1406.391290,296.082377,-10725.336972
819.806308,0.000000,296.082377,-10495.508323
819.806628,74.020594,296.082377,-10418.898773
819.806948,1554.432478,370.102971,-10725.336972
819.807268,2146.597232,666.185348,-10801.946522
819.807589,0.000000,-740.205942,-9959.241474
819.807909,-1702.473667,-740.205942,-9959.241474
819.808229,370.102971,-1036.288319,-10495.508323
819.808549,2072.576638,-518.144159,-10189.070123
819.808869,1480.411884,0.000000,-10035.851024
819.809189,-222.061783,148.041188,-9499.584175
819.809509,1184.329507,444.123565,-9729.412825
819.809829,2664.741391,1036.288319,-10189.070123
819.810149,1776.494261,0.000000,-10035.851024
819.810469,74.020594,-962.267725,-9806.022374
819.810789,518.144159,-1702.473667,-9652.803275
819.811109,1998.556043,-1332.370696,-8580.269578
819.811429,1110.308913,74.020594,-9806.022374
819.811749,-518.144159,1628.453072,-9806.022374
819.812069,-740.205942,1628.453072,-9806.022374
819.812389,1110.308913,1036.288319,-10955.165621
819.812709,814.226536,-148.041188,-10495.508323
819.813029,-1628.453072,-2146.597232,-9576.193725
819.813349,-1332.370696,-2738.761985,-9652.803275
819.813669,1258.350101,-1628.453072,-9806.022374
819.813989,2072.576638,-370.102971,-11031.775171
819.814309,1036.288319,74.020594,-10418.898773
819.814629,148.041188,1184.329507,-10572.117872
819.814949,1036.288319,1332.370696,-10572.117872
819.815269,1702.473667,814.226536,-10801.946522
819.815590,-444.123565,1036.288319,-10342.289223
819.815910,-2738.761985,444.123565,-10418.898773
819.816230,-370.102971,-666.185348,-10418.898773
819.816550,1480.411884,-888.247130,-10572.117872
819.816870,666.185348,-1036.288319,-10265.679673
819.817190,-1850.514855,74.020594,-10035.851024
819.817510,0.000000,1258.350101,-10725.336972
819.817830,1924.535449,2220.617826,-10648.727422
819.818150,1480.411884,2220.617826,-10189.070123
819.818470,-1184.329507,1332.370696,-9959.241474
819.818790,-1258.350101,296.082377,-10112.460574
819.819110,1776.494261,-296.082377,-10035.851024
819.819430,1776.494261,-370.102971,-9806.022374
819.819750,1702.473667,296.082377,-9882.631924
819.820070,1332.370696,962.267725,-9806.022374
819.820390,2738.761985,1702.473667,-10265.679673
819.820710,2072.576638,2368.659014,-10035.851024
819.821030,-148.041188,2664.741391,-9193.145976
819.821350,-814.226536,1628.453072,-9729.412825
819.821670,1184.329507,222.061783,-10035.851024
819.821990,2442.679609,-1406.391290,-9806.022374
819.822310,1258.350101,-1258.350101,-9422.974625
819.822630,0.000000,0.000000,-9576.193725
819.822950,1184.329507,296.082377,-10342.289223
819.823270,1850.514855,1036.288319,-10189.070123
819.823591,740.205942,1406.391290,-10112.460574
819.823911,-814.226536,1850.514855,-9729.412825
819.824231,-222.061783,370.102971,-10418.898773
819.824551,296.082377,-296.082377,-10265.679673
819.824871,0.000000,-592.164754,-10189.070123
819.825191,-740.205942,444.123565,-10189.070123
819.825511,666.185348,0.000000,-9882.631924
819.825831,1036.288319,148.041188,-10495.508323
819.826151,1036.288319,888.247130,-10572.117872
819.826471,-1480.411884,1702.473667,-10035.851024
819.826791,-962.267725,1702.473667,-9806.022374
819.827111,1480.411884,1924.535449,-10342.289223
819.827431,1258.350101,1406.391290,-10265.679673
819.827751,-296.082377,-296.082377,-10035.851024
819.828071,-592.164754,-1036.288319,-9806.022374
819.828391,0.000000,-1110.308913,-9959.241474
819.828711,-518.144159,-222.061783,-9959.241474
819.829031,-2442.679609,518.144159,-9959.241474
819.829351,-2368.659014,592.164754,-9806.022374
819.829671,-222.061783,962.267725,-9729.412825
819.829991,592.164754,962.267725,-10189.070123
819.830311,0.000000,962.267725,-9806.022374
819.830631,0.000000,370.102971,-10112.460574
819.830951,2294.638420,-666.185348,-10035.851024
819.831271,2146.597232,-962.267725,-9959.241474
819.831592,-148.041188,-1258.350101,-9652.803275
819.831912,-1406.391290,-592.164754,-9499.584175
819.832232,444.123565,-148.041188,-9959.241474
819.832552,1776.494261,1184.329507,-9882.631924
819.832872,1628.453072,1036.288319,-9959.241474
819.833192,-296.082377,592.164754,-10035.851024
819.833512,666.185348,-222.061783,-10342.289223
819.833832,2516.700203,-592.164754,-10189.070123
819.834152,1702.473667,-518.144159,-10572.117872
819.834472,370.102971,-370.102971,-10035.851024
819.834792,0.000000,518.144159,-10189.070123
819.835112,2072.576638,1258.350101,-10189.070123
819.835432,2590.720797,1628.453072,-10189.070123
819.835752,1998.556043,1184.329507,-9882.631924
819.836072,1628.453072,740.205942,-10342.289223
819.836392,3256.906145,296.082377,-10418.898773
819.836712,1998.556043,1258.350101,-10418.898773
819.837032,-444.123565,370.102971,-9959.241474
819.837352,-740.205942,444.123565,-9806.022374
819.837672,1110.308913,0.000000,-9959.241474
819.837992,1554.432478,814.226536,-10189.070123
819.838312,148.041188,148.041188,-10189.070123
819.838632,296.082377,0.000000,-9806.022374
819.838952,2516.700203,0.000000,-10342.289223
819.839272,2220.617826,444.123565,-10342.289223
819.839593,-518.144159,370.102971,-8503.660028
819.839913,-2664.741391,-370.102971,-9652.803275
819.840233,-370.102971,-888.247130,-9806.022374
819.840553,1332.370696,-222.061783,-10112.460574
819.840873,-444.123565,0.000000,-9959.241474
819.841193,-1258.350101,1332.370696,-10035.851024
819.841513,1036.288319,740.205942,-10265.679673
819.841833,3108.864956,1184.329507,-10572.117872
819.842153,962.267725,444.123565,-10418.898773
819.842473,-2146.597232,666.185348,-11031.775171
819.842793,-1850.514855,-962.267725,-9882.631924
819.843113,518.144159,-740.205942,-9882.631924
819.843433,666.185348,0.000000,-10189.070123
819.843753,-1184.329507,962.267725,-9729.412825
819.844073,-666.185348,814.226536,-9959.241474
819.844393,2072.576638,1110.308913,-10189.070123
819.844713,2072.576638,1406.391290,-10725.336972
819.845033,-518.144159,814.226536,-9806.022374
819.845353,-1184.329507,-1110.308913,-9959.241474
819.845673,814.226536,-1036.288319,-10035.851024
819.845993,2146.597232,-1110.308913,-9806.022374
819.846313,518.144159,-296.082377,-10112.460574
819.846633,-148.041188,740.205942,-9652.803275
819.846953,1776.494261,1036.288319,-10265.679673
819.847273,2960.823768,1628.453072,-10418.898773
819.847594,1332.370696,962.267725,-10189.070123
819.847914,-814.226536,74.020594,-10189.070123
819.848234,814.226536,-222.061783,-10342.289223
819.848554,2664.741391,-148.041188,-10112.460574
819.848874,1702.473667,370.102971,-10495.508323
819.849194,-518.144159,814.226536,-9806.022374
819.849514,-370.102971,1258.350101,-10265.679673
819.849834,1702.473667,1628.453072,-10572.117872
819.850154,962.267725,1628.453072,-10342.289223
819.850474,-1702.473667,814.226536,-9806.022374
819.850794,-1110.308913,0.000000,-9882.631924
819.851114,370.102971,0.000000,-10035.851024
819.851434,-296.082377,-592.164754,-9652.803275
819.851754,-2220.617826,-518.144159,-9576.193725
819.852074,-1036.288319,-962.267725,-9576.193725
819.852394,2960.823768,-296.082377,-10112.460574
819.852714,3478.967927,592.164754,-10342.289223
819.853034,518.144159,1036.288319,-10265.679673
819.853354,-1924.535449,666.185348,-9652.803275
819.853674,-518.144159,888.247130,-10189.070123
819.853994,888.247130,518.144159,-10648.727422
819.854314,-1258.350101,-666.185348,-10035.851024
819.854634,-2220.617826,-1702.473667,-9652.803275
819.854954,0.000000,-1776.494261,-10265.679673
819.855274,2072.576638,-888.247130,-9346.365076
819.855595,444.123565,-444.123565,-9959.241474
819.855915,-1480.411884,518.144159,-9806.022374
819.856235,296.082377,1332.370696,-10189.070123
819.856555,1924.535449,1850.514855,-10342.289223
819.856875,740.205942,1184.329507,-10342.289223
819.857195,-1184.329507,0.000000,-9806.022374
819.857515,-222.061783,-222.061783,-10189.070123
819.857835,1554.432478,-148.041188,-10112.460574
819.858155,740.205942,592.164754,-10495.508323
819.858475,-518.144159,1110.308913,-9882.631924
819.858795,0.000000,1258.350101,-10112.460574
819.859115,2220.617826,1184.329507,-10342.289223
819.859435,2664.741391,444.123565,-9806.022374
819.859755,296.082377,-222.061783,-9806.022374
819.860075,296.082377,-518.144159,-9729.412825
819.860395,2738.761985,-888.247130,-10112.460574
819.860715,3034.844362,0.000000,-9959.241474
819.861035,-296.082377,1110.308913,-10035.851024
819.861355,-1110.308913,962.267725,-10189.070123
819.861675,1628.453072,1332.370696,-10725.336972
819.861995,1406.391290,1110.308913,-10342.289223
819.862315,-296.082377,740.205942,-10112.460574
819.862635,-1406.391290,148.041188,-9806.022374
819.862955,666.185348,-296.082377,-10572.117872
819.863275,3108.864956,296.082377,-10495.508323
819.863596,1480.411884,740.205942,-10495.508323
819.863916,-518.144159,592.164754,-11031.775171
819.864236,1184.329507,370.102971,-10265.679673
819.864556,2960.823768,1258.350101,-10572.117872
819.864876,1110.308913,962.267725,-10189.070123
819.865196,-1628.453072,2442.679609,-9269.755526
819.865516,-518.144159,1924.535449,-10572.117872
819.865836,1924.535449,1184.329507,-10342.289223
819.866156,1998.556043,0.000000,-10112.460574
819.866476,-1480.411884,-888.247130,-9806.022374
819.866796,-1776.494261,-592.164754,-9806.022374
819.867116,814.226536,-1110.308913,-9729.412825
819.867436,370.102971,0.000000,-9806.022374
819.867756,-370.102971,296.082377,-9806.022374
819.868076,148.041188,1776.494261,-11108.384721
819.868396,1332.370696,1406.391290,-10418.898773
819.868716,1258.350101,1184.329507,-10112.460574
819.869036,-518.144159,-370.102971,-9806.022374
819.869356,-296.082377,-1480.411884,-9959.241474
819.869676,2072.576638,-1998.556043,-9959.241474
819.869996,1332.370696,-592.164754,-10265.679673
819.870316,-888.247130,222.061783,-10035.851024
819.870636,-1628.453072,962.267725,-9806.022374
819.870956,592.164754,1628.453072,-10418.898773
819.871276,1998.556043,1258.350101,-10189.070123
819.871597,74.020594,0.000000,-10035.851024
819.871917,-2368.659014,-1110.308913,-9882.631924
819.872237,-148.041188,-1332.370696,-10035.851024
819.872557,2368.659014,-296.082377,-10495.508323
819.872877,1998.556043,888.247130,-10265.679673
819.873197,1184.329507,888.247130,-10572.117872
819.873517,2738.761985,1184.329507,-10572.117872
819.873837,3256.906145,1850.514855,-10725.336972
819.874157,1480.411884,1628.453072,-11031.775171
819.874477,74.020594,1184.329507,-10418.898773
819.874797,1110.308913,1406.391290,-10342.289223
819.875117,2738.761985,592.164754,-9269.755526
819.875437,1554.432478,-1110.308913,-9882.631924
819.875757,-1258.350101,-1406.391290,-9576.193725
819.876077,-1554.432478,-962.267725,-9959.241474
819.876397,1184.329507,518.144159,-10418.898773
819.876717,2590.720797,1702.473667,-10035.851024
819.877037,592.164754,1628.453072,-10189.070123
819.877357,222.061783,296.082377,-9882.631924
819.877677,1110.308913,-1036.288319,-10112.460574
819.877997,1628.453072,-962.267725,-10189.070123
819.878317,0.000000,-962.267725,-9652.803275
819.878637,-1480.411884,-148.041188,-9576.193725
819.878957,222.061783,444.123565,-9806.022374
819.879277,888.247130,-148.041188,-9959.241474
819.879598,-518.144159,-1628.453072,-9729.412825
819.879918,-666.185348,-1332.370696,-9422.974625
819.880238,666.185348,-666.185348,-10189.070123
819.880558,888.247130,518.144159,-10112.460574
819.880878,-148.041188,296.082377,-9806.022374
819.881198,-3108.864956,1628.453072,-9806.022374
819.881518,-1480.411884,1258.350101,-10189.070123
819.881838,1480.411884,148.041188,-10265.679673
819.882158,518.144159,296.082377,-10035.851024
819.882478,-1480.411884,-444.123565,-9729.412825
819.882798,-962.267725,-592.164754,-9806.022374
819.883118,592.164754,-370.102971,-10265.679673
819.883438,74.020594,296.082377,-10189.070123
819.883758,-1554.432478,1036.288319,-8886.707777
819.884078,-1036.288319,1406.391290,-10265.679673
819.884398,1480.411884,1332.370696,-11031.775171
819.884718,1480.411884,1332.370696,-10648.727422
819.885038,-148.041188,370.102971,-9806.022374
819.885358,518.144159,-1184.329507,-9806.022374
819.885678,2442.679609,-962.267725,-10112.460574
819.885998,2294.638420,-518.144159,-10418.898773
819.886318,148.041188,814.226536,-10112.460574
819.886638,-962.267725,2738.761985,-9806.022374
819.886958,666.185348,1850.514855,-10572.117872
819.887278,1998.556043,888.247130,-10418.898773
819.887599,1480.411884,-518.144159,-9959.241474
819.887919,-1554.432478,-962.267725,-10112.460574
819.888239,-444.123565,222.061783,-10112.460574
819.888559,2072.576638,1110.308913,-10112.460574
819.888879,1924.535449,2368.659014,-10189.070123
819.889199,888.247130,2220.617826,-9806.022374
819.889519,2072.576638,2516.700203,-9882.631924
819.889839,3256.906145,1850.514855,-10342.289223
819.890159,1628.453072,740.205942,-9959.241474
819.890479,-444.123565,-1036.288319,-9652.803275
819.890799,-148.041188,-2072.576638,-9652.803275
819.891119,2146.597232,-1036.288319,-9882.631924
819.891439,2812.782580,74.020594,-10342.289223
819.891759,-148.041188,1554.432478,-9806.022374
819.892079,-1332.370696,3034.844362,-10035.851024
819.892399,1406.391290,3701.029710,-10418.898773
819.892719,2220.617826,1406.391290,-10265.679673
819.893039,-148.041188,-1406.391290,-9806.022374
819.893359,-1110.308913,-3923.091493,-9806.022374
819.893679,1110.308913,-4589.276840,-9882.631924
819.893999,1628.453072,-2146.597232,-10035.851024
819.894319,-222.061783,1258.350101,-10035.851024
819.894639,-1702.473667,3701.029710,-10342.289223
819.894959,592.164754,4515.256246,-10648.727422
819.895279,2368.659014,3552.988522,-10801.946522
819.895599,0.000000,814.226536,-10572.117872
819.895919,-1480.411884,-1776.494261,-9652.803275
819.896239,222.061783,-3997.112087,-9882.631924
819.896559,3256.906145,-3552.988522,-9729.412825
819.896880,1184.329507,-1036.288319,-10342.289223
819.897200,-2738.761985,1924.535449,-9959.241474
819.897520,-1258.350101,4071.132681,-10342.289223
819.897840,1258.350101,5033.400406,-10878.556072
819.898160,2072.576638,2590.720797,-10418.898773
819.898480,0.000000,-296.082377,-10112.460574
819.898800,-814.226536,-3701.029710,-9499.584175
819.899120,1702.473667,-5551.544565,-8963.317327
819.899440,3108.864956,-3478.967927,-10035.851024
819.899760,-370.102971,-740.205942,-9806.022374
819.900080,-1258.350101,1480.411884,-10342.289223
819.900400,1554.432478,3182.885551,-10495.508323
819.900720,2368.659014,3627.009116,-10342.289223
819.901040,0.000000,1924.535449,-10342.289223
819.901360,-1036.288319,-740.205942,-9806.022374
819.901680,1036.288319,-3552.988522,-9959.241474
819.902000,1924.535449,-4219.173869,-10035.851024
819.902320,148.041188,-3182.885551,-9116.536426
819.902640,-1480.411884,-592.164754,-9806.022374
819.902960,814.226536,2664.741391,-9959.241474
819.903280,3034.844362,5255.462188,-10801.946522
819.903600,1998.556043,4737.318029,-10878.556072
819.903920,-962.267725,1110.308913,-9806.022374
819.904240,-1110.308913,-2072.576638,-9806.022374
819.904560,-370.102971,-4441.235652,-9729.412825
819.904880,-962.267725,-3330.926739,-9346.365076
819.905200,-2072.576638,-666.185348,-9039.926876
819.905520,-370.102971,2146.597232,-10112.460574
819.905840,2294.638420,4219.173869,-10878.556072
819.906160,1184.329507,3849.070898,-10801.946522
819.906480,-962.267725,1702.473667,-8886.707777
819.906800,-370.102971,-1036.288319,-10189.070123
819.907121,2072.576638,-2516.700203,-10189.070123
819.907441,2368.659014,-2812.782580,-10265.679673
819.907761,-814.226536,-1850.514855,-9882.631924
819.908081,-962.267725,-592.164754,-10112.460574
819.908401,592.164754,1776.494261,-10648.727422
819.908721,888.247130,3923.091493,-10878.556072
819.909041,-888.247130,3404.947333,-10495.508323
819.909361,-592.164754,1628.453072,-9959.241474
819.909681,2738.761985,-1036.288319,-10725.336972
819.910001,3552.988522,-1850.514855,-10265.679673
819.910321,-74.020594,-1924.535449,-9806.022374
819.910641,-2590.720797,-222.061783,-9729.412825
819.910961,-1110.308913,1998.556043,-10112.460574
819.911281,1776.494261,3849.070898,-10265.679673
819.911601,666.185348,3256.906145,-10342.289223
819.911921,-888.247130,1924.535449,-9652.803275
819.912241,888.247130,0.000000,-10035.851024
819.912561,2886.803174,-1850.514855,-9576.193725
819.912881,1110.308913,-1554.432478,-9576.193725
819.913201,-962.267725,-1332.370696,-9422.974625
819.913521,-222.061783,592.164754,-9729.412825
819.913841,1924.535449,2368.659014,-9959.241474
819.914161,1924.535449,3108.864956,-10495.508323
819.914481,-148.041188,2960.823768,-9576.193725
819.914801,-370.102971,1184.329507,-9959.241474
819.915121,2220.617826,-1184.329507,-11031.775171
819.915441,1776.494261,-2072.576638,-9652.803275
819.915761,-1554.432478,-1776.494261,-9882.631924
819.916081,-1850.514855,-444.123565,-9806.022374
819.916401,666.185348,1998.556043,-10342.289223
819.916721,2664.741391,3182.885551,-11414.822920
819.917042,1110.308913,2590.720797,-10265.679673
819.917362,-296.082377,1480.411884,-10572.117872
819.917682,1924.535449,-370.102971,-10342.289223
819.918002,3997.112087,-740.205942,-10418.898773
819.918322,1258.350101,-1406.391290,-10112.460574
819.918642,444.123565,-592.164754,-9729.412825
819.918962,2294.638420,888.247130,-10265.679673
819.919282,2960.823768,2886.803174,-11644.651570
819.919602,518.144159,2960.823768,-10495.508323
819.919922,-2220.617826,1776.494261,-10112.460574
819.920242,-1036.288319,518.144159,-10112.460574
819.920562,1702.473667,-888.247130,-9806.022374
819.920882,962.267725,-1406.391290,-10265.679673
819.921202,-1776.494261,-1036.288319,-9806.022374
819.921522,-814.226536,0.000000,-10265.679673
819.921842,2072.576638,1184.329507,-10418.898773
819.922162,2220.617826,2220.617826,-10342.289223
819.922482,-814.226536,1406.391290,-9959.241474
819.922802,74.020594,0.000000,-9882.631924
819.923122,2886.803174,-1406.391290,-10035.851024
819.923442,2664.741391,-1998.556043,-9729.412825
819.923762,0.000000,-1924.535449,-9576.193725
819.924082,-1110.308913,-1258.350101,-9499.584175
819.924402,962.267725,0.000000,-10112.460574
819.924722,740.205942,962.267725,-10189.070123
819.925042,-1702.473667,0.000000,-8656.879127
819.925362,-2368.659014,-370.102971,-9652.803275
819.925682,518.144159,-962.267725,-10342.289223
819.926002,1554.432478,-1554.432478,-10189.070123
819.926322,-518.144159,-1406.391290,-9729.412825
819.926642,-1850.514855,-888.247130,-9499.584175
819.926962,296.082377,0.000000,-10418.898773
819.927283,1850.514855,888.247130,-10648.727422
819.927603,222.061783,888.247130,-10495.508323
819.927923,-1332.370696,1332.370696,-9652.803275
819.928243,962.267725,1036.288319,-10801.946522
819.928563,3923.091493,1036.288319,-10648.727422
819.928883,1776.494261,888.247130,-10801.946522
819.929203,-1998.556043,148.041188,-9882.631924
819.929523,-1258.350101,-444.123565,-9882.631924
819.929843,962.267725,-296.082377,-10572.117872
819.930163,-148.041188,0.000000,-10342.289223
819.930483,-2442.679609,-148.041188,-9499.584175
819.930803,-1258.350101,-962.267725,-9346.365076
819.931123,1184.329507,-1332.370696,-9729.412825
819.931443,1702.473667,-814.226536,-9882.631924
819.931763,-370.102971,-148.041188,-9729.412825
819.932083,-444.123565,74.020594,-9729.412825
819.932403,2146.597232,222.061783,-9959.241474
819.932723,3034.844362,0.000000,-9882.631924
819.933043,888.247130,-518.144159,-9652.803275
819.933363,74.020594,-518.144159,-10035.851024
819.933683,2220.617826,-740.205942,-10342.289223
819.934003,2516.700203,222.061783,-9806.022374
819.934323,0.000000,1110.308913,-9806.022374
819.934643,-1110.308913,1184.329507,-9806.022374
819.934963,1628.453072,1332.370696,-9499.584175
819.935283,2072.576638,888.247130,-10418.898773
819.935603,-2294.638420,296.082377,-9959.241474
819.935923,-4145.153275,0.000000,-9806.022374
819.936243,-296.082377,0.000000,-10418.898773
819.936563,2812.782580,1036.288319,-9882.631924
819.936883,222.061783,1628.453072,-10342.289223
819.937204,-1554.432478,1998.556043,-10342.289223
819.937524,814.226536,1554.432478,-10265.679673
819.937844,3849.070898,1702.473667,-10572.117872
819.938164,2516.700203,888.247130,-10495.508323
819.938484,-740.205942,0.000000,-9806.022374
819.938804,-296.082377,0.000000,-10572.117872
819.939124,2220.617826,1110.308913,-10495.508323
819.939444,2516.700203,1702.473667,-10342.289223
819.939764,148.041188,1998.556043,-10265.679673
819.940084,-518.144159,1998.556043,-10418.898773
819.940404,1332.370696,1258.350101,-10725.336972
819.940724,1184.329507,962.267725,-10189.070123
819.941044,-1406.391290,0.000000,-9729.412825
819.941364,-2146.597232,370.102971,-9652.803275
819.941684,666.185348,148.041188,-9806.022374
819.942004,2886.803174,1110.308913,-10112.460574
819.942324,444.123565,1332.370696,-9806.022374
819.942644,-666.185348,666.185348,-9499.584175
819.942964,1406.391290,1184.329507,-9652.803275
819.943284,1406.391290,1924.535449,-10035.851024
819.943604,888.247130,1406.391290,-9806.022374
819.943924,-370.102971,222.061783,-9269.755526
819.944244,1998.556043,-962.267725,-9882.631924
819.944564,4219.173869,-592.164754,-9806.022374
819.944884,1776.494261,0.000000,-9806.022374
819.945204,-666.185348,666.185348,-9422.974625
819.945524,74.020594,740.205942,-9729.412825
819.945844,2072.576638,1036.288319,-10725.336972
819.946164,888.247130,148.041188,-10495.508323
819.946484,-3478.967927,370.102971,-9959.241474
819.946804,-2664.741391,0.000000,-10112.460574
819.947124,1628.453072,0.000000,-10265.679673
819.947445,2812.782580,74.020594,-10112.460574
819.947765,444.123565,0.000000,-10955.165621
819.948085,-444.123565,-296.082377,-9729.412825
819.948405,1110.308913,148.041188,-11261.603821
819.948725,1776.494261,1480.411884,-10955.165621
819.949045,-1036.288319,740.205942,-10189.070123
819.949365,-1850.514855,814.226536,-11644.651570
819.949685,518.144159,0.000000,-10725.336972
819.950005,1258.350101,-1036.288319,-10189.070123
819.950325,370.102971,-1110.308913,-10112.460574
819.950645,-296.082377,-1184.329507,-9806.022374
819.950965,74.020594,370.102971,-10265.679673
819.951285,1258.350101,74.020594,-10648.727422
819.951605,592.164754,0.000000,-10265.679673
819.951925,-2146.597232,-592.164754,-9422.974625
819.952245,222.061783,-888.247130,-10265.679673
819.952565,2590.720797,-814.226536,-10189.070123
819.952885,2664.741391,-592.164754,-10265.679673
819.953205,888.247130,0.000000,-10112.460574
819.953525,1850.514855,-740.205942,-9729.412825
819.953845,2442.679609,-444.123565,-10801.946522
819.954165,592.164754,0.000000,-10418.898773
819.954485,-1554.432478,0.000000,-9959.241474
819.954805,-1332.370696,296.082377,-9806.022374
819.955125,444.123565,74.020594,-10035.851024
819.955445,666.185348,0.000000,-10265.679673
819.955765,-518.144159,-518.144159,-10189.070123
819.956085,-518.144159,0.000000,-9959.241474
819.956405,1850.514855,-666.185348,-10112.460574
819.956725,2738.761985,444.123565,-10572.117872
819.957045,0.000000,296.082377,-9882.631924
819.957366,-1776.494261,962.267725,-9806.022374
819.957686,296.082377,740.205942,-9959.241474
819.958006,1480.411884,666.185348,-10189.070123
819.958326,1036.288319,518.144159,-10189.070123
819.958646,-1036.288319,-148.041188,-9806.022374
819.958966,-222.061783,-370.102971,-9959.241474
819.959286,1628.453072,222.061783,-10572.117872
819.959606,-592.164754,1110.308913,-10112.460574
819.959926,-2664.741391,592.164754,-10035.851024
819.960246,-962.267725,888.247130,-9959.241474
819.960566,1480.411884,296.082377,-10572.117872
819.960886,1406.391290,0.000000,-10418.898773
819.961206,-222.061783,0.000000,-10112.460574
819.961526,444.123565,444.123565,-9959.241474
819.961846,2294.638420,1110.308913,-10725.336972
819.962166,1554.432478,888.247130,-10189.070123
819.962486,-1628.453072,740.205942,-9806.022374
819.962806,-1406.391290,296.082377,-9729.412825
819.963126,814.226536,148.041188,-10265.679673
819.963446,1332.370696,-148.041188,-9806.022374
819.963766,370.102971,74.020594,-9729.412825
819.964086,0.000000,444.123565,-9652.803275
819.964406,2294.638420,962.267725,-10801.946522
819.964726,2072.576638,1924.535449,-10265.679673
819.965046,518.144159,1110.308913,-9806.022374
819.965366,-1184.329507,1554.432478,-9806.022374
819.965686,296.082377,1850.514855,-10418.898773
819.966006,2442.679609,1628.453072,-10495.508323
819.966326,666.185348,74.020594,-9346.365076
819.966646,-148.041188,0.000000,-9346.365076
819.966966,1776.494261,888.247130,-9882.631924
819.967286,2516.700203,2220.617826,-10725.336972
819.967607,1480.411884,1406.391290,-10418.898773
819.967927,-370.102971,1406.391290,-9652.803275
819.968247,-666.185348,74.020594,-9729.412825
819.968567,2072.576638,74.020594,-10495.508323
819.968887,1480.411884,296.082377,-9959.241474
819.969207,370.102971,888.247130,-10189.070123
819.969527,1110.308913,2146.597232,-10265.679673
819.969847,2442.679609,1776.494261,-11108.384721
819.970167,1554.432478,1110.308913,-10725.336972
819.970487,-2220.617826,-370.102971,-9116.536426
819.970807,-2516.700203,-592.164754,-9882.631924
819.971127,962.267725,-666.185348,-10265.679673
819.971447,2146.597232,222.061783,-10265.679673
819.971767,740.205942,370.102971,-10112.460574
819.972087,888.247130,1110.308913,-9729.412825
819.972407,2442.679609,888.247130,-10418.898773
819.972727,1998.556043,888.247130,-10495.508323
819.973047,-1036.288319,518.144159,-9959.241474
819.973367,-3182.885551,0.000000,-9499.584175
819.973687,296.082377,-1406.391290,-10112.460574
819.974007,2368.659014,-1628.453072,-9882.631924
819.974327,1036.288319,-1702.473667,-9729.412825
819.974647,-1184.329507,-1406.391290,-9652.803275
819.974967,-518.144159,0.000000,-10189.070123
819.975287,1110.308913,1110.308913,-10342.289223
819.975607,-592.164754,962.267725,-9576.193725
819.975927,-3404.947333,-370.102971,-9269.755526
819.976247,-888.247130,-1924.535449,-9806.022374
819.976567,2072.576638,-2072.576638,-9882.631924
819.976887,1850.514855,-1850.514855,-10112.460574
819.977207,222.061783,-296.082377,-9499.584175
819.977527,370.102971,444.123565,-9499.584175
819.977848,2738.761985,962.267725,-10648.727422
819.978168,1702.473667,-370.102971,-10418.898773
819.978488,-962.267725,-1258.350101,-9806.022374
819.978808,-1998.556043,-1258.350101,-9806.022374
819.979128,0.000000,-1332.370696,-10725.336972
819.979448,296.082377,-1406.391290,-10495.508323
819.979768,-740.205942,-1480.411884,-9882.631924
819.980088,-666.185348,-444.123565,-9959.241474
819.980408,1628.453072,0.000000,-11031.775171
819.980728,2590.720797,1628.453072,-11951.089769
819.981048,592.164754,814.226536,-10878.556072
819.981368,-518.144159,0.000000,-10265.679673
819.981688,0.000000,-1110.308913,-10725.336972
819.982008,1332.370696,0.000000,-9882.631924
819.982328,666.185348,-370.102971,-10495.508323
819.982648,296.082377,296.082377,-9959.241474
819.982968,2220.617826,1924.535449,-10648.727422
819.983288,2812.782580,2442.679609,-10418.898773
819.983608,1110.308913,1850.514855,-10418.898773
819.983928,-1628.453072,-518.144159,-9652.803275
819.984248,-1036.288319,-1110.308913,-9806.022374
819.984568,1332.370696,-2072.576638,-9806.022374
819.984888,2368.659014,-740.205942,-11338.213370
819.985208,666.185348,0.000000,-9499.584175
819.985528,814.226536,1480.411884,-9959.241474
819.985848,1776.494261,1776.494261,-10189.070123
819.986168,296.082377,2516.700203,-10265.679673
819.986488,-2220.617826,1258.350101,-9499.584175
819.986808,-2220.617826,0.000000,-9422.974625
819.987128,1110.308913,-1184.329507,-9652.803275
819.987448,1850.514855,-592.164754,-10342.289223
819.987769,444.123565,-740.205942,-9346.365076
819.988089,74.020594,518.144159,-9882.631924
819.988409,1628.453072,1924.535449,-10342.289223
819.988729,2294.638420,2738.761985,-10955.165621
819.989049,-1406.391290,3034.844362,-10265.679673
819.989369,-4811.338623,1998.556043,-9882.631924
819.989689,-2294.638420,518.144159,-10342.289223
819.990009,74.020594,-592.164754,-10418.898773
819.990329,1036.288319,-1332.370696,-9882.631924
819.990649,-518.144159,-740.205942,-9729.412825
819.990969,592.164754,222.061783,-10342.289223
819.991289,1998.556043,2664.741391,-10648.727422
819.991609,1332.370696,3182.885551,-10801.946522
819.991929,-666.185348,2220.617826,-9959.241474
819.992249,296.082377,888.247130,-10035.851024
819.992569,1850.514855,-148.041188,-10189.070123
819.992889,1924.535449,-222.061783,-10342.289223
819.993209,74.020594,148.041188,-9882.631924
819.993529,592.164754,1776.494261,-10265.679673
819.993849,2516.700203,2294.638420,-10878.556072
819.994169,2812.782580,2516.700203,-10418.898773
819.994489,-296.082377,1480.411884,-9806.022374
819.994809,-1850.514855,888.247130,-9806.022374
819.995129,148.041188,-222.061783,-9806.022374
819.995449,2072.576638,-444.123565,-9576.193725
819.995769,814.226536,-222.061783,-9499.584175
819.996089,666.185348,222.061783,-9806.022374
819.996409,3034.844362,1258.350101,-10265.679673
819.996729,4219.173869,2368.659014,-10342.289223
819.997049,2516.700203,2516.700203,-10112.460574
819.997370,-222.061783,1776.494261,-9729.412825
819.997690,1184.329507,0.000000,-10342.289223
819.998010,1998.556043,-444.123565,-9652.803275
819.998330,1554.432478,-1258.350101,-9806.022374
819.998650,444.123565,-1258.350101,-9422.974625
819.998970,740.205942,0.000000,-10035.851024
819.999290,2442.679609,962.267725,-10572.117872
819.999610,814.226536,1332.370696,-9959.241474
819.999930,-1924.535449,518.144159,-9959.241474
820.000250,-1554.432478,592.164754,-9806.022374
820.000570,1332.370696,296.082377,-9882.631924
820.000890,1850.514855,-148.041188,-10035.851024
820.001210,1036.288319,-148.041188,-9959.241474
820.001530,444.123565,-296.082377,-9806.022374
820.001850,1776.494261,-666.185348,-10418.898773
820.002170,1702.473667,-1184.329507,-9806.022374
820.002490,-888.247130,-1110.308913,-9499.584175
820.002810,-2146.597232,-222.061783,-10035.851024
820.003130,222.061783,148.041188,-10495.508323
820.003450,814.226536,0.000000,-9882.631924
820.003770,-518.144159,-888.247130,-10035.851024
820.004090,-1406.391290,-962.267725,-9576.193725
820.004410,-222.061783,-1332.370696,-10265.679673
820.004730,962.267725,296.082377,-11031.775171
820.005050,-666.185348,814.226536,-10265.679673
820.005370,-2072.576638,0.000000,-10112.460574
820.005690,-1406.391290,-962.267725,-10418.898773
820.006010,518.144159,-1406.391290,-10418.898773
820.006331,1110.308913,-666.185348,-10572.117872
820.006651,0.000000,-888.247130,-10112.460574
820.006971,1258.350101,74.020594,-10572.117872
820.007291,2146.597232,518.144159,-11261.603821
820.007611,222.061783,74.020594,-10035.851024
820.007931,-1258.350101,-962.267725,-9959.241474
820.008251,-444.123565,-518.144159,-10035.851024
820.008571,2738.761985,222.061783,-11261.603821
820.008891,2368.659014,962.267725,-10112.460574
820.009211,444.123565,1332.370696,-10112.460574
820.009531,-222.061783,1184.329507,-9882.631924
820.009851,2294.638420,222.061783,-10418.898773
820.010171,962.267725,-962.267725,-10189.070123
820.010491,-1628.453072,-1036.288319,-9729.412825
820.010811,-2220.617826,-1480.411884,-9039.926876
820.011131,814.226536,-1480.411884,-9729.412825
820.011451,2294.638420,-296.082377,-9806.022374
820.011771,0.000000,370.102971,-9806.022374
820.012091,0.000000,1554.432478,-8886.707777
820.012411,2220.617826,1628.453072,-10265.679673
820.012731,2664.741391,1628.453072,-9959.241474
820.013051,1406.391290,370.102971,-9652.803275
820.013371,-370.102971,-1258.350101,-9576.193725
820.013691,222.061783,-2220.617826,-9499.584175
820.014011,814.226536,-962.267725,-10035.851024
820.014331,-148.041188,370.102971,-9729.412825
820.014651,-1850.514855,1628.453072,-10189.070123
820.014971,-1110.308913,1924.535449,-10495.508323
820.015292,740.205942,1776.494261,-10878.556072
820.015612,-740.205942,1258.350101,-10112.460574
820.015932,-2368.659014,592.164754,-10342.289223
820.016252,-1406.391290,666.185348,-10035.851024
820.016572,2812.782580,1184.329507,-11108.384721
820.016892,2886.803174,1406.391290,-10572.117872
820.017212,592.164754,1480.411884,-10418.898773
820.017532,-222.061783,1406.391290,-10189.070123
820.017852,1184.329507,1628.453072,-10801.946522
820.018172,814.226536,2220.617826,-10648.727422
820.018492,-1628.453072,2960.823768,-10418.898773
820.018812,-2146.597232,1184.329507,-9882.631924
820.019132,444.123565,666.185348,-10035.851024
820.019452,1036.288319,-814.226536,-9729.412825
820.019772,74.020594,74.020594,-9806.022374
820.020092,0.000000,740.205942,-9422.974625
820.020412,2738.761985,1258.350101,-9806.022374
820.020732,2590.720797,2664.741391,-9959.241474
820.021052,0.000000,1554.432478,-9806.022374
820.021372,-888.247130,0.000000,-8886.707777
820.021692,888.247130,-740.205942,-9652.803275
820.022012,2812.782580,370.102971,-10265.679673
820.022332,2516.700203,666.185348,-10342.289223
820.022652,814.226536,1480.411884,-9576.193725
820.022972,1110.308913,2072.576638,-10112.460574
820.023292,2812.782580,1406.391290,-10112.460574
820.023612,1406.391290,-222.061783,-9806.022374
820.023932,-518.144159,-370.102971,-9499.584175
820.024252,74.020594,0.000000,-10342.289223
820.024573,2590.720797,-444.123565,-10418.898773
820.024893,740.205942,962.267725,-10418.898773
820.025213,-296.082377,148.041188,-9882.631924
820.025533,-592.164754,1258.350101,-9882.631924
820.025853,1702.473667,1628.453072,-10955.165621
820.026173,2146.597232,444.123565,-10725.336972
820.026493,-444.123565,222.061783,-10265.679673
820.026813,-1480.411884,-1702.473667,-9959.241474
820.027133,592.164754,-1332.370696,-10572.117872
820.027453,2442.679609,-444.123565,-10189.070123
820.027773,1258.350101,814.226536,-11874.480219
820.028093,-1850.514855,1110.308913,-9729.412825
820.028413,0.000000,1554.432478,-10725.336972
820.028733,1702.473667,1258.350101,-10648.727422
820.029053,0.000000,74.020594,-9959.241474
820.029373,-1554.432478,-1258.350101,-9882.631924
820.029693,74.020594,-1998.556043,-10418.898773
820.030013,1110.308913,-1554.432478,-10342.289223
820.030333,592.164754,-740.205942,-10265.679673
820.030653,-962.267725,0.000000,-9422.974625
820.030973,-1036.288319,296.082377,-10265.679673
820.031293,1702.473667,740.205942,-10648.727422
820.031613,888.247130,-592.164754,-10189.070123
820.031933,-666.185348,-1554.432478,-9499.584175
820.032253,-1258.350101,-2886.803174,-9346.365076
820.032573,888.247130,-2368.659014,-10189.070123
820.032893,962.267725,-1554.432478,-9652.803275
820.033213,-222.061783,0.000000,-10035.851024
820.033534,-222.061783,1776.494261,-9806.022374
820.033854,1554.432478,2368.659014,-10495.508323
820.034174,2146.597232,1258.350101,-10725.336972
820.034494,296.082377,-1036.288319,-10189.070123
820.034814,-1702.473667,-2294.638420,-9576.193725
820.035134,370.102971,-2738.761985,-9959.241474
820.035454,2368.659014,-1554.432478,-10035.851024
820.035774,1332.370696,222.061783,-10265.679673
820.036094,74.020594,1332.370696,-10035.851024
820.036414,740.205942,2146.597232,-10495.508323
820.036734,1406.391290,2812.782580,-11184.994271
820.037054,962.267725,1998.556043,-10572.117872
820.037374,-370.102971,222.061783,-10112.460574
820.037694,1406.391290,-370.102971,-10342.289223
820.038014,2960.823768,-1036.288319,-9882.631924
820.038334,1776.494261,-444.123565,-10418.898773
820.038654,-740.205942,148.041188,-9882.631924
820.038974,-592.164754,1184.329507,-10189.070123
820.039294,814.226536,1850.514855,-10342.289223
820.039614,-74.020594,1998.556043,-10265.679673
820.039934,-1406.391290,444.123565,-9346.365076
820.040254,-444.123565,518.144159,-10112.460574
820.040574,2368.659014,370.102971,-9422.974625
820.040894,2886.803174,296.082377,-10342.289223
820.041214,0.000000,-370.102971,-9576.193725
820.041534,-592.164754,222.061783,-9499.584175
820.041854,1702.473667,1776.494261,-8886.707777
820.042174,1554.432478,1850.514855,-10418.898773
820.042495,-1332.370696,1406.391290,-9806.022374
820.042815,-3627.009116,740.205942,-9269.755526
820.043135,-592.164754,0.000000,-10112.460574
820.043455,1554.432478,-444.123565,-9193.145976
820.043775,-370.102971,-740.205942,-9652.803275
820.044095,-2294.638420,0.000000,-9422.974625
820.044415,740.205942,814.226536,-10189.070123
820.044735,2886.803174,2294.638420,-10878.556072
820.045055,1258.350101,1776.494261,-10265.679673
820.045375,-814.226536,1924.535449,-9576.193725
820.045695,-518.144159,518.144159,-10035.851024
820.046015,1924.535449,-444.123565,-10189.070123
820.046335,-222.061783,0.000000,-10265.679673
820.046655,-1776.494261,666.185348,-9652.803275
820.046975,0.000000,1332.370696,-10572.117872
820.047295,2220.617826,2516.700203,-10648.727422
820.047615,962.267725,2590.720797,-10495.508323
820.047935,-222.061783,666.185348,-9882.631924
820.048255,0.000000,-666.185348,-10189.070123
820.048575,2220.617826,-518.144159,-10189.070123
820.048895,2590.720797,0.000000,-10495.508323
820.049215,0.000000,296.082377,-9806.022374
820.049535,-666.185348,1776.494261,-9882.631924
820.049855,1258.350101,2368.659014,-10725.336972
820.050175,1554.432478,2960.823768,-10495.508323
820.050495,-518.144159,814.226536,-9576.193725
820.050815,-2072.576638,-296.082377,-9422.974625
820.051135,962.267725,-1258.350101,-10189.070123
820.051456,2960.823768,-2664.741391,-9499.584175
820.051776,1776.494261,-1850.514855,-9652.803275
820.052096,0.000000,-370.102971,-9269.755526
820.052416,2294.638420,1184.329507,-10189.070123
820.052736,3478.967927,2368.659014,-10801.946522
820.053056,1924.535449,1406.391290,-10112.460574
820.053376,-1406.391290,148.041188,-9269.755526
820.053696,740.205942,-1110.308913,-9882.631924
820.054016,2442.679609,-1184.329507,-10342.289223
820.054336,0.000000,-296.082377,-10035.851024
820.054656,-3923.091493,-1184.329507,-9652.803275
820.054976,-666.185348,-370.102971,-9576.193725
820.055296,1480.411884,370.102971,-10265.679673
820.055616,1998.556043,1184.329507,-10801.946522
820.055936,296.082377,0.000000,-10035.851024
820.056256,-592.164754,444.123565,-11414.822920
820.056576,1036.288319,-1110.308913,-10572.117872
820.056896,1480.411884,-222.061783,-10112.460574
820.057216,-1332.370696,222.061783,-9882.631924
820.057536,-1554.432478,444.123565,-11031.775171
820.057856,1850.514855,888.247130,-11108.384721
820.058176,2516.700203,666.185348,-10572.117872
820.058496,0.000000,-518.144159,-9806.022374
820.058816,-444.123565,-296.082377,-9806.022374
820.059136,0.000000,-1184.329507,-10035.851024
820.059456,2442.679609,-740.205942,-10342.289223
820.059776,222.061783,-1406.391290,-9422.974625
820.060096,-2146.597232,-2516.700203,-9806.022374
820.060417,-888.247130,-2146.597232,-9269.755526
820.060737,222.061783,222.061783,-10878.556072
820.061057,0.000000,1406.391290,-10189.070123
820.061377,-222.061783,1258.350101,-10035.851024
820.061697,666.185348,592.164754,-10648.727422
820.062017,2442.679609,148.041188,-10572.117872
820.062337,962.267725,0.000000,-10418.898773
820.062657,-1924.535449,-296.082377,-10495.508323
820.062977,-518.144159,370.102971,-10189.070123
820.063297,2294.638420,1406.391290,-10495.508323
820.063617,1036.288319,1406.391290,-10418.898773
820.063937,-1628.453072,1850.514855,-9806.022374
820.064257,-1924.535449,1036.288319,-10265.679673
820.064577,814.226536,0.000000,-10189.070123
820.064897,2072.576638,-592.164754,-10342.289223
820.065217,370.102971,0.000000,-9806.022374
820.065537,222.061783,962.267725,-9729.412825
820.065857,2072.576638,2072.576638,-10572.117872
820.066177,1628.453072,3256.906145,-9882.631924
820.066497,-592.164754,1850.514855,-9729.412825
820.066817,-1184.329507,1258.350101,-10035.851024
820.067137,888.247130,0.000000,-10189.070123
820.067457,2738.761985,0.000000,-10572.117872
820.067777,1110.308913,518.144159,-9806.022374
820.068097,-370.102971,222.061783,-9269.755526
820.068417,1258.350101,1998.556043,-9959.241474
820.068737,1480.411884,3108.864956,-10112.460574
820.069057,-962.267725,2442.679609,-9882.631924
820.069377,-2368.659014,74.020594,-9269.755526
820.069698,-1036.288319,-888.247130,-9729.412825
820.070018,2368.659014,-2146.597232,-10035.851024
820.070338,2442.679609,-592.164754,-9959.241474
820.070658,-1406.391290,888.247130,-9806.022374
820.070978,-444.123565,2516.700203,-10035.851024
820.071298,888.247130,3775.050304,-10725.336972
820.071618,592.164754,2812.782580,-10418.898773
820.071938,-444.123565,1110.308913,-9652.803275
820.072258,148.041188,-592.164754,-10495.508323
820.072578,2516.700203,-2294.638420,-10112.460574
820.072898,3404.947333,-1184.329507,-9882.631924
820.073218,962.267725,444.123565,-9959.241474
820.073538,0.000000,2072.576638,-9882.631924
820.073858,1036.288319,3108.864956,-11031.775171
820.074178,296.082377,2664.741391,-10418.898773
820.074498,-1480.411884,1702.473667,-10112.460574
820.074818,-2590.720797,-370.102971,-9499.584175
820.075138,0.000000,-2368.659014,-10265.679673
820.075458,1850.514855,-1924.535449,-9729.412825
820.075778,1480.411884,-148.041188,-10342.289223
820.076098,1332.370696,0.000000,-9882.631924
820.076418,2220.617826,1332.370696,-10495.508323
820.076738,1628.453072,2516.700203,-10955.165621
820.077058,0.000000,2146.597232,-10189.070123
820.077378,-1184.329507,-1036.288319,-9346.365076
820.077698,518.144159,-2590.720797,-9806.022374
820.078018,2220.617826,-2368.659014,-9729.412825
820.078338,2442.679609,-1850.514855,-10189.070123
820.078659,1776.494261,222.061783,-9806.022374
820.078979,592.164754,1628.453072,-10265.679673
820.079299,2368.659014,2442.679609,-10725.336972
820.079619,74.020594,1332.370696,-9959.241474
820.079939,-1702.473667,-592.164754,-9882.631924
820.080259,-1702.473667,-2368.659014,-9806.022374
820.080579,-222.061783,-2738.761985,-9806.022374
820.080899,1036.288319,-2294.638420,-10265.679673
820.081219,-148.041188,-1332.370696,-9806.022374
820.081539,0.000000,148.041188,-10112.460574
820.081859,1628.453072,1110.308913,-10725.336972
820.082179,444.123565,1480.411884,-10648.727422
820.082499,-962.267725,740.205942,-9959.241474
820.082819,-1480.411884,-814.226536,-10189.070123
820.083139,1332.370696,-2960.823768,-10112.460574
820.083459,2220.617826,-3256.906145,-10112.460574
820.083779,592.164754,-2886.803174,-9729.412825
820.084099,370.102971,-962.267725,-9959.241474
820.084419,814.226536,1776.494261,-10648.727422
820.084739,666.185348,2960.823768,-12027.699319
820.085059,-1924.535449,74.020594,-9959.241474
820.085379,-2146.597232,-296.082377,-10265.679673
820.085699,-1776.494261,-1998.556043,-10495.508323
820.086019,1776.494261,-1480.411884,-9729.412825
820.086339,1406.391290,-518.144159,-10342.289223
820.086659,222.061783,0.000000,-10265.679673
820.086979,2146.597232,1554.432478,-10265.679673
820.087299,2368.659014,2590.720797,-11108.384721
820.087620,740.205942,3034.844362,-9959.241474
820.087940,-1036.288319,1332.370696,-9882.631924
820.088260,-962.267725,444.123565,-9806.022374
820.088580,740.205942,-1036.288319,-9806.022374
820.088900,2368.659014,-148.041188,-10955.165621
820.089220,0.000000,-444.123565,-9806.022374
820.089540,444.123565,592.164754,-9806.022374
820.089860,1776.494261,3404.947333,-10418.898773
820.090180,1406.391290,3552.988522,-11031.775171
820.090500,0.000000,1480.411884,-10112.460574
820.090820,-888.247130,-296.082377,-9499.584175
820.091140,222.061783,-1998.556043,-9806.022374
820.091460,444.123565,-2368.659014,-9499.584175
820.091780,222.061783,-1036.288319,-9806.022374
820.092100,0.000000,962.267725,-9576.193725
820.092420,1332.370696,2664.741391,-10648.727422
820.092740,1554.432478,4367.215058,-10648.727422
820.093060,0.000000,4219.173869,-10189.070123
820.093380,-1406.391290,1702.473667,-10265.679673
820.093700,-518.144159,-2220.617826,-9959.241474
820.094020,962.267725,-3256.906145,-9806.022374
820.094340,-444.123565,-1406.391290,-9499.584175
820.094660,-1628.453072,370.102971,-10495.508323
820.094980,0.000000,3182.885551,-10342.289223
820.095300,1184.329507,4219.173869,-11261.603821
820.095620,370.102971,3627.009116,-10572.117872
820.095940,-2146.597232,740.205942,-10112.460574
820.096260,-2146.597232,-1480.411884,-9959.241474
820.096580,1554.432478,-1702.473667,-9806.022374
820.096900,962.267725,-740.205942,-10265.679673
820.097220,222.061783,518.144159,-10265.679673
820.097540,-222.061783,888.247130,-10801.946522
820.097860,962.267725,2590.720797,-10648.727422
820.098180,1702.473667,2590.720797,-10418.898773
820.098500,1776.494261,2516.700203,-10112.460574
820.098820,-222.061783,962.267725,-10265.679673
820.099140,1406.391290,-1628.453072,-10801.946522
820.099460,1702.473667,-2368.659014,-10035.851024
820.099780,222.061783,-2516.700203,-9576.193725
820.100100,-814.226536,-296.082377,-9652.803275
820.100420,370.102971,1332.370696,-9269.755526
820.100740,2960.823768,2664.741391,-10495.508323
820.101060,888.247130,2368.659014,-9959.241474
820.101380,962.267725,1702.473667,-10342.289223
820.101700,1776.494261,444.123565,-10265.679673
820.102020,3182.885551,-1702.473667,-9806.022374
820.102340,2072.576638,-2738.761985,-9806.022374
820.102660,-740.205942,-2146.597232,-9269.755526
820.102980,-740.205942,-148.041188,-9806.022374
820.103300,3034.844362,2812.782580,-11644.651570
820.103620,2590.720797,3923.091493,-10112.460574
820.103940,1332.370696,2442.679609,-10418.898773
820.104260,0.000000,814.226536,-10112.460574
820.104580,1110.308913,-2072.576638,-10112.460574
820.104900,814.226536,-2368.659014,-10112.460574
820.105220,-370.102971,-2960.823768,-9576.193725
820.105540,0.000000,-2072.576638,-9729.412825
820.105860,1628.453072,444.123565,-10572.117872
820.106180,1332.370696,2664.741391,-10648.727422
820.106500,-444.123565,2590.720797,-9882.631924
820.106820,-1406.391290,1628.453072,-9806.022374
820.107140,1036.288319,74.020594,-10189.070123
820.107460,2516.700203,-1480.411884,-10112.460574
820.107780,592.164754,-3552.988522,-10265.679673
820.108100,-1924.535449,-2960.823768,-9269.755526
820.108420,-518.144159,-1554.432478,-10112.460574
820.108740,1184.329507,296.082377,-10189.070123
820.109060,-222.061783,2294.638420,-10801.946522
820.109380,-2664.741391,2442.679609,-9882.631924
820.109700,-740.205942,1184.329507,-10572.117872
820.110020,1332.370696,-814.226536,-10342.289223
820.110340,740.205942,-2146.597232,-9959.241474
820.110660,-1850.514855,-2590.720797,-9652.803275
820.110980,-2812.782580,-2072.576638,-9499.584175
820.111300,-222.061783,74.020594,-10112.460574
820.111619,-518.144159,1776.494261,-10418.898773
820.111939,-1480.411884,2368.659014,-9882.631924
820.112259,-1702.473667,1406.391290,-10035.851024
820.112579,2738.761985,148.041188,-10648.727422
820.112899,3034.844362,-296.082377,-10342.289223
820.113219,666.185348,-888.247130,-10495.508323
820.113539,0.000000,-1480.411884,-9576.193725
820.113859,1702.473667,-296.082377,-10035.851024
820.114179,2294.638420,1850.514855,-10725.336972
820.114499,-222.061783,2812.782580,-10189.070123
820.114819,-1258.350101,2368.659014,-10342.289223
820.115139,1406.391290,370.102971,-10265.679673
820.115459,3552.988522,0.000000,-10342.289223
820.115779,1998.556043,592.164754,-10648.727422
820.116099,0.000000,-296.082377,-9652.803275
820.116419,888.247130,1480.411884,-10648.727422
820.116739,1110.308913,2220.617826,-10648.727422
820.117059,296.082377,2368.659014,-10418.898773
820.117379,-1480.411884,518.144159,-9729.412825
820.117699,1480.411884,444.123565,-10801.946522
820.118019,3701.029710,1332.370696,-10725.336972
820.118339,2886.803174,814.226536,-10418.898773
820.118659,962.267725,148.041188,-10112.460574
820.118979,74.020594,1554.432478,-9039.926876
820.119299,962.267725,3627.009116,-10955.165621
820.119619,1924.535449,3775.050304,-10495.508323
820.119939,-444.123565,1110.308913,-9806.022374
820.120259,-1776.494261,-1554.432478,-9422.974625
820.120579,1036.288319,-2368.659014,-9346.365076
820.120899,1258.350101,-296.082377,-9882.631924
820.121219,592.164754,814.226536,-9729.412825
820.121539,-148.041188,1406.391290,-9959.241474
820.121859,592.164754,444.123565,-10265.679673
820.122179,740.205942,666.185348,-10112.460574
820.122499,-370.102971,0.000000,-9499.584175
820.122819,-888.247130,-370.102971,-9806.022374
820.123139,-518.144159,0.000000,-9806.022374
820.123459,1406.391290,-296.082377,-9652.803275
820.123779,148.041188,-1036.288319,-9346.365076
820.124099,-740.205942,-1036.288319,-9346.365076
820.124419,148.041188,-740.205942,-10495.508323
820.124739,1332.370696,814.226536,-9652.803275
820.125059,0.000000,1554.432478,-10112.460574
820.125379,-2294.638420,148.041188,-9652.803275
820.125699,-1258.350101,-1332.370696,-9576.193725
820.126019,370.102971,-740.205942,-10265.679673
820.126339,740.205942,296.082377,-9882.631924
820.126659,814.226536,1258.350101,-10342.289223
820.126979,740.205942,1258.350101,-10035.851024
820.127299,2664.741391,2146.597232,-10878.556072
820.127619,1702.473667,814.226536,-10801.946522
820.127939,-148.041188,-1480.411884,-10035.851024
820.128259,-962.267725,-1850.514855,-9652.803275
820.128579,592.164754,-592.164754,-10495.508323
820.128899,444.123565,740.205942,-9422.974625
