#time,accel_x,accel_y,accel_z
822.180367,740.205942,-222.061783,-9959.241474
822.180687,740.205942,0.000000,-10265.679673
822.181007,740.205942,148.041188,-10189.070123
822.181328,888.247130,148.041188,-10035.851024
822.181648,962.267725,148.041188,-10035.851024
822.181968,1036.288319,0.000000,-9882.631924
822.182288,518.144159,148.041188,-9806.022374
822.182609,296.082377,0.000000,-10035.851024
822.182929,222.061783,148.041188,-10112.460574
822.183249,814.226536,74.020594,-10112.460574
822.183570,518.144159,370.102971,-10189.070123
822.183890,370.102971,740.205942,-10112.460574
822.184210,370.102971,592.164754,-10112.460574
822.184530,518.144159,518.144159,-9806.022374
822.184851,666.185348,444.123565,-10112.460574
822.185171,666.185348,74.020594,-10418.898773
822.185491,444.123565,-296.082377,-10342.289223
822.185812,296.082377,0.000000,-10189.070123
822.186132,444.123565,370.102971,-9806.022374
822.186452,370.102971,814.226536,-10112.460574
822.186772,444.123565,888.247130,-10035.851024
822.187093,370.102971,666.185348,-10189.070123
822.187413,666.185348,296.082377,-9806.022374
822.187733,518.144159,-370.102971,-10189.070123
822.188054,444.123565,-148.041188,-9959.241474
822.188374,592.164754,0.000000,-10189.070123
822.188694,888.247130,0.000000,-9959.241474
822.189014,592.164754,0.000000,-9882.631924
822.189335,518.144159,0.000000,-10112.460574
822.189655,444.123565,74.020594,-10112.460574
822.189975,518.144159,-222.061783,-10112.460574
822.190295,370.102971,74.020594,-9652.803275
822.190616,0.000000,0.000000,-9959.241474
822.190936,74.020594,0.000000,-10112.460574
822.191256,74.020594,74.020594,-9882.631924
822.191577,74.020594,-222.061783,-10112.460574
822.191897,-444.123565,-370.102971,-9882.631924
822.192217,-444.123565,-962.267725,-10112.460574
822.192537,296.082377,-1110.308913,-10112.460574
822.192858,296.082377,-592.164754,-10035.851024
822.193178,-592.164754,-518.144159,-11568.042020
822.193498,-1036.288319,-444.123565,-10418.898773
822.193819,-148.041188,-888.247130,-10189.070123
822.194139,-666.185348,-1036.288319,-10265.679673
822.194459,-1258.350101,-1406.391290,-10035.851024
822.194779,-1480.411884,-1628.453072,-10342.289223
822.195100,-888.247130,-1554.432478,-10035.851024
822.195420,-814.226536,-1406.391290,-10035.851024
822.195740,-1850.514855,-1406.391290,-10112.460574
822.196061,-1702.473667,-2368.659014,-9959.241474
822.196381,-1406.391290,-1998.556043,-9882.631924
822.196701,-592.164754,-1628.453072,-10112.460574
822.197021,-814.226536,-1702.473667,-10035.851024
822.197342,-1406.391290,-2072.576638,-9959.241474
822.197662,-1406.391290,-1998.556043,-9806.022374
822.197982,-296.082377,-1258.350101,-10342.289223
822.198303,-592.164754,-592.164754,-10265.679673
822.198623,-2294.638420,-1406.391290,-10342.289223
822.198943,-3404.947333,-2590.720797,-10418.898773
822.199263,-2886.803174,-3108.864956,-10112.460574
822.199584,-2294.638420,-2960.823768,-10035.851024
822.199904,-1924.535449,-3034.844362,-9806.022374
822.200224,-2368.659014,-2960.823768,-10648.727422
822.200545,-2146.597232,-2368.659014,-9882.631924
822.200865,-444.123565,-1850.514855,-10035.851024
822.201185,888.247130,-666.185348,-10495.508323
822.201505,888.247130,-888.247130,-10342.289223
822.201826,-444.123565,-518.144159,-10725.336972
822.202146,-2146.597232,-1628.453072,-10265.679673
822.202466,-3108.864956,-2294.638420,-10112.460574
822.202787,-4219.173869,-3182.885551,-9959.241474
822.203107,-5699.585753,-3849.070898,-9422.974625
822.203427,-4663.297435,-4811.338623,-9576.193725
822.203747,-2220.617826,-4515.256246,-9729.412825
822.204068,296.082377,-3849.070898,-10035.851024
822.204388,888.247130,-2072.576638,-10342.289223
822.204708,370.102971,74.020594,-10418.898773
822.205028,1332.370696,1036.288319,-10342.289223
822.205349,1924.535449,1406.391290,-10265.679673
822.205669,1776.494261,444.123565,-10495.508323
822.205989,296.082377,-962.267725,-10342.289223
822.206310,-1702.473667,-2220.617826,-9882.631924
822.206630,-3404.947333,-3182.885551,-9959.241474
822.206950,-4959.379811,-3330.926739,-9576.193725
822.207270,-6069.688724,-3552.988522,-9499.584175
822.207591,-4589.276840,-4811.338623,-9039.926876
822.207911,-1332.370696,-5107.421000,-9422.974625
822.208231,888.247130,-3701.029710,-10112.460574
822.208552,2072.576638,-1332.370696,-10112.460574
822.208872,3330.926739,2516.700203,-10801.946522
822.209192,4145.153275,3404.947333,-10878.556072
822.209512,3404.947333,3701.029710,-11108.384721
822.209833,222.061783,1998.556043,-11108.384721
822.210153,-4071.132681,-1110.308913,-10878.556072
822.210473,-6365.771101,-3997.112087,-9729.412825
822.210794,-5847.626942,-6587.832884,-9346.365076
822.211114,-4737.318029,-7179.997637,-9346.365076
822.211434,-3923.091493,-5921.647536,-9039.926876
822.211754,-2220.617826,-2812.782580,-9499.584175
822.212075,0.000000,370.102971,-10342.289223
822.212395,2368.659014,3701.029710,-10725.336972
822.212715,3182.885551,4145.153275,-10955.165621
822.213036,2812.782580,2812.782580,-10342.289223
822.213356,2516.700203,666.185348,-10342.289223
822.213676,814.226536,-1554.432478,-10572.117872
822.213996,-1998.556043,-2960.823768,-10112.460574
822.214317,-4293.194464,-2886.803174,-9806.022374
822.214637,-5477.523971,-1702.473667,-9039.926876
822.214957,-6513.812290,-1850.514855,-9806.022374
822.215278,-7254.018232,-3478.967927,-9576.193725
822.215598,-5773.606348,-5995.668130,-9116.536426
822.215918,-2294.638420,-6291.750507,-8810.098227
822.216238,1850.514855,-4885.359217,-9806.022374
822.216559,3923.091493,-1702.473667,-10265.679673
822.216879,2812.782580,2368.659014,-10648.727422
822.217199,1628.453072,4441.235652,-10955.165621
822.217520,1036.288319,4589.276840,-10342.289223
822.217840,1258.350101,1998.556043,-11108.384721
822.218160,-814.226536,-1776.494261,-10725.336972
822.218480,-3775.050304,-4885.359217,-10572.117872
822.218801,-6883.915261,-6291.750507,-9959.241474
822.219121,-8216.285956,-5403.503377,-9652.803275
822.219441,-7328.038826,-4959.379811,-8963.317327
822.219761,-4959.379811,-5033.400406,-9116.536426
822.220082,0.000000,-5181.441594,-9652.803275
822.220402,2886.803174,-4367.215058,-10265.679673
822.220722,3034.844362,-1036.288319,-10342.289223
822.221043,3108.864956,1776.494261,-10648.727422
822.221363,3923.091493,4737.318029,-11031.775171
822.221683,3849.070898,3849.070898,-10265.679673
822.222003,1924.535449,1332.370696,-11261.603821
822.222324,-2516.700203,-1924.535449,-10189.070123
822.222644,-7031.956449,-5921.647536,-10112.460574
822.222964,-7550.100608,-7402.059420,-9346.365076
822.223285,-6883.915261,-8068.244768,-8810.098227
822.223605,-5107.421000,-8290.306550,-9576.193725
822.223925,-4219.173869,-6735.874072,-9193.145976
822.224245,-2368.659014,-3997.112087,-9729.412825
822.224566,1406.391290,0.000000,-9039.926876
822.224886,5329.482782,3404.947333,-11031.775171
822.225206,6883.915261,4959.379811,-11644.651570
822.225527,3775.050304,3330.926739,-11338.213370
822.225847,-740.205942,888.247130,-10265.679673
822.226167,-3256.906145,-1924.535449,-10265.679673
822.226487,-4145.153275,-3478.967927,-9959.241474
822.226808,-4145.153275,-4959.379811,-10035.851024
822.227128,-5699.585753,-5625.565159,-10112.460574
822.227448,-6883.915261,-6291.750507,-9039.926876
822.227769,-4663.297435,-6143.709319,-9346.365076
822.228089,-444.123565,-3997.112087,-9806.022374
822.228409,2146.597232,-222.061783,-10418.898773
822.228729,1184.329507,1924.535449,-9346.365076
822.229050,888.247130,4441.235652,-10342.289223
822.229370,3330.926739,3849.070898,-10495.508323
822.229690,5477.523971,3404.947333,-11491.432470
822.230011,3182.885551,1998.556043,-10955.165621
822.230331,-1924.535449,-1184.329507,-11184.994271
822.230651,-3997.112087,-2960.823768,-10035.851024
822.230971,-2960.823768,-5033.400406,-9806.022374
822.231292,-2886.803174,-4885.359217,-9729.412825
822.231612,-3849.070898,-2886.803174,-9193.145976
822.231932,-3330.926739,-1554.432478,-9346.365076
822.232253,1924.535449,0.000000,-9806.022374
822.232573,6883.915261,2220.617826,-10265.679673
822.232893,6513.812290,3404.947333,-11184.994271
822.233213,4885.359217,3034.844362,-10572.117872
822.233534,4737.318029,4219.173869,-10725.336972
822.233854,3552.988522,3923.091493,-11031.775171
822.234174,666.185348,3775.050304,-10801.946522
822.234494,-2442.679609,1702.473667,-10189.070123
822.234815,-3923.091493,-1480.411884,-9576.193725
822.235135,-2960.823768,-4367.215058,-9499.584175
822.235455,-2516.700203,-5255.462188,-9193.145976
822.235776,-1998.556043,-3775.050304,-9269.755526
822.236096,1110.308913,-370.102971,-9882.631924
822.236416,3849.070898,3034.844362,-10572.117872
822.236736,4515.256246,4737.318029,-10112.460574
822.237057,4589.276840,4737.318029,-10189.070123
822.237377,4737.318029,3923.091493,-10572.117872
822.237697,4219.173869,2812.782580,-10572.117872
822.238018,1406.391290,1110.308913,-11108.384721
822.238338,-1110.308913,-740.205942,-9576.193725
822.238658,-2664.741391,-888.247130,-9039.926876
822.238978,-2886.803174,-888.247130,-10189.070123
822.239232,-4441.235652,-1332.370696,-9806.022374
822.239552,-5403.503377,-1332.370696,-9422.974625
822.239872,-3182.885551,-1998.556043,-9346.365076
822.240192,2368.659014,-1406.391290,-11031.775171
822.240512,5107.421000,-222.061783,-10342.289223
822.240832,4663.297435,2146.597232,-9959.241474
822.241152,3182.885551,3478.967927,-10418.898773
822.241472,2812.782580,4071.132681,-11261.603821
822.241792,2442.679609,3997.112087,-11568.042020
822.242112,-888.247130,2812.782580,-10572.117872
822.242432,-3256.906145,0.000000,-10112.460574
822.242752,-2664.741391,-2886.803174,-9806.022374
822.243072,-2220.617826,-3552.988522,-10035.851024
822.243392,-2368.659014,-3923.091493,-9499.584175
822.243712,-1850.514855,-3256.906145,-9499.584175
822.244032,740.205942,-1110.308913,-9806.022374
822.244352,2146.597232,2146.597232,-10189.070123
822.244672,1406.391290,3849.070898,-10418.898773
822.244992,592.164754,2442.679609,-10189.070123
822.245312,1998.556043,1184.329507,-10112.460574
822.245632,4145.153275,296.082377,-10648.727422
822.245951,3552.988522,222.061783,-10342.289223
822.246271,1480.411884,296.082377,-10342.289223
822.246591,-370.102971,-296.082377,-9882.631924
822.246911,-740.205942,0.000000,-10648.727422
822.247231,-518.144159,-1406.391290,-9806.022374
822.247551,-2442.679609,-3034.844362,-9729.412825
822.247871,-2738.761985,-4145.153275,-9422.974625
822.248191,-222.061783,-3923.091493,-9806.022374
822.248511,1110.308913,-2368.659014,-10035.851024
822.248831,1998.556043,666.185348,-9806.022374
822.249151,3034.844362,3701.029710,-10495.508323
822.249471,4589.276840,3627.009116,-11184.994271
822.249791,3552.988522,3849.070898,-11031.775171
822.250111,518.144159,2738.761985,-10495.508323
822.250431,-2220.617826,-1554.432478,-9806.022374
822.250751,-1406.391290,-3775.050304,-10342.289223
822.251071,-1924.535449,-5329.482782,-9422.974625
822.251391,-3330.926739,-5551.544565,-9499.584175
822.251711,-2590.720797,-3108.864956,-9193.145976
822.252031,74.020594,-74.020594,-10801.946522
822.252351,1850.514855,2442.679609,-11108.384721
822.252671,888.247130,2590.720797,-10112.460574
822.252991,1258.350101,1850.514855,-9729.412825
822.253311,2664.741391,148.041188,-10418.898773
822.253631,3108.864956,0.000000,-10418.898773
822.253951,1776.494261,-666.185348,-10265.679673
822.254271,592.164754,-370.102971,-9652.803275
822.254591,370.102971,-370.102971,-9806.022374
822.254911,-962.267725,-740.205942,-9959.241474
822.255231,-2516.700203,-1258.350101,-9729.412825
822.255551,-3849.070898,-3182.885551,-9422.974625
822.255871,-2146.597232,-2442.679609,-9882.631924
822.256191,-814.226536,-518.144159,-9806.022374
822.256511,-444.123565,2146.597232,-10418.898773
822.256831,74.020594,2294.638420,-9882.631924
822.257151,3552.988522,1332.370696,-10955.165621
822.257471,4885.359217,3404.947333,-10801.946522
822.257791,2738.761985,5107.421000,-10955.165621
822.258111,0.000000,4441.235652,-10572.117872
822.258431,0.000000,2368.659014,-10342.289223
822.258751,148.041188,148.041188,-10418.898773
822.259071,-1480.411884,-1184.329507,-10035.851024
822.259391,-2664.741391,-2738.761985,-9116.536426
822.259711,-518.144159,-2368.659014,-9882.631924
822.260031,2590.720797,370.102971,-9806.022374
822.260351,2886.803174,1406.391290,-9806.022374
822.260671,74.020594,2072.576638,-9806.022374
822.260991,370.102971,1258.350101,-9729.412825
822.261311,2664.741391,0.000000,-9882.631924
822.261631,2590.720797,592.164754,-10189.070123
822.261951,1998.556043,1406.391290,-9806.022374
822.262271,1332.370696,1924.535449,-9959.241474
822.262591,1036.288319,1628.453072,-10878.556072
822.262911,962.267725,1628.453072,-10035.851024
822.263231,-1998.556043,-148.041188,-9806.022374
822.263551,-2812.782580,-3256.906145,-9346.365076
822.263871,-518.144159,-2220.617826,-9499.584175
822.264191,-370.102971,-1110.308913,-9652.803275
822.264511,296.082377,-740.205942,-9116.536426
822.264831,2664.741391,1110.308913,-9806.022374
822.265151,4663.297435,2738.761985,-10648.727422
822.265471,3552.988522,3552.988522,-11031.775171
822.265791,1406.391290,3775.050304,-10112.460574
822.266111,-370.102971,1036.288319,-10112.460574
822.266431,370.102971,0.000000,-10418.898773
822.266751,-1406.391290,-296.082377,-9806.022374
822.267071,-2960.823768,-2220.617826,-9806.022374
822.267391,-2146.597232,-2294.638420,-9346.365076
822.267711,-740.205942,-592.164754,-10572.117872
822.268031,296.082377,666.185348,-10418.898773
822.268351,0.000000,814.226536,-10035.851024
822.268670,-296.082377,-888.247130,-9729.412825
822.268990,1332.370696,-1998.556043,-10035.851024
822.269310,2664.741391,-74.020594,-10648.727422
822.269630,2368.659014,2368.659014,-10725.336972
822.269950,1702.473667,3775.050304,-11338.213370
822.270270,2146.597232,2220.617826,-10878.556072
822.270590,1776.494261,222.061783,-10572.117872
822.270910,-592.164754,370.102971,-10035.851024
822.271230,-3034.844362,-296.082377,-10342.289223
822.271550,-962.267725,-2368.659014,-10801.946522
822.271870,222.061783,-2664.741391,-10035.851024
822.272190,-444.123565,-1776.494261,-9806.022374
822.272510,-1258.350101,-1110.308913,-9039.926876
822.272830,1184.329507,222.061783,-9652.803275
822.273150,3849.070898,740.205942,-10725.336972
822.273470,3404.947333,1702.473667,-10265.679673
822.273790,444.123565,2442.679609,-10342.289223
822.274110,0.000000,1776.494261,-10035.851024
822.274430,2146.597232,1110.308913,-10265.679673
822.274750,1702.473667,-888.247130,-10112.460574
822.275070,74.020594,-1776.494261,-9882.631924
822.275390,1036.288319,-962.267725,-10112.460574
822.275710,962.267725,592.164754,-11644.651570
822.276030,-666.185348,1998.556043,-10725.336972
822.276350,-2442.679609,1258.350101,-9652.803275
822.276670,-2220.617826,-1036.288319,-9729.412825
822.276990,592.164754,-962.267725,-9959.241474
822.277310,1184.329507,-1036.288319,-10112.460574
822.277630,666.185348,-518.144159,-9882.631924
822.277950,962.267725,444.123565,-9959.241474
822.278270,1924.535449,2294.638420,-10495.508323
822.278590,1554.432478,2960.823768,-10418.898773
822.278910,-1036.288319,1924.535449,-10112.460574
822.279230,-2368.659014,-1036.288319,-9729.412825
822.279550,-1184.329507,-2294.638420,-9882.631924
822.279870,-1406.391290,-1998.556043,-10189.070123
822.280190,-1480.411884,-1406.391290,-10112.460574
822.280510,-518.144159,-666.185348,-9729.412825
822.280830,1406.391290,296.082377,-10495.508323
822.281150,1776.494261,1480.411884,-10572.117872
822.281470,592.164754,2368.659014,-10801.946522
822.281790,-74.020594,1702.473667,-10035.851024
822.282110,1776.494261,1850.514855,-9959.241474
822.282430,3330.926739,814.226536,-10342.289223
822.282750,2146.597232,0.000000,-10265.679673
822.283070,-518.144159,-370.102971,-9729.412825
822.283390,-444.123565,-222.061783,-9959.241474
822.283710,518.144159,740.205942,-10342.289223
822.284030,370.102971,1036.288319,-9959.241474
822.284350,-370.102971,-370.102971,-9576.193725
822.284670,370.102971,518.144159,-10112.460574
822.284990,1998.556043,-666.185348,-10265.679673
822.285310,2368.659014,-666.185348,-10112.460574
822.285630,2220.617826,1110.308913,-9576.193725
822.285950,3034.844362,3256.906145,-10265.679673
822.286270,3627.009116,5181.441594,-10801.946522
822.286590,3108.864956,5255.462188,-10955.165621
822.286910,74.020594,2442.679609,-10342.289223
822.287230,-1258.350101,0.000000,-9882.631924
822.287550,296.082377,-2294.638420,-9959.241474
822.287870,148.041188,-2812.782580,-9959.241474
822.288190,-592.164754,-888.247130,-9576.193725
822.288510,148.041188,222.061783,-9959.241474
822.288830,1628.453072,2590.720797,-10572.117872
822.289150,1998.556043,3701.029710,-10648.727422
822.289470,888.247130,2812.782580,-10112.460574
822.289790,740.205942,444.123565,-9806.022374
822.290110,1850.514855,-814.226536,-10572.117872
822.290430,1628.453072,-1036.288319,-10035.851024
822.290750,74.020594,0.000000,-9729.412825
822.291070,74.020594,0.000000,-9806.022374
822.291390,814.226536,962.267725,-9882.631924
822.291709,-370.102971,1924.535449,-10572.117872
822.292029,-2368.659014,1110.308913,-9806.022374
822.292349,-1258.350101,-148.041188,-9576.193725
822.292669,-370.102971,-2368.659014,-9729.412825
822.292989,1110.308913,-1924.535449,-9806.022374
822.293309,444.123565,-666.185348,-9499.584175
822.293629,370.102971,148.041188,-9882.631924
822.293949,1628.453072,1850.514855,-10648.727422
822.294269,1554.432478,3182.885551,-11031.775171
822.294589,-518.144159,2960.823768,-10342.289223
822.294909,-1036.288319,1110.308913,-10035.851024
822.295229,0.000000,-1184.329507,-9959.241474
822.295549,962.267725,-1332.370696,-10265.679673
822.295869,296.082377,148.041188,-9959.241474
822.296189,74.020594,1036.288319,-9959.241474
822.296509,1184.329507,518.144159,-10342.289223
822.296829,1258.350101,1258.350101,-10418.898773
822.297149,518.144159,148.041188,-8886.707777
822.297469,-814.226536,-962.267725,-9652.803275
822.297789,1036.288319,-1924.535449,-9806.022374
822.298109,2590.720797,-1332.370696,-9959.241474
822.298429,1628.453072,-222.061783,-10648.727422
822.298749,222.061783,-1110.308913,-9499.584175
822.299069,740.205942,-1554.432478,-10189.070123
822.299389,1036.288319,-74.020594,-10189.070123
822.299709,-1702.473667,222.061783,-9806.022374
822.300029,-2442.679609,0.000000,-10035.851024
822.300349,-148.041188,-1554.432478,-9806.022374
822.300669,2368.659014,-2738.761985,-10189.070123
822.300989,1702.473667,-1776.494261,-9729.412825
822.301309,444.123565,-222.061783,-9346.365076
822.301629,1702.473667,962.267725,-10265.679673
822.301949,2146.597232,2072.576638,-10955.165621
822.302269,148.041188,2516.700203,-10189.070123
822.302589,-1998.556043,1036.288319,-10112.460574
822.302909,-1184.329507,-1036.288319,-9806.022374
822.303229,0.000000,-1480.411884,-10418.898773
822.303549,-296.082377,-888.247130,-10342.289223
822.303869,-1258.350101,222.061783,-9882.631924
822.304189,0.000000,74.020594,-9959.241474
822.304509,1554.432478,1258.350101,-10955.165621
822.304829,888.247130,1702.473667,-10725.336972
822.305149,-1628.453072,814.226536,-10418.898773
822.305469,-888.247130,-814.226536,-10189.070123
822.305789,1258.350101,-1258.350101,-9882.631924
822.306109,1628.453072,-222.061783,-10495.508323
822.306429,-222.061783,222.061783,-9806.022374
822.306749,-962.267725,1258.350101,-10035.851024
822.307069,1628.453072,1998.556043,-10189.070123
822.307389,1406.391290,1702.473667,-10495.508323
822.307709,222.061783,148.041188,-10265.679673
822.308029,-888.247130,-2738.761985,-9576.193725
822.308349,-222.061783,-3627.009116,-9652.803275
822.308669,0.000000,-1850.514855,-9806.022374
822.308989,-1480.411884,1184.329507,-9729.412825
822.309309,-1554.432478,2738.761985,-9882.631924
822.309629,2220.617826,3108.864956,-10112.460574
822.309949,3478.967927,4737.318029,-10878.556072
822.310269,2516.700203,2442.679609,-10112.460574
822.310589,1924.535449,814.226536,-10035.851024
822.310909,3404.947333,-148.041188,-9806.022374
822.311229,3701.029710,1184.329507,-10035.851024
822.311549,1332.370696,962.267725,-9882.631924
822.311869,-444.123565,1702.473667,-9652.803275
822.312189,0.000000,2812.782580,-9806.022374
822.312509,592.164754,4737.318029,-10955.165621
822.312829,888.247130,4145.153275,-10648.727422
822.313149,-148.041188,2294.638420,-10035.851024
822.313469,1110.308913,-370.102971,-10112.460574
822.313789,2294.638420,-1258.350101,-9806.022374
822.314109,888.247130,-1406.391290,-9959.241474
822.314428,666.185348,-1554.432478,-9193.145976
822.314748,2146.597232,518.144159,-9806.022374
822.315068,3849.070898,2886.803174,-10801.946522
822.315388,2442.679609,3182.885551,-10572.117872
822.315708,370.102971,1628.453072,-9193.145976
822.316028,222.061783,296.082377,-9576.193725
822.316348,962.267725,-1036.288319,-10265.679673
822.316668,592.164754,-1554.432478,-9652.803275
822.316988,-888.247130,-1776.494261,-9116.536426
822.317308,-296.082377,-1776.494261,-9346.365076
822.317628,1110.308913,-962.267725,-10112.460574
822.317948,148.041188,1332.370696,-10342.289223
822.318268,-1850.514855,1628.453072,-9806.022374
822.318588,-1036.288319,2072.576638,-9959.241474
822.318908,740.205942,1998.556043,-10265.679673
822.319228,0.000000,1184.329507,-10189.070123
822.319548,-1184.329507,592.164754,-9806.022374
822.319868,-3034.844362,-148.041188,-9576.193725
822.320188,-518.144159,-962.267725,-10725.336972
822.320508,0.000000,-370.102971,-10189.070123
822.320828,-1480.411884,518.144159,-9806.022374
822.321148,-1702.473667,0.000000,-9882.631924
822.321468,444.123565,0.000000,-10265.679673
822.321788,888.247130,-148.041188,-10418.898773
822.322108,-518.144159,-370.102971,-9806.022374
822.322428,0.000000,-666.185348,-10035.851024
822.322748,1258.350101,-592.164754,-10265.679673
822.323068,1554.432478,1110.308913,-10418.898773
822.323388,-222.061783,444.123565,-9882.631924
822.323708,-592.164754,-1036.288319,-10112.460574
822.324028,1184.329507,-1110.308913,-10189.070123
822.324348,2072.576638,-1776.494261,-9806.022374
822.324668,444.123565,-1924.535449,-10342.289223
822.324988,0.000000,-2146.597232,-9116.536426
822.325308,2294.638420,-1480.411884,-10035.851024
822.325628,2368.659014,-370.102971,-9882.631924
822.325948,1036.288319,1406.391290,-10418.898773
822.326268,-296.082377,1406.391290,-9729.412825
822.326588,1998.556043,-444.123565,-10035.851024
822.326908,3256.906145,592.164754,-10572.117872
822.327228,1776.494261,666.185348,-9346.365076
822.327548,296.082377,444.123565,-10418.898773
822.327868,444.123565,-518.144159,-9806.022374
822.328188,3256.906145,-592.164754,-10418.898773
822.328508,148.041188,666.185348,-10265.679673
822.328828,-1258.350101,666.185348,-9422.974625
822.329148,-666.185348,-444.123565,-10035.851024
822.329468,1406.391290,0.000000,-10418.898773
822.329788,740.205942,592.164754,-10265.679673
822.330108,0.000000,370.102971,-9882.631924
822.330428,370.102971,888.247130,-10112.460574
822.330748,666.185348,962.267725,-10572.117872
822.331068,0.000000,1110.308913,-10189.070123
822.331388,-1998.556043,1924.535449,-10725.336972
822.331708,-1628.453072,74.020594,-10189.070123
822.332028,962.267725,-888.247130,-9959.241474
822.332348,1480.411884,-592.164754,-10265.679673
822.332668,-888.247130,222.061783,-10418.898773
822.332988,-740.205942,518.144159,-10418.898773
822.333308,370.102971,1628.453072,-11031.775171
822.333628,370.102971,2516.700203,-10572.117872
822.333948,-1924.535449,2072.576638,-10112.460574
822.334268,-888.247130,518.144159,-9882.631924
822.334588,740.205942,74.020594,-10035.851024
822.334908,1258.350101,-740.205942,-9959.241474
822.335228,370.102971,148.041188,-9576.193725
822.335548,518.144159,-814.226536,-9499.584175
822.335868,2590.720797,1850.514855,-10572.117872
822.336188,1554.432478,3256.906145,-10495.508323
822.336508,-962.267725,2664.741391,-10418.898773
822.336828,-1702.473667,1110.308913,-9652.803275
822.337147,740.205942,0.000000,-9882.631924
822.337467,3034.844362,444.123565,-10265.679673
822.337787,2146.597232,666.185348,-10342.289223
822.338107,1850.514855,-740.205942,-9959.241474
822.338428,2960.823768,814.226536,-9806.022374
822.338748,1702.473667,2590.720797,-10342.289223
822.339068,222.061783,3552.988522,-9882.631924
822.339388,-740.205942,2220.617826,-9499.584175
822.339708,-148.041188,962.267725,-10265.679673
822.340028,1184.329507,592.164754,-10572.117872
822.340348,370.102971,296.082377,-10648.727422
822.340668,296.082377,1036.288319,-9806.022374
822.340988,1110.308913,1332.370696,-10725.336972
822.341308,3034.844362,1924.535449,-11031.775171
822.341628,666.185348,2220.617826,-10495.508323
822.341948,-1628.453072,1332.370696,-10112.460574
822.342268,-444.123565,296.082377,-9882.631924
822.342589,2738.761985,-814.226536,-10495.508323
822.342909,2590.720797,-740.205942,-10342.289223
822.343229,296.082377,-296.082377,-10189.070123
822.343549,0.000000,-444.123565,-10572.117872
822.343869,518.144159,-222.061783,-10572.117872
822.344189,-148.041188,740.205942,-9576.193725
822.344509,-2146.597232,518.144159,-10035.851024
822.344829,-2664.741391,444.123565,-9882.631924
822.345149,-148.041188,74.020594,-10265.679673
822.345469,370.102971,74.020594,-9116.536426
822.345789,-592.164754,-1110.308913,-9346.365076
822.346109,148.041188,-1850.514855,-9806.022374
822.346430,1258.350101,-1110.308913,-10189.070123
822.346750,1850.514855,370.102971,-10112.460574
822.347070,0.000000,444.123565,-9039.926876
822.347390,-740.205942,-888.247130,-9499.584175
822.347710,1258.350101,-592.164754,-9806.022374
822.348030,814.226536,0.000000,-9806.022374
822.348350,592.164754,1110.308913,-9806.022374
822.348670,370.102971,74.020594,-9499.584175
822.348990,1332.370696,-1184.329507,-10342.289223
822.349310,1850.514855,-2886.803174,-9806.022374
822.349630,-888.247130,-1480.411884,-9806.022374
822.349950,-2590.720797,-1776.494261,-9193.145976
822.350270,518.144159,-1036.288319,-10112.460574
822.350591,1406.391290,370.102971,-10342.289223
822.350911,2072.576638,1406.391290,-10112.460574
822.351231,1332.370696,370.102971,-10112.460574
822.351551,3182.885551,-666.185348,-10495.508323
822.351871,2664.741391,-1036.288319,-10189.070123
822.352191,-148.041188,-1554.432478,-10342.289223
822.352511,-1480.411884,-1702.473667,-9882.631924
822.352831,148.041188,-814.226536,-10725.336972
822.353151,1702.473667,-444.123565,-10725.336972
822.353471,666.185348,1480.411884,-10418.898773
822.353791,-666.185348,2072.576638,-10342.289223
822.354111,2664.741391,2294.638420,-11108.384721
822.354431,2886.803174,444.123565,-11031.775171
822.354752,814.226536,-666.185348,-10648.727422
822.355072,-2294.638420,-1702.473667,-9576.193725
822.355392,-1184.329507,-1998.556043,-10189.070123
822.355712,814.226536,-518.144159,-10112.460574
822.356032,-666.185348,962.267725,-10189.070123
822.356352,-1480.411884,2442.679609,-10265.679673
822.356672,-1480.411884,2590.720797,-10572.117872
822.356992,1036.288319,1850.514855,-10725.336972
822.357312,-1184.329507,-148.041188,-10035.851024
822.357632,-3849.070898,-1554.432478,-9499.584175
822.357952,-2516.700203,-2812.782580,-9039.926876
822.358272,1924.535449,-1554.432478,-9959.241474
822.358593,1110.308913,-592.164754,-9576.193725
822.358913,-370.102971,444.123565,-9499.584175
822.359233,0.000000,1628.453072,-9959.241474
822.359553,2442.679609,1110.308913,-10495.508323
822.359873,1258.350101,2146.597232,-11108.384721
822.360193,-1776.494261,-148.041188,-9499.584175
822.360513,-666.185348,-1628.453072,-9806.022374
822.360833,888.247130,-2516.700203,-9729.412825
822.361153,1184.329507,-222.061783,-10725.336972
822.361473,-666.185348,1184.329507,-10035.851024
822.361793,666.185348,2368.659014,-10112.460574
822.362113,2590.720797,2886.803174,-10342.289223
822.362433,1628.453072,2442.679609,-10572.117872
822.362754,0.000000,740.205942,-10342.289223
822.363074,-666.185348,370.102971,-10189.070123
822.363394,2738.761985,0.000000,-9959.241474
822.363714,2590.720797,592.164754,-10342.289223
822.364034,1998.556043,1258.350101,-9806.022374
822.364354,1406.391290,2738.761985,-10648.727422
822.364674,3330.926739,3404.947333,-11491.432470
822.364994,3034.844362,4737.318029,-11184.994271
822.365314,1258.350101,3034.844362,-10572.117872
822.365634,296.082377,1184.329507,-9882.631924
822.365954,1554.432478,-888.247130,-10189.070123
822.366274,2738.761985,-740.205942,-10035.851024
822.366595,740.205942,-962.267725,-9422.974625
822.366915,-1850.514855,222.061783,-9422.974625
822.367235,1628.453072,1332.370696,-10495.508323
822.367555,2738.761985,1554.432478,-10112.460574
822.367875,666.185348,1036.288319,-9806.022374
822.368195,222.061783,-296.082377,-9116.536426
822.368515,1998.556043,-592.164754,-10189.070123
822.368835,2368.659014,-814.226536,-10265.679673
822.369155,1332.370696,-814.226536,-9346.365076
822.369475,-888.247130,-1406.391290,-9269.755526
822.369795,0.000000,-1332.370696,-10878.556072
822.370115,962.267725,-296.082377,-10035.851024
822.370435,-888.247130,0.000000,-10035.851024
822.370756,-2590.720797,0.000000,-9422.974625
822.371076,-1702.473667,-592.164754,-9422.974625
822.371396,148.041188,0.000000,-10265.679673
822.371716,-592.164754,-888.247130,-9806.022374
822.372036,-2072.576638,222.061783,-10035.851024
822.372356,0.000000,148.041188,-10265.679673
822.372676,2812.782580,-740.205942,-10801.946522
822.372996,-370.102971,370.102971,-10035.851024
822.373316,-2146.597232,222.061783,-10035.851024
822.373636,-444.123565,-1258.350101,-10342.289223
822.373956,1924.535449,-740.205942,-11108.384721
822.374276,1258.350101,-222.061783,-10878.556072
822.374596,-888.247130,1036.288319,-10342.289223
822.374917,0.000000,1998.556043,-11184.994271
822.375237,0.000000,2516.700203,-11338.213370
822.375557,74.020594,2294.638420,-11031.775171
822.375877,-1406.391290,740.205942,-10418.898773
822.376197,-592.164754,-1406.391290,-9576.193725
822.376517,2220.617826,-1998.556043,-10342.289223
822.376837,2664.741391,-814.226536,-10265.679673
822.377157,888.247130,-1554.432478,-9729.412825
822.377477,962.267725,-1480.411884,-9652.803275
822.377797,2738.761985,-888.247130,-10112.460574
822.378117,1628.453072,-1184.329507,-10035.851024
822.378437,-1184.329507,-1110.308913,-9346.365076
822.378758,-1702.473667,-2664.741391,-8810.098227
822.379078,1406.391290,-2368.659014,-9652.803275
822.379398,2812.782580,-1258.350101,-9729.412825
822.379718,1998.556043,0.000000,-9193.145976
822.380038,592.164754,148.041188,-9422.974625
822.380358,1628.453072,1184.329507,-9806.022374
822.380678,1258.350101,370.102971,-9959.241474
822.380998,-1332.370696,-444.123565,-9652.803275
822.381318,-2368.659014,-2072.576638,-9269.755526
822.381638,-444.123565,-2146.597232,-9576.193725
822.381958,1924.535449,-1258.350101,-10418.898773
822.382278,814.226536,296.082377,-10112.460574
822.382598,-296.082377,1628.453072,-9116.536426
822.382919,888.247130,1850.514855,-10955.165621
822.383239,2294.638420,2664.741391,-11031.775171
822.383559,518.144159,1702.473667,-10725.336972
822.383879,-1702.473667,814.226536,-10112.460574
822.384199,-592.164754,-666.185348,-10189.070123
822.384519,1850.514855,-1110.308913,-10878.556072
822.384839,962.267725,-296.082377,-10495.508323
822.385159,-1406.391290,0.000000,-9882.631924
822.385479,-888.247130,2368.659014,-11338.213370
822.385799,0.000000,3997.112087,-11108.384721
822.386119,-962.267725,3182.885551,-10878.556072
822.386439,-2442.679609,740.205942,-10342.289223
822.386760,74.020594,-296.082377,-11721.261119
822.387080,1776.494261,-1702.473667,-10418.898773
822.387400,1110.308913,-1628.453072,-9959.241474
822.387720,2220.617826,592.164754,-9346.365076
822.388040,2072.576638,2368.659014,-9959.241474
822.388360,3256.906145,3701.029710,-10878.556072
822.388680,3404.947333,2812.782580,-9806.022374
822.389000,-296.082377,1110.308913,-9652.803275
822.389320,-296.082377,-1036.288319,-9806.022374
822.389640,1850.514855,-1702.473667,-9652.803275
822.389960,518.144159,-962.267725,-9806.022374
822.390280,74.020594,1184.329507,-8886.707777
822.390600,296.082377,2368.659014,-9576.193725
822.390921,2368.659014,2590.720797,-10418.898773
822.391241,3108.864956,1628.453072,-10189.070123
822.391561,-444.123565,962.267725,-9499.584175
822.391881,-1480.411884,888.247130,-9576.193725
822.392201,1628.453072,592.164754,-10265.679673
822.392521,1184.329507,1406.391290,-10189.070123
822.392841,518.144159,592.164754,-9806.022374
822.393161,1776.494261,444.123565,-9959.241474
822.393481,2368.659014,740.205942,-10265.679673
822.393801,2664.741391,2220.617826,-10801.946522
822.394121,518.144159,2294.638420,-10648.727422
822.394441,-148.041188,1184.329507,-10035.851024
822.394761,1332.370696,-222.061783,-10418.898773
822.395082,1110.308913,-518.144159,-10725.336972
822.395402,-740.205942,-592.164754,-11568.042020
822.395722,-1702.473667,370.102971,-10342.289223
822.396042,-444.123565,666.185348,-10495.508323
822.396362,1406.391290,592.164754,-10955.165621
822.396682,0.000000,592.164754,-9346.365076
822.397002,-1850.514855,-222.061783,-10189.070123
822.397322,222.061783,-888.247130,-10112.460574
822.397642,1702.473667,148.041188,-10342.289223
822.397962,444.123565,0.000000,-10265.679673
822.398282,0.000000,-518.144159,-9576.193725
822.398602,0.000000,-666.185348,-10035.851024
822.398923,1406.391290,-1258.350101,-10265.679673
822.399243,444.123565,-1406.391290,-9806.022374
822.399563,-1036.288319,-1480.411884,-8963.317327
822.399883,518.144159,-1776.494261,-9652.803275
822.400203,1332.370696,-814.226536,-10112.460574
822.400523,666.185348,0.000000,-9576.193725
822.400843,-888.247130,592.164754,-9269.755526
822.401163,0.000000,370.102971,-9882.631924
822.401483,1924.535449,148.041188,-9959.241474
822.401803,666.185348,-1110.308913,-10035.851024
822.402123,-962.267725,-2146.597232,-9269.755526
822.402443,-518.144159,-3404.947333,-9576.193725
822.402763,962.267725,-2368.659014,-9806.022374
822.403084,814.226536,222.061783,-10189.070123
822.403404,-444.123565,1554.432478,-10189.070123
822.403724,592.164754,1702.473667,-10189.070123
822.404044,2072.576638,1406.391290,-11031.775171
822.404364,2294.638420,814.226536,-11108.384721
822.404684,814.226536,74.020594,-10572.117872
822.405004,1332.370696,-1628.453072,-10572.117872
822.405324,3034.844362,-1776.494261,-10342.289223
822.405644,1776.494261,296.082377,-10801.946522
822.405964,-888.247130,518.144159,-10418.898773
822.406284,-1184.329507,148.041188,-10648.727422
822.406604,74.020594,592.164754,-11184.994271
822.406924,740.205942,888.247130,-10878.556072
822.407245,-1258.350101,1110.308913,-10495.508323
822.407565,-1406.391290,74.020594,-10189.070123
822.407885,740.205942,-740.205942,-10801.946522
822.408205,1258.350101,-740.205942,-9806.022374
822.408525,-1110.308913,-740.205942,-9729.412825
822.408845,148.041188,444.123565,-9729.412825
822.409165,2368.659014,1258.350101,-10418.898773
822.409485,2072.576638,1776.494261,-10265.679673
822.409805,0.000000,518.144159,-9499.584175
822.410125,-2146.597232,222.061783,-8733.488677
822.410445,0.000000,0.000000,-9806.022374
822.410765,1554.432478,1184.329507,-9882.631924
822.411086,-444.123565,148.041188,-9269.755526
822.411406,-1110.308913,74.020594,-8886.707777
822.411726,0.000000,0.000000,-9729.412825
822.412046,1184.329507,814.226536,-9806.022374
822.412366,0.000000,1332.370696,-10112.460574
822.412686,-1554.432478,1924.535449,-9576.193725
822.413006,370.102971,962.267725,-9806.022374
822.413326,1628.453072,962.267725,-10189.070123
822.413646,1924.535449,1184.329507,-10189.070123
822.413966,74.020594,1554.432478,-9346.365076
822.414286,518.144159,1628.453072,-10648.727422
822.414606,1480.411884,2368.659014,-10495.508323
822.414926,666.185348,1628.453072,-10572.117872
822.415247,-370.102971,1110.308913,-9806.022374
822.415567,1036.288319,740.205942,-10572.117872
822.415887,2516.700203,1406.391290,-10725.336972
822.416207,2960.823768,2368.659014,-11338.213370
822.416527,1036.288319,2590.720797,-10955.165621
822.416847,1554.432478,2220.617826,-10265.679673
822.417167,2442.679609,1554.432478,-11184.994271
822.417487,1332.370696,1702.473667,-10189.070123
822.417807,-1036.288319,1850.514855,-10342.289223
822.418127,-962.267725,2294.638420,-10035.851024
822.418447,1332.370696,148.041188,-10418.898773
822.418767,1998.556043,-814.226536,-10265.679673
822.419088,148.041188,-592.164754,-9269.755526
822.419408,0.000000,0.000000,-9422.974625
822.419728,2294.638420,1110.308913,-10648.727422
822.420048,2664.741391,1480.411884,-9806.022374
822.420368,-148.041188,814.226536,-9806.022374
822.420688,-1184.329507,-148.041188,-9499.584175
822.421008,0.000000,-1480.411884,-9806.022374
822.421328,962.267725,-2294.638420,-9652.803275
822.421648,-740.205942,-1480.411884,-8886.707777
822.421968,-148.041188,-666.185348,-9039.926876
822.422288,1480.411884,-518.144159,-9499.584175
822.422608,1258.350101,0.000000,-9959.241474
822.422928,-1258.350101,0.000000,-9729.412825
822.423249,-2516.700203,-1110.308913,-9499.584175
822.423569,-740.205942,-814.226536,-9959.241474
822.423889,518.144159,0.000000,-10725.336972
822.424209,518.144159,148.041188,-10112.460574
822.424529,296.082377,-666.185348,-9882.631924
822.424849,1998.556043,-1554.432478,-11108.384721
822.425169,2146.597232,-370.102971,-10801.946522
822.425489,-1184.329507,666.185348,-10648.727422
822.425809,-3108.864956,740.205942,-10265.679673
822.426129,0.000000,148.041188,-10495.508323
822.426449,1406.391290,148.041188,-10725.336972
822.426769,1406.391290,0.000000,-10035.851024
822.427089,148.041188,-888.247130,-10648.727422
822.427410,1776.494261,-1258.350101,-11261.603821
822.427730,3552.988522,0.000000,-10955.165621
822.428050,1258.350101,1554.432478,-10572.117872
822.428370,-1554.432478,2072.576638,-10189.070123
822.428690,-740.205942,1776.494261,-10265.679673
822.429010,1184.329507,296.082377,-11031.775171
822.429330,1406.391290,-1184.329507,-10342.289223
822.429650,444.123565,-1184.329507,-9959.241474
822.429970,1110.308913,-1184.329507,-9806.022374
822.430290,3034.844362,-444.123565,-10265.679673
822.430610,1332.370696,-814.226536,-9959.241474
822.430930,-1110.308913,-518.144159,-10342.289223
822.431251,-1110.308913,-1628.453072,-9422.974625
822.431571,518.144159,-1184.329507,-9652.803275
822.431891,0.000000,-888.247130,-9346.365076
822.432211,-444.123565,444.123565,-9576.193725
822.432531,-296.082377,518.144159,-9422.974625
822.432851,1406.391290,592.164754,-10265.679673
822.433171,2368.659014,0.000000,-9499.584175
822.433491,592.164754,-444.123565,-9269.755526
822.433811,222.061783,-1554.432478,-9576.193725
822.434131,1258.350101,148.041188,-9576.193725
822.434451,0.000000,1480.411884,-10342.289223
822.434771,-1258.350101,1702.473667,-9806.022374
822.435091,-1184.329507,1110.308913,-9652.803275
822.435412,518.144159,666.185348,-10572.117872
822.435732,-444.123565,666.185348,-10495.508323
822.436052,-2294.638420,740.205942,-10418.898773
822.436372,-1258.350101,1036.288319,-9882.631924
822.436692,1924.535449,0.000000,-10878.556072
822.437012,3034.844362,1184.329507,-10801.946522
822.437332,74.020594,1850.514855,-10112.460574
822.437652,-1184.329507,1850.514855,-10572.117872
822.437972,888.247130,2220.617826,-11184.994271
822.438292,1776.494261,1776.494261,-11644.651570
822.438612,-222.061783,1776.494261,-10495.508323
822.438932,-1628.453072,1406.391290,-10418.898773
822.439252,740.205942,1332.370696,-10572.117872
822.439573,1406.391290,1628.453072,-11108.384721
822.439893,0.000000,1702.473667,-10265.679673
822.440213,-740.205942,814.226536,-9499.584175
822.440533,1924.535449,0.000000,-10265.679673
822.440853,3849.070898,1036.288319,-10418.898773
822.441173,3182.885551,444.123565,-9729.412825
822.441493,666.185348,296.082377,-9499.584175
822.441813,1628.453072,148.041188,-10112.460574
822.442133,3034.844362,1702.473667,-10035.851024
822.442453,1628.453072,1924.535449,-9116.536426
822.442773,74.020594,1702.473667,-9269.755526
822.443093,1332.370696,1110.308913,-9806.022374
822.443413,2590.720797,1184.329507,-10035.851024
822.443733,-370.102971,296.082377,-9652.803275
822.444053,-1850.514855,-666.185348,-8656.879127
822.444373,-1332.370696,-2294.638420,-9269.755526
822.444693,1628.453072,-1554.432478,-9576.193725
822.445013,2590.720797,740.205942,-9729.412825
822.445333,74.020594,2368.659014,-9576.193725
822.445653,2072.576638,2368.659014,-10265.679673
822.445973,3108.864956,2516.700203,-10648.727422
822.446293,2368.659014,1480.411884,-10495.508323
822.446613,-740.205942,0.000000,-10955.165621
822.446933,-888.247130,-1406.391290,-10035.851024
822.447253,518.144159,-1480.411884,-10189.070123
822.447573,962.267725,0.000000,-10495.508323
822.447893,-1406.391290,1036.288319,-10418.898773
822.448213,-2368.659014,2146.597232,-11184.994271
822.448533,-1184.329507,2220.617826,-11108.384721
822.448853,-296.082377,1480.411884,-10801.946522
822.449173,-2294.638420,-962.267725,-10342.289223
822.449493,-1702.473667,-2960.823768,-9806.022374
822.449813,0.000000,-2886.803174,-9959.241474
822.450133,1480.411884,-1110.308913,-10572.117872
822.450453,1258.350101,0.000000,-9806.022374
822.450773,-814.226536,1406.391290,-10189.070123
822.451093,1480.411884,1776.494261,-10725.336972
822.451413,2590.720797,1554.432478,-10648.727422
822.451733,962.267725,-148.041188,-10418.898773
822.452053,-1332.370696,-1776.494261,-9729.412825
822.452373,-296.082377,-2368.659014,-9806.022374
822.452693,370.102971,-1998.556043,-9806.022374
822.453013,888.247130,-814.226536,-9576.193725
822.453333,-148.041188,148.041188,-9422.974625
822.453653,888.247130,1184.329507,-10189.070123
822.453973,1480.411884,1406.391290,-10112.460574
822.454293,74.020594,74.020594,-9576.193725
822.454613,-1554.432478,-814.226536,-9729.412825
822.454933,-962.267725,-2368.659014,-9499.584175
822.455253,1184.329507,-2146.597232,-9269.755526
822.455573,1036.288319,-1258.350101,-9959.241474
822.455893,666.185348,592.164754,-9346.365076
822.456213,2146.597232,814.226536,-10495.508323
822.456533,3330.926739,1332.370696,-10801.946522
822.456853,2220.617826,1406.391290,-10801.946522
822.457173,-148.041188,592.164754,-10189.070123
822.457493,-444.123565,148.041188,-10265.679673
822.457813,518.144159,-148.041188,-10878.556072
822.458133,740.205942,-592.164754,-10648.727422
822.458453,0.000000,-740.205942,-10189.070123
822.458773,0.000000,0.000000,-10725.336972
822.459093,0.000000,148.041188,-10342.289223
822.459413,-148.041188,296.082377,-10648.727422
822.459733,-1332.370696,814.226536,-10189.070123
822.460053,74.020594,148.041188,-10035.851024
822.460374,518.144159,-592.164754,-10572.117872
822.460694,592.164754,-444.123565,-10342.289223
822.461014,296.082377,-888.247130,-9576.193725
822.461334,666.185348,370.102971,-10035.851024
822.461654,1924.535449,888.247130,-10648.727422
822.461974,296.082377,1036.288319,-10342.289223
822.462294,-1184.329507,0.000000,-9039.926876
822.462614,-592.164754,-814.226536,-9576.193725
822.462934,666.185348,-296.082377,-9882.631924
822.463254,-962.267725,962.267725,-9882.631924
822.463574,-2368.659014,1036.288319,-9346.365076
822.463894,-222.061783,-444.123565,-9269.755526
822.464214,2146.597232,0.000000,-10189.070123
822.464534,2146.597232,-74.020594,-10035.851024
822.464854,-666.185348,-148.041188,-9806.022374
822.465174,-1184.329507,296.082377,-9729.412825
822.465494,1110.308913,592.164754,-9806.022374
822.465814,1998.556043,1332.370696,-10265.679673
822.466134,444.123565,1554.432478,-9806.022374
822.466454,666.185348,2368.659014,-10495.508323
822.466774,2590.720797,2590.720797,-10955.165621
822.467094,2886.803174,1924.535449,-10418.898773
822.467414,74.020594,666.185348,-9959.241474
822.467734,-1480.411884,-222.061783,-9729.412825
822.468054,740.205942,-888.247130,-9576.193725
822.468374,1554.432478,222.061783,-10725.336972
822.468694,962.267725,518.144159,-9806.022374
822.469014,-296.082377,2220.617826,-10265.679673
822.469334,518.144159,2664.741391,-9729.412825
822.469654,3034.844362,2960.823768,-10725.336972
822.469974,1480.411884,1702.473667,-10648.727422
822.470294,740.205942,1406.391290,-10342.289223
822.470614,0.000000,-666.185348,-9882.631924
822.470934,1480.411884,-1036.288319,-10189.070123
822.471254,2146.597232,-518.144159,-9499.584175
822.471574,740.205942,592.164754,-9729.412825
822.471894,888.247130,1776.494261,-10342.289223
822.472214,592.164754,2368.659014,-10189.070123
822.472534,1480.411884,1554.432478,-10035.851024
822.472854,222.061783,888.247130,-9269.755526
822.473174,1258.350101,-592.164754,-9729.412825
822.473494,1924.535449,-962.267725,-9806.022374
822.473814,888.247130,0.000000,-9806.022374
822.474134,518.144159,592.164754,-8963.317327
822.474454,370.102971,444.123565,-9576.193725
822.474774,1480.411884,888.247130,-10112.460574
822.475094,666.185348,370.102971,-9652.803275
822.475414,-962.267725,-74.020594,-9652.803275
822.475734,-296.082377,-1406.391290,-9806.022374
822.476054,814.226536,-1480.411884,-10035.851024
822.476374,1554.432478,-1258.350101,-10035.851024
822.476694,666.185348,-592.164754,-9269.755526
822.477014,518.144159,370.102971,-10035.851024
822.477334,2442.679609,1628.453072,-10955.165621
822.477654,2516.700203,2072.576638,-10955.165621
822.477974,444.123565,1184.329507,-10801.946522
822.478294,296.082377,-888.247130,-10418.898773
822.478614,1036.288319,-1776.494261,-10418.898773
822.478934,74.020594,-1702.473667,-10725.336972
822.479254,-1628.453072,-444.123565,-10189.070123
822.479574,-1998.556043,1554.432478,-10725.336972
822.479894,-814.226536,1850.514855,-11338.213370
822.480214,888.247130,1776.494261,-10801.946522
822.480534,-888.247130,-666.185348,-10418.898773
822.480854,-1332.370696,-1406.391290,-9882.631924
822.481174,814.226536,-1628.453072,-10112.460574
822.481494,814.226536,-814.226536,-10648.727422
822.481814,-296.082377,518.144159,-10112.460574
822.482134,-1480.411884,1258.350101,-10801.946522
822.482454,-370.102971,1332.370696,-10418.898773
822.482774,518.144159,592.164754,-10495.508323
822.483094,-1332.370696,-518.144159,-10112.460574
822.483414,-2664.741391,-1702.473667,-9729.412825
822.483734,-1332.370696,-2886.803174,-10572.117872
822.484054,0.000000,-2368.659014,-9729.412825
822.484374,666.185348,-1554.432478,-9576.193725
822.484694,0.000000,148.041188,-9269.755526
822.485014,740.205942,814.226536,-10648.727422
822.485334,962.267725,1332.370696,-10418.898773
822.485654,0.000000,0.000000,-9729.412825
822.485974,-1406.391290,-888.247130,-9346.365076
822.486294,962.267725,-1258.350101,-9652.803275
822.486614,3404.947333,-1110.308913,-10342.289223
822.486934,2294.638420,740.205942,-10112.460574
822.487254,-666.185348,1184.329507,-9729.412825
822.487574,0.000000,740.205942,-10189.070123
822.487894,1332.370696,148.041188,-10112.460574
822.488214,444.123565,-666.185348,-10801.946522
822.488534,-1258.350101,-814.226536,-9346.365076
822.488854,-1184.329507,444.123565,-10342.289223
822.489175,1480.411884,1998.556043,-10801.946522
822.489495,2294.638420,2886.803174,-11031.775171
822.489815,814.226536,2590.720797,-10342.289223
822.490135,0.000000,1332.370696,-10418.898773
822.490455,1924.535449,0.000000,-10801.946522
822.490775,2146.597232,592.164754,-9576.193725
822.491095,-222.061783,444.123565,-9882.631924
822.491415,-592.164754,444.123565,-9882.631924
822.491735,2072.576638,222.061783,-10495.508323
822.492055,1924.535449,740.205942,-10572.117872
822.492375,1184.329507,296.082377,-9729.412825
822.492695,-296.082377,1258.350101,-9652.803275
822.493015,592.164754,2146.597232,-10648.727422
822.493335,962.267725,1702.473667,-10265.679673
822.493655,-296.082377,518.144159,-10189.070123
822.493975,-296.082377,-296.082377,-9346.365076
822.494295,2294.638420,-1258.350101,-9652.803275
822.494615,2664.741391,444.123565,-10189.070123
822.494935,1554.432478,2220.617826,-8810.098227
822.495255,-148.041188,3182.885551,-9652.803275
822.495575,740.205942,2368.659014,-10112.460574
822.495895,1480.411884,1258.350101,-10189.070123
822.496215,-222.061783,-444.123565,-9806.022374
822.496535,-2146.597232,-1258.350101,-8427.050478
822.496855,74.020594,-1776.494261,-9422.974625
822.497175,2220.617826,-370.102971,-9806.022374
822.497495,814.226536,1036.288319,-9959.241474
822.497815,-222.061783,1628.453072,-9652.803275
822.498135,1110.308913,2368.659014,-10418.898773
822.498455,1702.473667,2368.659014,-10648.727422
822.498775,1480.411884,1628.453072,-10572.117872
822.499095,-1850.514855,370.102971,-9882.631924
822.499415,-2220.617826,-1036.288319,-10112.460574
822.499735,-888.247130,-1702.473667,-9959.241474
822.500055,-222.061783,-962.267725,-10495.508323
822.500375,-148.041188,0.000000,-9576.193725
822.500695,2072.576638,1776.494261,-10878.556072
822.501015,2886.803174,2368.659014,-10801.946522
822.501335,2072.576638,1554.432478,-11031.775171
822.501655,-666.185348,444.123565,-9882.631924
822.501975,-296.082377,-1110.308913,-10112.460574
822.502295,1850.514855,-814.226536,-10189.070123
822.502615,1702.473667,-296.082377,-10189.070123
822.502935,518.144159,296.082377,-9882.631924
822.503255,1480.411884,0.000000,-9959.241474
822.503575,2442.679609,0.000000,-12027.699319
822.503895,444.123565,0.000000,-10495.508323
822.504215,-2072.576638,444.123565,-9806.022374
822.504535,-1924.535449,-148.041188,-9422.974625
822.504855,2220.617826,-1036.288319,-10112.460574
822.505175,3478.967927,-592.164754,-11031.775171
822.505495,2072.576638,-1480.411884,-9422.974625
822.505815,1110.308913,-370.102971,-9882.631924
822.506135,2220.617826,222.061783,-10801.946522
822.506455,2220.617826,1628.453072,-10035.851024
822.506775,-444.123565,592.164754,-9882.631924
822.507095,-2220.617826,-370.102971,-9729.412825
822.507415,-1258.350101,-1702.473667,-10189.070123
822.507735,740.205942,-1776.494261,-10112.460574
822.508055,518.144159,-1998.556043,-9882.631924
822.508375,814.226536,-962.267725,-10035.851024
822.508695,1332.370696,222.061783,-10418.898773
822.509015,1258.350101,1628.453072,-10495.508323
822.509335,-962.267725,1036.288319,-11031.775171
822.509655,-2294.638420,-148.041188,-10035.851024
822.509975,-1036.288319,-1184.329507,-10035.851024
822.510295,1554.432478,-1258.350101,-10035.851024
822.510615,1036.288319,-1702.473667,-10035.851024
822.510935,296.082377,-888.247130,-9806.022374
822.511255,666.185348,-296.082377,-10572.117872
822.511575,814.226536,814.226536,-10878.556072
822.511895,-1036.288319,0.000000,-10189.070123
822.512215,-2664.741391,-222.061783,-9806.022374
822.512535,-1480.411884,0.000000,-10112.460574
822.512855,-222.061783,1258.350101,-9806.022374
822.513175,370.102971,2294.638420,-10878.556072
822.513495,148.041188,2442.679609,-9499.584175
822.513815,1184.329507,1036.288319,-10495.508323
822.514135,2368.659014,296.082377,-10495.508323
822.514455,740.205942,-1628.453072,-9346.365076
822.514775,-1554.432478,-2294.638420,-8963.317327
822.515095,-2146.597232,-1184.329507,-9422.974625
822.515415,-962.267725,592.164754,-10035.851024
822.515735,0.000000,1036.288319,-9882.631924
822.516055,-148.041188,1702.473667,-9576.193725
822.516375,518.144159,2294.638420,-9882.631924
822.516695,888.247130,2146.597232,-10418.898773
822.517015,1332.370696,1628.453072,-10418.898773
822.517335,222.061783,-444.123565,-9422.974625
822.517655,444.123565,-1776.494261,-9499.584175
822.517976,1036.288319,-1924.535449,-9729.412825
822.518296,1628.453072,296.082377,-9959.241474
822.518616,592.164754,2368.659014,-10189.070123
822.518936,1850.514855,4589.276840,-10112.460574
822.519256,2664.741391,4737.318029,-11261.603821
822.519576,2368.659014,3256.906145,-10572.117872
822.519896,1480.411884,370.102971,-10035.851024
822.520216,-370.102971,-2368.659014,-9959.241474
822.520536,74.020594,-1998.556043,-9882.631924
822.520856,148.041188,-1258.350101,-10189.070123
822.521176,-222.061783,888.247130,-9882.631924
822.521496,666.185348,2590.720797,-9806.022374
822.521816,2590.720797,3182.885551,-10572.117872
822.522136,3849.070898,2812.782580,-10342.289223
822.522456,296.082377,1850.514855,-9882.631924
822.522776,-222.061783,296.082377,-9806.022374
822.523096,888.247130,-1110.308913,-9499.584175
822.523416,1332.370696,-1480.411884,-9499.584175
822.523736,962.267725,-592.164754,-9269.755526
822.524056,0.000000,444.123565,-9576.193725
822.524376,2146.597232,2220.617826,-10725.336972
822.524696,3404.947333,2886.803174,-10495.508323
822.525016,2294.638420,2886.803174,-9193.145976
822.525336,-148.041188,666.185348,-9729.412825
822.525656,666.185348,-1628.453072,-10035.851024
822.525976,444.123565,-2886.803174,-10035.851024
822.526296,148.041188,-1480.411884,-10112.460574
822.526616,-296.082377,222.061783,-9499.584175
822.526936,518.144159,2368.659014,-10265.679673
822.527256,1258.350101,3182.885551,-10495.508323
822.527576,444.123565,1776.494261,-10418.898773
822.527896,-2220.617826,740.205942,-9806.022374
822.528216,-1406.391290,-1924.535449,-9882.631924
822.528536,-444.123565,-1554.432478,-9806.022374
822.528856,-814.226536,-1776.494261,-10035.851024
822.529176,-518.144159,-592.164754,-9652.803275
822.529496,0.000000,592.164754,-10418.898773
822.529816,1406.391290,2368.659014,-10955.165621
822.530136,1258.350101,2146.597232,-11031.775171
822.530456,-740.205942,1554.432478,-10648.727422
822.530776,-1480.411884,666.185348,-10572.117872
822.531096,74.020594,-666.185348,-10418.898773
822.531416,74.020594,-1850.514855,-10189.070123
822.531736,-148.041188,-2368.659014,-9576.193725
822.532056,1332.370696,-1110.308913,-10035.851024
822.532376,2590.720797,148.041188,-10648.727422
822.532696,1924.535449,1036.288319,-10955.165621
822.533016,0.000000,1110.308913,-10265.679673
822.533336,-740.205942,-148.041188,-10035.851024
822.533656,1110.308913,-1036.288319,-10112.460574
822.533976,1924.535449,-1110.308913,-10035.851024
822.534296,1036.288319,-888.247130,-9806.022374
822.534616,1702.473667,0.000000,-10112.460574
822.534936,1850.514855,666.185348,-10418.898773
822.535256,1628.453072,740.205942,-10418.898773
822.535576,-1924.535449,0.000000,-9959.241474
822.535896,-2368.659014,-296.082377,-9729.412825
822.536216,74.020594,-1258.350101,-9576.193725
822.536536,2590.720797,-592.164754,-9806.022374
822.536856,2294.638420,-592.164754,-9806.022374
822.537176,1924.535449,-444.123565,-9652.803275
822.537496,2294.638420,0.000000,-10189.070123
822.537816,2590.720797,592.164754,-11338.213370
822.538136,370.102971,666.185348,-9959.241474
822.538456,-1110.308913,0.000000,-9422.974625
822.538776,-1332.370696,-148.041188,-9806.022374
822.539096,-592.164754,74.020594,-10189.070123
822.539416,-592.164754,518.144159,-9959.241474
822.539736,-1406.391290,-148.041188,-9806.022374
822.540056,296.082377,-296.082377,-10418.898773
822.540376,518.144159,592.164754,-10648.727422
822.540696,-1258.350101,518.144159,-10342.289223
822.541016,-2738.761985,814.226536,-9882.631924
822.541336,-1850.514855,666.185348,-10648.727422
822.541656,370.102971,1110.308913,-10725.336972
822.541976,0.000000,1258.350101,-10572.117872
822.542295,-1332.370696,1850.514855,-9959.241474
822.542615,-1110.308913,1998.556043,-10265.679673
822.542935,222.061783,3034.844362,-10878.556072
822.543255,1036.288319,1776.494261,-10648.727422
822.543575,-296.082377,222.061783,-10035.851024
822.543895,-888.247130,-1184.329507,-10265.679673
822.544215,444.123565,-1998.556043,-9576.193725
822.544535,518.144159,-1850.514855,-9959.241474
822.544855,592.164754,-222.061783,-9499.584175
822.545175,962.267725,2516.700203,-9576.193725
822.545494,3256.906145,3330.926739,-10342.289223
822.545814,3627.009116,3404.947333,-10495.508323
822.546134,1480.411884,1110.308913,-9806.022374
822.546454,1776.494261,-1110.308913,-9499.584175
822.546774,2960.823768,-2146.597232,-9346.365076
822.547094,3997.112087,-1110.308913,-9499.584175
822.547414,2886.803174,-518.144159,-9499.584175
822.547734,1184.329507,740.205942,-9422.974625
822.548054,2590.720797,2516.700203,-10265.679673
822.548374,814.226536,2146.597232,-10112.460574
822.548693,-148.041188,1850.514855,-10112.460574
822.549013,-1258.350101,740.205942,-10112.460574
822.549333,-296.082377,-444.123565,-10035.851024
822.549653,1554.432478,-1702.473667,-10112.460574
822.549973,0.000000,-1184.329507,-9959.241474
822.550293,-222.061783,-444.123565,-9806.022374
822.550613,444.123565,888.247130,-10648.727422
822.550933,2368.659014,3404.947333,-11031.775171
822.551253,666.185348,3256.906145,-10801.946522
822.551573,-1036.288319,1628.453072,-10648.727422
822.551892,0.000000,-814.226536,-10265.679673
822.552212,592.164754,-1406.391290,-12104.308868
822.552532,-592.164754,-2368.659014,-9882.631924
822.552852,-1924.535449,-962.267725,-9422.974625
822.553172,-740.205942,592.164754,-10572.117872
822.553492,814.226536,1480.411884,-10418.898773
822.553812,-592.164754,1850.514855,-11338.213370
822.554132,-3034.844362,592.164754,-9882.631924
822.554452,-1850.514855,-740.205942,-10265.679673
822.554772,0.000000,-1406.391290,-9959.241474
822.555091,1258.350101,-2368.659014,-9499.584175
822.555411,296.082377,-592.164754,-9652.803275
822.555731,370.102971,74.020594,-10112.460574
822.556051,1406.391290,1184.329507,-10189.070123
822.556371,148.041188,1258.350101,-10265.679673
822.556691,-1406.391290,444.123565,-9806.022374
822.557011,-148.041188,-888.247130,-9806.022374
822.557331,1258.350101,-1776.494261,-9652.803275
822.557651,370.102971,-1480.411884,-9806.022374
822.557971,0.000000,-592.164754,-9269.755526
822.558290,370.102971,148.041188,-10035.851024
822.558610,1406.391290,1332.370696,-10572.117872
822.558930,1554.432478,1850.514855,-10189.070123
822.559250,0.000000,1258.350101,-9882.631924
822.559570,1480.411884,740.205942,-10112.460574
822.559890,2738.761985,0.000000,-10495.508323
822.560210,2294.638420,-1332.370696,-9882.631924
822.560530,1036.288319,-1258.350101,-9652.803275
822.560850,1702.473667,-1554.432478,-9806.022374
822.561169,4219.173869,-296.082377,-10495.508323
822.561489,3552.988522,814.226536,-10495.508323
822.561809,222.061783,1776.494261,-10572.117872
822.562129,-1110.308913,1776.494261,-9806.022374
822.562449,962.267725,1184.329507,-10648.727422
822.562769,1480.411884,592.164754,-10572.117872
822.563089,814.226536,-518.144159,-10112.460574
822.563409,370.102971,-814.226536,-9806.022374
822.563729,2442.679609,-444.123565,-10418.898773
822.564049,2516.700203,222.061783,-10725.336972
822.564368,0.000000,740.205942,-9959.241474
822.564688,-1332.370696,1036.288319,-9959.241474
822.565008,148.041188,0.000000,-9959.241474
822.565328,148.041188,666.185348,-9882.631924
822.565648,-888.247130,592.164754,-9882.631924
822.565968,-962.267725,222.061783,-9499.584175
822.566288,296.082377,370.102971,-10035.851024
822.566608,1258.350101,444.123565,-10189.070123
822.566928,-222.061783,74.020594,-9576.193725
822.567248,-1184.329507,0.000000,-9576.193725
822.567567,74.020594,0.000000,-9806.022374
822.567887,444.123565,666.185348,-10342.289223
822.568207,-1332.370696,-222.061783,-9806.022374
822.568527,-2516.700203,-888.247130,-9116.536426
822.568847,-666.185348,-1110.308913,-10342.289223
822.569167,1184.329507,0.000000,-10648.727422
822.569487,74.020594,518.144159,-10725.336972
822.569807,-1554.432478,1554.432478,-10648.727422
822.570127,-1184.329507,1406.391290,-10572.117872
822.570447,666.185348,2442.679609,-11184.994271
822.570766,666.185348,2368.659014,-10265.679673
822.571086,-370.102971,2220.617826,-10035.851024
822.571406,592.164754,962.267725,-10572.117872
822.571726,2146.597232,814.226536,-10495.508323
822.572046,2294.638420,-592.164754,-10112.460574
822.572366,518.144159,-666.185348,-9652.803275
822.572686,-222.061783,-222.061783,-9959.241474
822.573006,740.205942,1332.370696,-10112.460574
822.573326,370.102971,2294.638420,-10189.070123
822.573646,0.000000,1998.556043,-8963.317327
822.573965,518.144159,1036.288319,-9576.193725
822.574285,2146.597232,74.020594,-9959.241474
822.574605,2368.659014,-1184.329507,-9499.584175
822.574925,666.185348,-1998.556043,-8273.831378
822.575245,1480.411884,-1850.514855,-9269.755526
822.575565,3034.844362,-444.123565,-9652.803275
822.575885,2812.782580,888.247130,-9882.631924
822.576205,296.082377,2220.617826,-9422.974625
822.576525,-296.082377,2590.720797,-9806.022374
822.576845,1184.329507,2886.803174,-10725.336972
822.577164,2294.638420,962.267725,-10342.289223
822.577484,2072.576638,-740.205942,-9652.803275
822.577804,1258.350101,-1554.432478,-9806.022374
822.578124,1036.288319,-1406.391290,-10189.070123
822.578444,518.144159,518.144159,-10112.460574
822.578764,-148.041188,1332.370696,-10189.070123
822.579084,74.020594,2072.576638,-10035.851024
822.579404,592.164754,2516.700203,-11184.994271
822.579724,962.267725,1702.473667,-11108.384721
822.580044,-888.247130,1332.370696,-10725.336972
822.580363,-1554.432478,74.020594,-10495.508323
822.580683,888.247130,-148.041188,-10112.460574
822.581003,592.164754,-1110.308913,-10342.289223
822.581323,-814.226536,-666.185348,-10035.851024
822.581643,-1258.350101,148.041188,-10035.851024
822.581963,518.144159,1406.391290,-11108.384721
822.582283,1554.432478,2220.617826,-10955.165621
822.582603,74.020594,1406.391290,-10418.898773
822.582923,-962.267725,-592.164754,-9806.022374
822.583243,-148.041188,-1702.473667,-9806.022374
822.583562,1110.308913,-2220.617826,-8733.488677
822.583882,-222.061783,-1480.411884,-9422.974625
822.584202,-814.226536,-296.082377,-9422.974625
822.584522,666.185348,1258.350101,-10112.460574
822.584842,2146.597232,2220.617826,-10418.898773
822.585162,888.247130,888.247130,-9959.241474
822.585482,-962.267725,-518.144159,-9346.365076
822.585802,-592.164754,-1554.432478,-9576.193725
822.586122,740.205942,-1258.350101,-9882.631924
822.586442,888.247130,-518.144159,-10725.336972
822.586761,-518.144159,888.247130,-9959.241474
822.587081,-1110.308913,1924.535449,-10495.508323
822.587401,-370.102971,2590.720797,-10878.556072
822.587721,-592.164754,2146.597232,-10342.289223
822.588041,-1480.411884,1480.411884,-10265.679673
822.588361,148.041188,592.164754,-10495.508323
822.588681,1554.432478,-148.041188,-10572.117872
822.589001,2294.638420,-740.205942,-10418.898773
822.589321,1258.350101,-296.082377,-9729.412825
822.589641,-148.041188,296.082377,-9806.022374
822.589960,666.185348,888.247130,-10955.165621
822.590280,888.247130,1480.411884,-10495.508323
822.590600,444.123565,1332.370696,-10189.070123
822.590920,1110.308913,592.164754,-10035.851024
822.591240,2664.741391,-1184.329507,-10342.289223
822.591560,2738.761985,-1480.411884,-10035.851024
822.591880,814.226536,-888.247130,-9729.412825
822.592200,740.205942,0.000000,-9422.974625
822.592520,1258.350101,888.247130,-10265.679673
822.592840,1850.514855,592.164754,-9882.631924
822.593159,148.041188,-296.082377,-9499.584175
822.593479,-962.267725,0.000000,-9193.145976
822.593799,666.185348,148.041188,-9806.022374
822.594119,1480.411884,148.041188,-9652.803275
822.594439,296.082377,370.102971,-9806.022374
822.594759,-666.185348,74.020594,-9269.755526
822.595079,148.041188,222.061783,-9806.022374
822.595399,148.041188,-148.041188,-9729.412825
822.595719,0.000000,-370.102971,-9806.022374
822.596038,-740.205942,-740.205942,-9806.022374
822.596358,1628.453072,-296.082377,-10878.556072
822.596678,2294.638420,-296.082377,-9959.241474
822.596998,1184.329507,0.000000,-10342.289223
822.597318,-222.061783,962.267725,-10112.460574
822.597638,0.000000,1332.370696,-10955.165621
822.597958,1406.391290,2294.638420,-11261.603821
822.598278,444.123565,444.123565,-10495.508323
822.598598,-296.082377,-1110.308913,-10495.508323
822.598918,296.082377,-2590.720797,-10725.336972
822.599237,1258.350101,-1850.514855,-10265.679673
822.599557,740.205942,-592.164754,-10725.336972
822.599877,-370.102971,592.164754,-9806.022374
822.600197,0.000000,2368.659014,-10955.165621
822.600517,962.267725,3182.885551,-10725.336972
822.600837,296.082377,1480.411884,-10801.946522
822.601157,-296.082377,-370.102971,-10035.851024
822.601477,-296.082377,-1998.556043,-10265.679673
822.601797,1036.288319,-2664.741391,-9959.241474
822.602117,1998.556043,-1258.350101,-10648.727422
822.602436,1036.288319,-666.185348,-9882.631924
822.602756,814.226536,592.164754,-10265.679673
822.603076,814.226536,1184.329507,-10035.851024
822.603396,814.226536,1332.370696,-10342.289223
822.603716,296.082377,814.226536,-9806.022374
822.604036,592.164754,-444.123565,-9652.803275
822.604356,740.205942,-666.185348,-9806.022374
822.604676,740.205942,-1998.556043,-9806.022374
822.604996,-1406.391290,-2220.617826,-9346.365076
822.605316,-296.082377,-1776.494261,-9346.365076
822.605635,1480.411884,0.000000,-10035.851024
822.605955,1258.350101,1258.350101,-10189.070123
822.606275,0.000000,1036.288319,-9882.631924
822.606595,-2072.576638,444.123565,-10342.289223
822.606915,-444.123565,-592.164754,-10112.460574
822.607235,370.102971,-814.226536,-10418.898773
822.607555,0.000000,-740.205942,-10189.070123
822.607875,-148.041188,1110.308913,-10112.460574
822.608195,1184.329507,2368.659014,-11108.384721
822.608515,1998.556043,2960.823768,-10878.556072
822.608834,296.082377,2072.576638,-10418.898773
822.609154,-962.267725,444.123565,-8963.317327
822.609474,1332.370696,-74.020594,-10342.289223
822.609794,1850.514855,74.020594,-10342.289223
822.610114,814.226536,666.185348,-10035.851024
822.610434,-296.082377,1776.494261,-10112.460574
822.610754,0.000000,2368.659014,-10342.289223
822.611074,592.164754,2442.679609,-10648.727422
822.611394,74.020594,2072.576638,-10189.070123
822.611714,-592.164754,1332.370696,-9729.412825
822.612033,1110.308913,1110.308913,-11261.603821
822.612353,3034.844362,962.267725,-10265.679673
822.612673,1850.514855,222.061783,-9959.241474
822.612993,74.020594,222.061783,-9193.145976
822.613313,-370.102971,296.082377,-8963.317327
822.613633,740.205942,370.102971,-9882.631924
822.613953,1924.535449,518.144159,-9652.803275
822.614273,592.164754,-518.144159,-9499.584175
822.614593,222.061783,-888.247130,-9269.755526
822.614913,1110.308913,370.102971,-9269.755526
822.615232,444.123565,666.185348,-9729.412825
822.615552,444.123565,1406.391290,-9576.193725
822.615872,0.000000,962.267725,-10112.460574
822.616192,222.061783,592.164754,-10342.289223
822.616512,-296.082377,-296.082377,-9882.631924
822.616832,-1998.556043,-296.082377,-10265.679673
822.617152,-1406.391290,296.082377,-10189.070123
822.617472,-370.102971,1184.329507,-10342.289223
822.617792,222.061783,2368.659014,-10648.727422
822.618112,-370.102971,2072.576638,-10112.460574
822.618431,-370.102971,962.267725,-10342.289223
822.618751,1628.453072,666.185348,-11108.384721
822.619071,1702.473667,-148.041188,-10801.946522
822.619391,-444.123565,-222.061783,-10035.851024
822.619711,-814.226536,-592.164754,-10112.460574
822.620031,296.082377,518.144159,-10035.851024
822.620351,74.020594,1628.453072,-10342.289223
822.620671,-74.020594,1628.453072,-9882.631924
822.620991,1184.329507,1036.288319,-10342.289223
822.621311,2294.638420,-148.041188,-10418.898773
822.621630,2294.638420,-444.123565,-10265.679673
822.621950,148.041188,-1258.350101,-10878.556072
822.622270,-1110.308913,-1628.453072,-9422.974625
822.622590,518.144159,-1184.329507,-9806.022374
822.622910,2442.679609,-518.144159,-10112.460574
822.623230,962.267725,-518.144159,-9652.803275
822.623550,1332.370696,666.185348,-10112.460574
822.623870,2590.720797,1184.329507,-10572.117872
822.624190,2072.576638,1850.514855,-10418.898773
822.624510,740.205942,2368.659014,-10418.898773
822.624829,-1406.391290,1110.308913,-9576.193725
822.625149,592.164754,-1406.391290,-10035.851024
822.625469,1628.453072,-1184.329507,-10035.851024
822.625789,1850.514855,-888.247130,-10189.070123
822.626109,888.247130,740.205942,-10801.946522
822.626429,1406.391290,1480.411884,-10572.117872
822.626749,1036.288319,1628.453072,-10648.727422
822.627069,-518.144159,592.164754,-10265.679673
822.627389,-1036.288319,0.000000,-9422.974625
822.627709,74.020594,-1406.391290,-11338.213370
822.628028,2368.659014,-888.247130,-10189.070123
822.628348,1406.391290,-592.164754,-10572.117872
822.628668,370.102971,0.000000,-10342.289223
822.628988,962.267725,222.061783,-10801.946522
822.629308,888.247130,1184.329507,-10955.165621
822.629628,-740.205942,1924.535449,-10418.898773
822.629948,-2294.638420,1332.370696,-10495.508323
822.630268,-1480.411884,-148.041188,-10418.898773
822.630588,370.102971,-2368.659014,-9959.241474
822.630907,-148.041188,-1702.473667,-9806.022374
822.631227,-962.267725,-1036.288319,-9499.584175
822.631547,296.082377,222.061783,-9806.022374
822.631867,1628.453072,1628.453072,-10495.508323
822.632187,1332.370696,1776.494261,-10112.460574
822.632507,-740.205942,74.020594,-9576.193725
822.632827,-592.164754,-888.247130,-9499.584175
822.633147,444.123565,-888.247130,-9729.412825
822.633467,1924.535449,-1480.411884,-9806.022374
822.633787,1924.535449,-1258.350101,-9422.974625
822.634106,1480.411884,-1258.350101,-9652.803275
822.634426,1628.453072,-222.061783,-10189.070123
822.634746,666.185348,1110.308913,-8886.707777
822.635066,-1776.494261,1406.391290,-10189.070123
822.635386,-1998.556043,1628.453072,-9499.584175
822.635706,0.000000,740.205942,-10572.117872
822.636026,2146.597232,-444.123565,-9882.631924
822.636346,1776.494261,-1554.432478,-9806.022374
822.636666,1702.473667,-1406.391290,-9882.631924
822.636986,2072.576638,666.185348,-10418.898773
822.637305,1628.453072,2590.720797,-10801.946522
822.637625,740.205942,4071.132681,-11721.261119
822.637945,-296.082377,2664.741391,-10725.336972
822.638265,666.185348,888.247130,-10648.727422
822.638585,1702.473667,-444.123565,-10495.508323
822.638905,1258.350101,-740.205942,-9729.412825
822.639225,1184.329507,-444.123565,-10112.460574
822.639545,1258.350101,1554.432478,-10801.946522
822.639865,592.164754,3108.864956,-10878.556072
822.640185,-1332.370696,3923.091493,-10342.289223
822.640504,-2442.679609,2442.679609,-9422.974625
822.640824,-370.102971,-296.082377,-9959.241474
822.641144,2368.659014,-1036.288319,-9729.412825
822.641464,1850.514855,-1702.473667,-9576.193725
822.641784,444.123565,-666.185348,-9422.974625
822.642104,444.123565,370.102971,-9959.241474
822.642424,666.185348,1850.514855,-10878.556072
822.642744,814.226536,1554.432478,-9806.022374
822.643064,444.123565,1924.535449,-9499.584175
822.643384,1036.288319,518.144159,-9959.241474
822.643704,222.061783,-370.102971,-9652.803275
822.644024,0.000000,-1036.288319,-9652.803275
822.644344,-666.185348,-1036.288319,-9576.193725
822.644664,444.123565,-740.205942,-9576.193725
822.644984,888.247130,518.144159,-10189.070123
822.645304,-740.205942,370.102971,-9729.412825
822.645624,-2442.679609,1110.308913,-9806.022374
822.645944,-1110.308913,444.123565,-10189.070123
822.646264,592.164754,666.185348,-10035.851024
822.646584,148.041188,148.041188,-10265.679673
822.646904,-592.164754,666.185348,-10035.851024
822.647224,444.123565,222.061783,-10265.679673
822.647544,2146.597232,888.247130,-12257.527968
822.647864,2220.617826,962.267725,-10572.117872
822.648185,148.041188,222.061783,-10189.070123
822.648505,0.000000,518.144159,-10648.727422
822.648825,962.267725,370.102971,-10572.117872
822.649145,888.247130,740.205942,-11108.384721
822.649465,148.041188,592.164754,-9959.241474
822.649785,296.082377,-148.041188,-10035.851024
822.650105,2368.659014,-666.185348,-10572.117872
822.650425,2294.638420,-222.061783,-9576.193725
822.650745,-518.144159,-1406.391290,-9806.022374
822.651065,-1184.329507,-962.267725,-9806.022374
822.651385,1110.308913,-222.061783,-9882.631924
822.651705,2146.597232,-222.061783,-10725.336972
822.652025,444.123565,0.000000,-9499.584175
822.652345,148.041188,-148.041188,-9422.974625
822.652665,2812.782580,-222.061783,-10112.460574
822.652985,3997.112087,-444.123565,-10495.508323
822.653305,2146.597232,-814.226536,-10342.289223
822.653625,-1406.391290,-1110.308913,-9806.022374
822.653945,-592.164754,-1110.308913,-9806.022374
822.654265,444.123565,-666.185348,-9806.022374
822.654585,1406.391290,518.144159,-9806.022374
822.654905,962.267725,1998.556043,-10112.460574
822.655225,1924.535449,1480.411884,-10648.727422
822.655545,740.205942,814.226536,-11031.775171
822.655865,-666.185348,74.020594,-10342.289223
822.656185,-1258.350101,-1924.535449,-9652.803275
822.656505,592.164754,-2146.597232,-10265.679673
822.656825,2368.659014,-1258.350101,-10189.070123
822.657145,666.185348,296.082377,-10648.727422
822.657465,-888.247130,1998.556043,-9269.755526
822.657785,-814.226536,1924.535449,-10495.508323
822.658105,148.041188,2368.659014,-10878.556072
822.658425,-148.041188,962.267725,-10189.070123
822.658745,-1184.329507,-740.205942,-9652.803275
822.659066,0.000000,-2220.617826,-9346.365076
822.659386,1332.370696,-2220.617826,-10035.851024
822.659706,-1036.288319,-1628.453072,-9959.241474
822.660026,-3330.926739,148.041188,-9422.974625
822.660346,-2072.576638,1258.350101,-9499.584175
822.660666,1332.370696,1554.432478,-10418.898773
822.660986,2516.700203,2368.659014,-10572.117872
822.661306,74.020594,666.185348,-9959.241474
822.661626,814.226536,-1628.453072,-9729.412825
822.661946,2960.823768,-1332.370696,-9576.193725
822.662266,2072.576638,-814.226536,-9806.022374
822.662586,370.102971,666.185348,-9959.241474
822.662906,74.020594,1628.453072,-10035.851024
822.663226,2146.597232,1480.411884,-10189.070123
822.663546,1036.288319,2516.700203,-10189.070123
822.663866,0.000000,2368.659014,-10189.070123
822.664186,-370.102971,1036.288319,-10265.679673
822.664506,1332.370696,-148.041188,-9959.241474
822.664826,1628.453072,-1258.350101,-9806.022374
822.665146,-444.123565,-444.123565,-9806.022374
822.665466,-888.247130,74.020594,-9806.022374
822.665786,1258.350101,1332.370696,-10572.117872
822.666106,3034.844362,2960.823768,-10112.460574
822.666426,2072.576638,2072.576638,-10342.289223
822.666746,1628.453072,1628.453072,-10035.851024
822.667066,1776.494261,0.000000,-9959.241474
822.667386,888.247130,-296.082377,-10035.851024
822.667706,666.185348,-962.267725,-9959.241474
822.668026,222.061783,-296.082377,-9729.412825
822.668346,814.226536,370.102971,-10342.289223
822.668666,518.144159,1406.391290,-10342.289223
822.668986,-296.082377,2886.803174,-9882.631924
822.669306,-1036.288319,1924.535449,-9806.022374
822.669626,0.000000,518.144159,-10112.460574
822.669946,962.267725,-444.123565,-9806.022374
822.670267,444.123565,-1184.329507,-10035.851024
822.670587,0.000000,-592.164754,-9729.412825
822.670907,666.185348,370.102971,-10112.460574
822.671227,0.000000,1184.329507,-9806.022374
822.671547,-1332.370696,1406.391290,-9806.022374
822.671867,-2516.700203,962.267725,-9959.241474
822.672187,-1480.411884,0.000000,-9882.631924
822.672507,518.144159,0.000000,-10035.851024
822.672827,222.061783,814.226536,-9806.022374
822.673147,0.000000,1702.473667,-9882.631924
822.673467,296.082377,1036.288319,-10495.508323
822.673787,1258.350101,444.123565,-10418.898773
822.674107,0.000000,-370.102971,-9882.631924
822.674427,-1406.391290,-962.267725,-9499.584175
822.674747,-962.267725,-666.185348,-9806.022374
822.675067,740.205942,74.020594,-9882.631924
822.675387,74.020594,1406.391290,-10495.508323
822.675707,-1184.329507,1406.391290,-9806.022374
822.676027,-296.082377,1184.329507,-10265.679673
822.676347,2146.597232,666.185348,-10495.508323
822.676667,1702.473667,-370.102971,-10189.070123
822.676987,0.000000,-740.205942,-10112.460574
822.677307,370.102971,-1184.329507,-10035.851024
822.677627,2516.700203,-222.061783,-9959.241474
822.677947,3478.967927,740.205942,-10648.727422
822.678267,1628.453072,1628.453072,-10418.898773
822.678587,1258.350101,2294.638420,-10572.117872
822.678907,2590.720797,2146.597232,-10572.117872
822.679227,2220.617826,1406.391290,-10418.898773
822.679547,296.082377,-370.102971,-9959.241474
822.679867,-592.164754,-1628.453072,-9959.241474
822.680187,0.000000,-1998.556043,-10035.851024
822.680507,592.164754,-666.185348,-10418.898773
822.680827,740.205942,296.082377,-9882.631924
822.681148,1184.329507,1184.329507,-10189.070123
822.681468,2442.679609,1480.411884,-10801.946522
822.681788,1554.432478,888.247130,-11338.213370
822.682108,-148.041188,518.144159,-9499.584175
822.682428,-444.123565,-592.164754,-9806.022374
822.682748,1702.473667,-1554.432478,-9882.631924
822.683068,2516.700203,-1554.432478,-10495.508323
822.683388,444.123565,-1036.288319,-10112.460574
822.683708,-1110.308913,-296.082377,-9499.584175
822.684028,222.061783,888.247130,-10189.070123
822.684348,1406.391290,1628.453072,-10572.117872
822.684668,222.061783,962.267725,-9959.241474
822.684988,-1554.432478,-1110.308913,-9652.803275
822.685308,-962.267725,-3108.864956,-9652.803275
822.685628,444.123565,-3404.947333,-9729.412825
822.685948,592.164754,-1480.411884,-9729.412825
822.686268,-444.123565,592.164754,-9422.974625
822.686588,814.226536,1776.494261,-10342.289223
822.686908,2442.679609,2368.659014,-10801.946522
822.687228,1036.288319,1628.453072,-10495.508323
822.687548,-2220.617826,444.123565,-9193.145976
822.687868,-2442.679609,-222.061783,-9882.631924
822.688188,296.082377,-370.102971,-10495.508323
822.688508,888.247130,148.041188,-9959.241474
822.688828,0.000000,592.164754,-10112.460574
822.689148,740.205942,888.247130,-10265.679673
822.689468,1554.432478,1480.411884,-10801.946522
822.689788,1850.514855,2442.679609,-10572.117872
822.690108,-222.061783,2294.638420,-10035.851024
822.690428,-666.185348,148.041188,-10342.289223
822.690748,1406.391290,-1850.514855,-10342.289223
822.691068,962.267725,-2146.597232,-10342.289223
822.691388,-1184.329507,-1406.391290,-9882.631924
822.691708,-1110.308913,888.247130,-8656.879127
822.692029,1110.308913,3034.844362,-10801.946522
822.692349,1776.494261,3775.050304,-10878.556072
822.692669,148.041188,2294.638420,-10112.460574
822.692989,-222.061783,0.000000,-9882.631924
822.693309,962.267725,-1480.411884,-10112.460574
822.693629,592.164754,-1628.453072,-10035.851024
822.693949,-1036.288319,-1036.288319,-9652.803275
822.694269,-74.020594,74.020594,-9422.974625
822.694589,1628.453072,666.185348,-9806.022374
822.694909,2664.741391,1258.350101,-10112.460574
822.695229,0.000000,1554.432478,-9959.241474
822.695549,-1554.432478,888.247130,-9652.803275
822.695869,74.020594,74.020594,-9729.412825
822.696189,1184.329507,0.000000,-9806.022374
822.696509,-444.123565,-370.102971,-9652.803275
822.696829,-1406.391290,-370.102971,-9346.365076
822.697149,444.123565,222.061783,-10342.289223
822.697469,1554.432478,1184.329507,-10265.679673
822.697789,296.082377,1480.411884,-10035.851024
822.698109,-962.267725,1628.453072,-10189.070123
822.698429,592.164754,814.226536,-10418.898773
822.698749,1628.453072,296.082377,-10572.117872
822.699069,740.205942,0.000000,-10725.336972
822.699389,-518.144159,0.000000,-9806.022374
822.699709,888.247130,296.082377,-10801.946522
822.700029,2072.576638,740.205942,-10725.336972
822.700349,74.020594,962.267725,-11797.870669
822.700669,-962.267725,148.041188,-10035.851024
822.700989,962.267725,0.000000,-10495.508323
822.701309,3627.009116,-222.061783,-10418.898773
822.701629,2812.782580,666.185348,-11108.384721
822.701949,296.082377,222.061783,-9882.631924
822.702269,0.000000,148.041188,-10265.679673
822.702589,1554.432478,740.205942,-10801.946522
822.702909,962.267725,518.144159,-10572.117872
822.703230,-1036.288319,74.020594,-9806.022374
822.703550,-518.144159,-296.082377,-9729.412825
822.703870,1702.473667,296.082377,-10035.851024
822.704190,1184.329507,962.267725,-10189.070123
822.704510,-740.205942,1036.288319,-10189.070123
822.704830,-1036.288319,444.123565,-9882.631924
822.705150,1184.329507,444.123565,-10342.289223
822.705470,1332.370696,222.061783,-10265.679673
822.705790,-518.144159,-148.041188,-9882.631924
822.706110,0.000000,-222.061783,-9806.022374
822.706430,2220.617826,-148.041188,-10112.460574
822.706750,2072.576638,222.061783,-10112.460574
822.707070,-592.164754,1258.350101,-9806.022374
822.707390,-1776.494261,1258.350101,-10189.070123
822.707710,148.041188,1110.308913,-10648.727422
822.708030,1184.329507,74.020594,-10265.679673
822.708350,-592.164754,-740.205942,-9959.241474
822.708670,-1332.370696,-2146.597232,-10112.460574
822.708990,370.102971,-2442.679609,-9882.631924
822.709310,1628.453072,-740.205942,-9959.241474
822.709630,962.267725,888.247130,-9806.022374
822.709950,-222.061783,1184.329507,-10035.851024
822.710270,962.267725,0.000000,-10572.117872
822.710590,1554.432478,296.082377,-10035.851024
822.710910,740.205942,-592.164754,-9806.022374
822.711230,370.102971,-1406.391290,-9959.241474
822.711550,2220.617826,-1554.432478,-10112.460574
822.711870,2442.679609,148.041188,-10418.898773
822.712190,370.102971,1850.514855,-10265.679673
822.712510,-1332.370696,2220.617826,-10035.851024
822.712830,-370.102971,1332.370696,-10265.679673
822.713150,962.267725,740.205942,-10112.460574
822.713470,1332.370696,-666.185348,-10035.851024
822.713790,222.061783,-1184.329507,-9652.803275
822.714111,2368.659014,-1554.432478,-10265.679673
822.714431,3404.947333,74.020594,-10112.460574
822.714751,1850.514855,1332.370696,-10112.460574
822.715071,74.020594,2072.576638,-10112.460574
822.715391,592.164754,1998.556043,-10342.289223
822.715711,1110.308913,1998.556043,-10878.556072
822.716031,1036.288319,1258.350101,-10648.727422
822.716351,-296.082377,74.020594,-10265.679673
822.716671,0.000000,-1036.288319,-10189.070123
822.716991,1110.308913,-1184.329507,-10189.070123
822.717311,740.205942,-962.267725,-10035.851024
822.717631,-222.061783,74.020594,-9806.022374
822.717951,74.020594,740.205942,-9882.631924
822.718271,814.226536,1554.432478,-10572.117872
822.718591,0.000000,1258.350101,-10265.679673
822.718911,-370.102971,74.020594,-9806.022374
822.719231,370.102971,-666.185348,-9806.022374
822.719551,2368.659014,-518.144159,-9806.022374
822.719871,2516.700203,-222.061783,-9959.241474
822.720191,1110.308913,814.226536,-9729.412825
822.720511,0.000000,592.164754,-9959.241474
822.720831,74.020594,888.247130,-10648.727422
822.721151,-962.267725,1332.370696,-10112.460574
822.721471,-2664.741391,1184.329507,-9729.412825
822.721791,-1998.556043,296.082377,-9652.803275
822.722111,518.144159,-518.144159,-9959.241474
822.722431,592.164754,-962.267725,-9959.241474
822.722751,0.000000,-666.185348,-9499.584175
822.723071,0.000000,0.000000,-9806.022374
822.723391,222.061783,1258.350101,-10495.508323
822.723711,-518.144159,2220.617826,-10189.070123
822.724031,-1850.514855,1776.494261,-9806.022374
822.724351,-1406.391290,444.123565,-9882.631924
822.724671,1332.370696,-962.267725,-11184.994271
822.724992,2146.597232,-1850.514855,-10342.289223
822.725312,1184.329507,-592.164754,-10189.070123
822.725632,518.144159,1332.370696,-10112.460574
822.725952,1554.432478,2368.659014,-11491.432470
822.726272,1628.453072,2738.761985,-11184.994271
822.726592,-1036.288319,1702.473667,-10112.460574
822.726912,-2220.617826,74.020594,-9652.803275
822.727232,666.185348,-740.205942,-9882.631924
822.727552,3627.009116,-1184.329507,-10495.508323
822.727872,2294.638420,-888.247130,-9576.193725
822.728192,-370.102971,0.000000,-9806.022374
822.728512,222.061783,518.144159,-10035.851024
822.728832,1554.432478,1998.556043,-10112.460574
822.729152,888.247130,2146.597232,-10342.289223
822.729472,0.000000,1924.535449,-10189.070123
822.729792,888.247130,148.041188,-10035.851024
822.730112,2664.741391,-1184.329507,-9806.022374
822.730432,2368.659014,-1850.514855,-9806.022374
822.730752,1406.391290,-1184.329507,-9422.974625
822.731072,1554.432478,518.144159,-10189.070123
822.731392,2516.700203,2072.576638,-10495.508323
822.731712,888.247130,2516.700203,-10265.679673
822.732032,-888.247130,2516.700203,-10112.460574
822.732352,-740.205942,740.205942,-10189.070123
822.732672,1184.329507,-370.102971,-10648.727422
822.732992,2590.720797,-1850.514855,-10572.117872
822.733312,962.267725,-1036.288319,-9806.022374
822.733632,370.102971,-148.041188,-10189.070123
822.733952,592.164754,1776.494261,-10801.946522
822.734272,370.102971,1480.411884,-10801.946522
822.734592,-2072.576638,1258.350101,-10035.851024
822.734912,-2146.597232,-222.061783,-9959.241474
822.735232,74.020594,-1924.535449,-10189.070123
822.735552,1480.411884,-1924.535449,-10112.460574
822.735872,1110.308913,-666.185348,-8963.317327
822.736193,444.123565,-148.041188,-9806.022374
822.736513,1998.556043,888.247130,-10725.336972
822.736833,1258.350101,814.226536,-10725.336972
822.737153,-666.185348,0.000000,-9729.412825
822.737473,-1184.329507,-888.247130,-9269.755526
822.737793,0.000000,-1480.411884,-9806.022374
822.738113,-296.082377,-666.185348,-10035.851024
822.738433,-1850.514855,-444.123565,-9576.193725
822.738753,-1480.411884,740.205942,-10035.851024
822.739073,666.185348,1110.308913,-10035.851024
822.739393,1110.308913,1776.494261,-10265.679673
822.739713,0.000000,0.000000,-9806.022374
822.740033,-1184.329507,-1036.288319,-9116.536426
822.740353,888.247130,-1406.391290,-9806.022374
822.740673,3552.988522,-814.226536,-9806.022374
822.740993,1998.556043,74.020594,-9576.193725
822.741313,-222.061783,1480.411884,-10035.851024
822.741633,888.247130,2072.576638,-10342.289223
822.741953,1554.432478,2146.597232,-10572.117872
822.742273,518.144159,1702.473667,-10418.898773
822.742593,-1258.350101,-222.061783,-9806.022374
822.742913,-518.144159,-1850.514855,-10035.851024
822.743233,1850.514855,-1998.556043,-9729.412825
822.743553,1258.350101,-888.247130,-9806.022374
822.743873,518.144159,666.185348,-10265.679673
822.744193,1850.514855,2368.659014,-10878.556072
822.744513,2886.803174,3182.885551,-11031.775171
822.744833,2368.659014,1924.535449,-10801.946522
822.745153,-444.123565,444.123565,-10112.460574
822.745473,-1258.350101,-1184.329507,-10189.070123
822.745793,444.123565,-1110.308913,-10418.898773
822.746114,1258.350101,-1110.308913,-10035.851024
822.746434,518.144159,0.000000,-9806.022374
822.746754,1110.308913,1110.308913,-10342.289223
822.747074,1480.411884,1554.432478,-10418.898773
822.747394,1850.514855,888.247130,-9729.412825
822.747714,-814.226536,1184.329507,-9806.022374
822.748034,-1332.370696,0.000000,-9499.584175
822.748354,370.102971,-888.247130,-9652.803275
822.748674,888.247130,-148.041188,-9269.755526
822.748994,0.000000,666.185348,-9346.365076
822.749314,74.020594,1258.350101,-9806.022374
822.749634,370.102971,2590.720797,-10189.070123
822.749954,222.061783,3108.864956,-10189.070123
822.750274,-1480.411884,2368.659014,-9806.022374
822.750594,-666.185348,0.000000,-9346.365076
822.750914,1036.288319,-1628.453072,-10265.679673
822.751234,888.247130,-2072.576638,-10112.460574
822.751554,-1702.473667,-888.247130,-9729.412825
822.751874,-814.226536,962.267725,-9882.631924
822.752194,1110.308913,2516.700203,-10878.556072
822.752514,-74.020594,3034.844362,-10495.508323
822.752834,-1554.432478,2516.700203,-10725.336972
822.753154,-962.267725,1036.288319,-9882.631924
822.753474,1702.473667,-1036.288319,-10495.508323
822.753794,2516.700203,-1258.350101,-10189.070123
822.754114,518.144159,-1332.370696,-10035.851024
822.754434,0.000000,0.000000,-9806.022374
822.754755,1110.308913,1036.288319,-10572.117872
822.755075,1480.411884,2442.679609,-11414.822920
822.755395,0.000000,2664.741391,-9882.631924
822.755715,-592.164754,1776.494261,-10342.289223
822.756035,1110.308913,444.123565,-10265.679673
822.756355,1776.494261,-592.164754,-9652.803275
822.756675,518.144159,-1332.370696,-9882.631924
822.756995,-148.041188,-1258.350101,-9193.145976
822.757315,2072.576638,518.144159,-9806.022374
822.757635,2664.741391,1850.514855,-10189.070123
822.757955,2442.679609,2294.638420,-10112.460574
822.758275,222.061783,2294.638420,-9576.193725
822.758595,1258.350101,296.082377,-10035.851024
822.758915,2146.597232,-444.123565,-9882.631924
822.759235,1628.453072,-1406.391290,-9116.536426
822.759555,1036.288319,-1332.370696,-9269.755526
822.759875,2442.679609,-888.247130,-9652.803275
822.760195,2368.659014,592.164754,-10572.117872
822.760515,1332.370696,1554.432478,-10495.508323
822.760835,-1036.288319,1110.308913,-9422.974625
822.761155,-1184.329507,370.102971,-10035.851024
822.761475,962.267725,-814.226536,-9882.631924
822.761795,2146.597232,-1480.411884,-10342.289223
822.762115,370.102971,-1554.432478,-9729.412825
822.762435,-148.041188,-814.226536,-10265.679673
822.762755,1480.411884,592.164754,-11491.432470
822.763075,740.205942,1998.556043,-10955.165621
822.763395,-2590.720797,2294.638420,-10418.898773
822.763716,-2294.638420,1628.453072,-10495.508323
822.764036,1036.288319,-296.082377,-10725.336972
822.764356,2220.617826,-1998.556043,-10648.727422
822.764676,0.000000,-3182.885551,-9806.022374
822.764996,-444.123565,-2294.638420,-9882.631924
822.765316,518.144159,370.102971,-10495.508323
822.765636,666.185348,1628.453072,-10342.289223
822.765956,-1850.514855,2812.782580,-9576.193725
822.766276,-2516.700203,2072.576638,-9729.412825
822.766596,-370.102971,518.144159,-10495.508323
822.766916,370.102971,-962.267725,-9729.412825
822.767236,0.000000,-2220.617826,-9346.365076
822.767556,0.000000,-1702.473667,-9269.755526
822.767876,1998.556043,-888.247130,-9959.241474
822.768196,1924.535449,296.082377,-10112.460574
822.768516,296.082377,1332.370696,-9576.193725
822.768836,-1036.288319,2146.597232,-10035.851024
822.769156,2072.576638,1554.432478,-10265.679673
822.769476,3478.967927,444.123565,-10112.460574
822.769796,888.247130,-740.205942,-9882.631924
822.770116,-1184.329507,-1702.473667,-8656.879127
822.770436,518.144159,-1406.391290,-10035.851024
822.770756,1406.391290,444.123565,-10572.117872
822.771076,-370.102971,962.267725,-10112.460574
822.771396,-2368.659014,740.205942,-8580.269578
822.771716,-666.185348,-592.164754,-10112.460574
822.772036,1184.329507,-740.205942,-9806.022374
822.772356,1924.535449,-814.226536,-10265.679673
822.772677,1184.329507,74.020594,-10112.460574
822.772997,2516.700203,1258.350101,-10495.508323
822.773317,3108.864956,1776.494261,-10801.946522
822.773637,814.226536,2072.576638,-10955.165621
822.773957,-1776.494261,1184.329507,-9806.022374
822.774277,-1184.329507,222.061783,-10265.679673
822.774597,592.164754,-370.102971,-10342.289223
822.774917,-592.164754,-518.144159,-10035.851024
822.775237,-1184.329507,-222.061783,-9729.412825
822.775557,740.205942,888.247130,-9959.241474
822.775877,1776.494261,1924.535449,-10495.508323
822.776197,0.000000,2368.659014,-10265.679673
822.776517,-2220.617826,592.164754,-9576.193725
822.776837,-1184.329507,-1036.288319,-9729.412825
822.777157,2294.638420,-1110.308913,-9652.803275
822.777477,2960.823768,-666.185348,-10035.851024
822.777797,1406.391290,592.164754,-9729.412825
822.778117,1036.288319,1554.432478,-9806.022374
822.778437,2590.720797,2590.720797,-10342.289223
822.778757,1406.391290,3108.864956,-12180.918418
822.779077,-1406.391290,1258.350101,-9576.193725
822.779397,-2220.617826,-222.061783,-9576.193725
822.779717,1036.288319,-1406.391290,-9806.022374
822.780037,2072.576638,-814.226536,-10189.070123
822.780357,592.164754,-592.164754,-9959.241474
822.780677,444.123565,740.205942,-9806.022374
822.780997,1184.329507,2368.659014,-10572.117872
822.781318,740.205942,3182.885551,-10648.727422
822.781638,-1332.370696,2960.823768,-9959.241474
822.781958,-1258.350101,1184.329507,-10112.460574
822.782278,1554.432478,-666.185348,-10112.460574
822.782598,3330.926739,-814.226536,-10495.508323
822.782918,1998.556043,0.000000,-10189.070123
822.783238,1036.288319,888.247130,-10342.289223
822.783558,1628.453072,1998.556043,-10725.336972
822.783878,1702.473667,2220.617826,-10648.727422
822.784198,74.020594,2516.700203,-11261.603821
822.784518,-1036.288319,888.247130,-10418.898773
822.784838,-222.061783,-1110.308913,-10418.898773
822.785158,2294.638420,-1480.411884,-9806.022374
822.785478,2442.679609,-1406.391290,-10112.460574
822.785798,1258.350101,-296.082377,-9499.584175
822.786118,1850.514855,1406.391290,-10342.289223
822.786438,1480.411884,3034.844362,-10418.898773
822.786758,-148.041188,2886.803174,-10035.851024
822.787078,-1998.556043,888.247130,-9269.755526
822.787398,-296.082377,-1924.535449,-9882.631924
822.787718,1702.473667,-3552.988522,-9346.365076
822.788038,1332.370696,-3701.029710,-9806.022374
822.788358,-370.102971,-2294.638420,-9806.022374
822.788678,148.041188,148.041188,-9959.241474
822.788998,1110.308913,2072.576638,-10955.165621
822.789318,962.267725,2368.659014,-10648.727422
822.789638,-222.061783,1850.514855,-10112.460574
822.789958,-296.082377,-518.144159,-9959.241474
822.790279,666.185348,-1110.308913,-10189.070123
822.790599,222.061783,-2146.597232,-10265.679673
822.790919,-148.041188,-1776.494261,-9882.631924
822.791239,74.020594,-370.102971,-10035.851024
822.791559,1036.288319,666.185348,-10112.460574
822.791879,-222.061783,2294.638420,-10725.336972
822.792199,-2590.720797,1110.308913,-9959.241474
822.792519,-1258.350101,74.020594,-10265.679673
822.792839,740.205942,-1406.391290,-9806.022374
822.793159,1628.453072,-2812.782580,-9882.631924
822.793479,222.061783,-2146.597232,-9499.584175
822.793799,518.144159,-370.102971,-9806.022374
822.794119,2294.638420,1776.494261,-10495.508323
822.794439,1628.453072,2294.638420,-10725.336972
822.794759,370.102971,1998.556043,-9806.022374
822.795079,-1036.288319,370.102971,-9729.412825
822.795399,518.144159,-1184.329507,-9882.631924
822.795719,2442.679609,-2146.597232,-9806.022374
822.796039,888.247130,-1332.370696,-9576.193725
822.796359,370.102971,0.000000,-9882.631924
822.796679,592.164754,-296.082377,-10189.070123
822.796999,666.185348,370.102971,-10265.679673
822.797319,592.164754,1628.453072,-10112.460574
822.797639,-814.226536,2220.617826,-10112.460574
822.797959,1702.473667,1036.288319,-10572.117872
822.798279,2812.782580,-296.082377,-10418.898773
822.798599,814.226536,-1332.370696,-9039.926876
822.798919,-2368.659014,-1480.411884,-9576.193725
822.799240,222.061783,296.082377,-10648.727422
822.799560,1924.535449,2220.617826,-11031.775171
822.799880,-296.082377,1998.556043,-10265.679673
822.800200,-2368.659014,1554.432478,-9806.022374
822.800520,-888.247130,-814.226536,-10035.851024
822.800840,518.144159,-962.267725,-10265.679673
822.801160,222.061783,-962.267725,-9652.803275
822.801480,666.185348,740.205942,-10035.851024
822.801800,1924.535449,2220.617826,-9959.241474
822.802120,1924.535449,2368.659014,-10648.727422
822.802440,-222.061783,1406.391290,-9729.412825
822.802760,-2738.761985,296.082377,-9499.584175
822.803080,-814.226536,-666.185348,-9806.022374
822.803400,1554.432478,-962.267725,-9806.022374
822.803720,962.267725,-222.061783,-9882.631924
822.804040,0.000000,-444.123565,-9652.803275
822.804360,0.000000,1036.288319,-9499.584175
822.804680,1332.370696,1924.535449,-10955.165621
822.805000,148.041188,2442.679609,-10112.460574
822.805320,-740.205942,2368.659014,-9959.241474
822.805640,-222.061783,1332.370696,-10035.851024
822.805960,2368.659014,370.102971,-10035.851024
822.806280,2812.782580,-1184.329507,-10112.460574
822.806600,1480.411884,-518.144159,-9882.631924
822.806920,962.267725,-592.164754,-9806.022374
822.807240,3182.885551,1258.350101,-10725.336972
822.807560,2072.576638,2664.741391,-10495.508323
822.807881,-740.205942,2664.741391,-10342.289223
822.808201,-1110.308913,1998.556043,-10265.679673
822.808521,740.205942,518.144159,-10112.460574
822.808841,1924.535449,-518.144159,-10495.508323
822.809161,1258.350101,-814.226536,-10035.851024
822.809481,1332.370696,592.164754,-10035.851024
822.809801,2220.617826,740.205942,-10342.289223
822.810121,1776.494261,2146.597232,-10495.508323
822.810441,-740.205942,1702.473667,-10035.851024
822.810761,-1110.308913,1184.329507,-9959.241474
822.811081,1258.350101,444.123565,-10112.460574
822.811401,2368.659014,74.020594,-11721.261119
822.811721,1036.288319,-888.247130,-9959.241474
822.812041,0.000000,-962.267725,-9729.412825
822.812361,1628.453072,-370.102971,-9882.631924
822.812681,2664.741391,1554.432478,-10495.508323
822.813001,0.000000,2368.659014,-11031.775171
822.813321,-2664.741391,1406.391290,-9576.193725
822.813641,-444.123565,74.020594,-10112.460574
822.813961,296.082377,-1184.329507,-9806.022374
822.814281,1036.288319,-3478.967927,-9806.022374
822.814601,-592.164754,-2664.741391,-9116.536426
822.814921,74.020594,-1702.473667,-9806.022374
822.815241,296.082377,740.205942,-10648.727422
822.815561,-518.144159,1850.514855,-10265.679673
822.815881,-1850.514855,1406.391290,-10112.460574
822.816201,-1184.329507,148.041188,-10035.851024
822.816521,1258.350101,-888.247130,-10572.117872
822.816842,1036.288319,-2738.761985,-10035.851024
822.817162,222.061783,-2812.782580,-9882.631924
822.817482,518.144159,-1406.391290,-10112.460574
822.817802,1554.432478,444.123565,-10955.165621
822.818122,1110.308913,1628.453072,-10648.727422
822.818442,0.000000,1554.432478,-10342.289223
822.818762,0.000000,0.000000,-10265.679673
822.819082,444.123565,-1036.288319,-10418.898773
822.819402,-518.144159,-1850.514855,-9806.022374
822.819722,-1924.535449,-2220.617826,-9422.974625
822.820042,-518.144159,-1332.370696,-9652.803275
822.820362,1924.535449,-740.205942,-10572.117872
822.820682,2146.597232,518.144159,-10189.070123
822.821002,444.123565,1776.494261,-10189.070123
822.821322,592.164754,1258.350101,-10572.117872
822.821642,2960.823768,74.020594,-10418.898773
822.821962,2220.617826,148.041188,-10189.070123
822.822282,0.000000,222.061783,-10342.289223
822.822602,296.082377,-148.041188,-9269.755526
822.822922,2738.761985,148.041188,-10955.165621
822.823242,1776.494261,148.041188,-10265.679673
822.823562,1036.288319,592.164754,-10035.851024
822.823882,-666.185348,370.102971,-9806.022374
822.824202,1480.411884,222.061783,-9652.803275
822.824522,1406.391290,222.061783,-9959.241474
822.824842,-666.185348,-592.164754,-9806.022374
822.825162,-1998.556043,-962.267725,-9499.584175
822.825482,-296.082377,-296.082377,-10495.508323
822.825803,518.144159,1332.370696,-9959.241474
822.826123,0.000000,1184.329507,-10035.851024
822.826443,-962.267725,1184.329507,-9882.631924
822.826763,1702.473667,666.185348,-10801.946522
822.827083,2072.576638,592.164754,-9959.241474
822.827403,1702.473667,0.000000,-9959.241474
822.827723,-222.061783,444.123565,-9422.974625
822.828043,296.082377,148.041188,-10035.851024
822.828363,1554.432478,962.267725,-10418.898773
822.828683,-592.164754,1850.514855,-9882.631924
822.829003,-3182.885551,518.144159,-9729.412825
822.829323,-1332.370696,296.082377,-10418.898773
822.829643,-148.041188,148.041188,-9576.193725
822.829963,-740.205942,370.102971,-10265.679673
822.830283,-1480.411884,740.205942,-8886.707777
822.830603,222.061783,1258.350101,-10342.289223
822.830923,1628.453072,1184.329507,-10112.460574
822.831243,666.185348,1036.288319,-10265.679673
822.831563,-296.082377,962.267725,-9806.022374
822.831883,1480.411884,740.205942,-10189.070123
822.832203,3775.050304,444.123565,-10112.460574
822.832523,3849.070898,1184.329507,-10418.898773
822.832843,-222.061783,1184.329507,-9346.365076
822.833163,-666.185348,1554.432478,-9806.022374
822.833483,-1332.370696,1850.514855,-10342.289223
822.833803,-1036.288319,1628.453072,-10035.851024
822.834123,0.000000,814.226536,-9499.584175
822.834443,1554.432478,222.061783,-10189.070123
822.834764,3552.988522,-1036.288319,-10112.460574
822.835084,3552.988522,0.000000,-10648.727422
822.835404,2442.679609,1036.288319,-9729.412825
822.835724,2072.576638,3182.885551,-10418.898773
822.836044,2886.803174,4589.276840,-11031.775171
822.836364,1776.494261,3182.885551,-10418.898773
822.836684,-370.102971,1184.329507,-9959.241474
822.837004,0.000000,-1406.391290,-10878.556072
822.837324,2886.803174,-2590.720797,-10189.070123
822.837644,2590.720797,-2146.597232,-9959.241474
822.837964,370.102971,296.082377,-9959.241474
822.838284,-814.226536,2368.659014,-10112.460574
822.838604,1406.391290,4071.132681,-11951.089769
822.838924,1480.411884,3923.091493,-10955.165621
822.839244,-740.205942,1924.535449,-10189.070123
822.839564,-1850.514855,-1110.308913,-9576.193725
822.839884,1258.350101,-3108.864956,-9806.022374
822.840204,2738.761985,-2220.617826,-10112.460574
822.840524,1554.432478,-2368.659014,-9193.145976
822.840844,-222.061783,-740.205942,-9499.584175
822.841164,-740.205942,444.123565,-10342.289223
822.841484,814.226536,518.144159,-10495.508323
822.841804,-1406.391290,148.041188,-9882.631924
822.842124,-1184.329507,-740.205942,-9882.631924
822.842444,74.020594,-1480.411884,-10572.117872
822.842764,1480.411884,-1702.473667,-10725.336972
822.843084,1258.350101,-1554.432478,-10572.117872
822.843405,0.000000,666.185348,-10648.727422
822.843725,518.144159,2368.659014,-11108.384721
822.844045,888.247130,2664.741391,-11338.213370
822.844364,-592.164754,2368.659014,-10725.336972
822.844684,-2664.741391,0.000000,-9729.412825
822.845004,-1332.370696,-1776.494261,-10648.727422
822.845324,-148.041188,-3775.050304,-9806.022374
822.845644,592.164754,-3923.091493,-10112.460574
822.845964,-444.123565,-2220.617826,-9499.584175
822.846284,0.000000,-444.123565,-10112.460574
822.846604,962.267725,2442.679609,-10572.117872
822.846924,518.144159,2146.597232,-10418.898773
822.847244,-444.123565,2146.597232,-9652.803275
822.847564,-814.226536,74.020594,-10112.460574
822.847884,1554.432478,-1110.308913,-10112.460574
822.848204,2442.679609,-2220.617826,-9652.803275
822.848524,1110.308913,-1998.556043,-9729.412825
822.848844,1110.308913,-1184.329507,-10035.851024
822.849164,2590.720797,148.041188,-10342.289223
822.849484,740.205942,1184.329507,-10265.679673
822.849804,-296.082377,1628.453072,-9959.241474
822.850124,-1702.473667,1406.391290,-10265.679673
822.850444,592.164754,1110.308913,-10648.727422
822.850764,592.164754,-148.041188,-10265.679673
822.851084,518.144159,-814.226536,-9959.241474
822.851404,444.123565,-296.082377,-10189.070123
822.851724,962.267725,592.164754,-10725.336972
822.852044,666.185348,1998.556043,-10418.898773
822.852364,0.000000,1554.432478,-10189.070123
822.852684,-222.061783,1184.329507,-10035.851024
822.853004,74.020594,0.000000,-10801.946522
822.853324,-222.061783,-1184.329507,-10035.851024
822.853643,-1406.391290,-1480.411884,-9652.803275
822.853963,-1480.411884,74.020594,-9806.022374
822.854283,666.185348,962.267725,-11031.775171
822.854603,2442.679609,1924.535449,-10725.336972
822.854923,740.205942,1332.370696,-10035.851024
822.855243,-296.082377,0.000000,-9806.022374
822.855563,1184.329507,-222.061783,-10112.460574
822.855883,888.247130,-518.144159,-10112.460574
822.856203,0.000000,370.102971,-9959.241474
822.856523,-1480.411884,1036.288319,-9422.974625
822.856843,-518.144159,1110.308913,-10035.851024
822.857163,1406.391290,518.144159,-10495.508323
822.857483,-518.144159,962.267725,-9882.631924
822.857803,-1998.556043,1924.535449,-9806.022374
822.858123,-444.123565,1110.308913,-10112.460574
822.858443,1702.473667,962.267725,-10265.679673
822.858763,1628.453072,740.205942,-10418.898773
822.859083,0.000000,370.102971,-9576.193725
822.859403,1554.432478,592.164754,-10878.556072
822.859723,2590.720797,1258.350101,-10648.727422
822.860043,1998.556043,1628.453072,-10572.117872
822.860363,0.000000,2146.597232,-10418.898773
822.860683,0.000000,592.164754,-10418.898773
822.861003,1998.556043,1258.350101,-10112.460574
822.861323,1184.329507,1184.329507,-9882.631924
822.861643,296.082377,370.102971,-9729.412825
822.861963,518.144159,-222.061783,-9806.022374
822.862283,1702.473667,74.020594,-10418.898773
822.862603,2368.659014,0.000000,-10035.851024
822.862922,888.247130,740.205942,-9269.755526
822.863242,0.000000,888.247130,-10035.851024
822.863562,1850.514855,1184.329507,-10342.289223
822.863882,1924.535449,962.267725,-10112.460574
822.864202,370.102971,222.061783,-9882.631924
822.864522,-444.123565,666.185348,-9882.631924
822.864842,1036.288319,444.123565,-10418.898773
822.865162,1628.453072,370.102971,-10572.117872
822.865482,518.144159,0.000000,-9652.803275
822.865802,-222.061783,-888.247130,-9806.022374
822.866122,444.123565,-1036.288319,-9806.022374
822.866442,814.226536,-370.102971,-9729.412825
822.866762,592.164754,148.041188,-9959.241474
822.867082,592.164754,222.061783,-9806.022374
822.867402,1776.494261,592.164754,-10648.727422
822.867722,888.247130,148.041188,-10418.898773
822.868042,-592.164754,-370.102971,-10342.289223
822.868362,-2516.700203,-740.205942,-9346.365076
822.868682,-518.144159,-814.226536,-11874.480219
822.869002,370.102971,-592.164754,-9882.631924
822.869322,1036.288319,-518.144159,-10495.508323
822.869642,-370.102971,-444.123565,-10112.460574
822.869962,-444.123565,-444.123565,-10955.165621
822.870282,0.000000,592.164754,-10572.117872
822.870602,-370.102971,148.041188,-10342.289223
822.870922,-1036.288319,296.082377,-10035.851024
822.871242,296.082377,-444.123565,-11184.994271
822.871562,2664.741391,-814.226536,-10189.070123
822.871881,1702.473667,-962.267725,-10342.289223
822.872201,740.205942,-148.041188,-9882.631924
822.872521,1110.308913,518.144159,-10342.289223
822.872841,1332.370696,444.123565,-10725.336972
822.873161,666.185348,-148.041188,-10342.289223
822.873481,-1332.370696,-666.185348,-9806.022374
822.873801,-592.164754,-1332.370696,-10265.679673
822.874121,1036.288319,-666.185348,-10189.070123
822.874441,-370.102971,666.185348,-10265.679673
822.874761,148.041188,1036.288319,-9806.022374
822.875081,222.061783,1480.411884,-10035.851024
822.875401,962.267725,1702.473667,-10418.898773
822.875721,2072.576638,-296.082377,-9959.241474
822.876041,740.205942,74.020594,-9652.803275
822.876361,962.267725,-1628.453072,-9729.412825
822.876681,2590.720797,-222.061783,-10035.851024
822.877001,592.164754,370.102971,-9806.022374
822.877321,-370.102971,148.041188,-10265.679673
822.877641,-740.205942,1480.411884,-9806.022374
822.877961,222.061783,1480.411884,-10878.556072
822.878281,370.102971,1850.514855,-10801.946522
822.878601,-148.041188,222.061783,-9499.584175
822.878921,-296.082377,-370.102971,-10112.460574
822.879241,1480.411884,-814.226536,-10035.851024
822.879561,1036.288319,-148.041188,-10418.898773
822.879881,-888.247130,888.247130,-9882.631924
822.880201,-1258.350101,1554.432478,-9193.145976
822.880521,1184.329507,2220.617826,-10801.946522
822.880841,1332.370696,1776.494261,-10725.336972
822.881160,74.020594,740.205942,-10112.460574
822.881480,-962.267725,148.041188,-9422.974625
822.881800,814.226536,-1406.391290,-10418.898773
822.882120,518.144159,-592.164754,-10189.070123
822.882440,-444.123565,518.144159,-9959.241474
822.882760,-1258.350101,1850.514855,-10035.851024
822.883080,518.144159,2664.741391,-10342.289223
822.883400,1628.453072,2516.700203,-10725.336972
822.883720,444.123565,962.267725,-10112.460574
822.884040,-814.226536,370.102971,-9422.974625
822.884360,1332.370696,-444.123565,-9959.241474
822.884680,2516.700203,-444.123565,-10035.851024
822.885000,444.123565,148.041188,-9576.193725
822.885320,-1258.350101,962.267725,-9576.193725
822.885640,888.247130,1480.411884,-10189.070123
822.885960,1776.494261,1776.494261,-10035.851024
822.886280,1850.514855,592.164754,-10112.460574
822.886600,-666.185348,-592.164754,-9346.365076
822.886920,148.041188,-1184.329507,-10035.851024
822.887240,1850.514855,-592.164754,-9882.631924
822.887560,1332.370696,296.082377,-10418.898773
822.887880,-814.226536,1776.494261,-9882.631924
822.888200,74.020594,2442.679609,-10265.679673
822.888520,2072.576638,2220.617826,-11031.775171
822.888840,1628.453072,592.164754,-10418.898773
822.889160,0.000000,-1184.329507,-9576.193725
822.889480,222.061783,-1850.514855,-10265.679673
822.889800,1924.535449,-1776.494261,-9959.241474
822.890120,1850.514855,444.123565,-10648.727422
822.890439,-518.144159,1258.350101,-9652.803275
822.890759,518.144159,1924.535449,-10418.898773
822.891079,1480.411884,1998.556043,-10878.556072
822.891399,148.041188,1924.535449,-11414.822920
822.891719,-1776.494261,0.000000,-9346.365076
822.892039,-1924.535449,-1628.453072,-10035.851024
822.892359,666.185348,-1258.350101,-10035.851024
822.892679,740.205942,-962.267725,-9882.631924
822.892999,-1554.432478,-296.082377,-10035.851024
822.893319,-1480.411884,666.185348,-9806.022374
822.893639,-592.164754,1110.308913,-9959.241474
822.893959,888.247130,1628.453072,-10418.898773
822.894279,1184.329507,370.102971,-9193.145976
822.894599,1258.350101,-740.205942,-9806.022374
822.894919,3404.947333,-2072.576638,-10035.851024
822.895239,3849.070898,-2886.803174,-10265.679673
822.895559,2590.720797,-2146.597232,-9882.631924
822.895879,592.164754,-888.247130,-9806.022374
822.896199,1036.288319,1480.411884,-10418.898773
822.896519,-666.185348,3552.988522,-10955.165621
822.896839,-2368.659014,2886.803174,-9959.241474
822.897159,-3108.864956,1258.350101,-9882.631924
822.897479,0.000000,-2146.597232,-10801.946522
822.897799,2368.659014,-3552.988522,-9882.631924
822.898119,1554.432478,-4367.215058,-9882.631924
822.898439,-1110.308913,-2368.659014,-10265.679673
822.898759,-370.102971,1110.308913,-10725.336972
822.899079,962.267725,3478.967927,-11108.384721
822.899399,148.041188,3627.009116,-10725.336972
822.899718,-1110.308913,2516.700203,-10112.460574
822.900038,814.226536,0.000000,-10725.336972
822.900358,2812.782580,-1850.514855,-9959.241474
822.900678,2886.803174,-2294.638420,-10112.460574
822.900998,1850.514855,-1480.411884,-9959.241474
822.901318,1184.329507,74.020594,-10112.460574
822.901638,1036.288319,2442.679609,-11261.603821
822.901958,0.000000,2738.761985,-10265.679673
822.902278,-2072.576638,3182.885551,-9806.022374
822.902598,-1924.535449,1998.556043,-10572.117872
822.902918,814.226536,592.164754,-10265.679673
822.903238,814.226536,-1036.288319,-9652.803275
822.903558,666.185348,-1480.411884,-9576.193725
822.903878,1332.370696,0.000000,-9576.193725
822.904198,1406.391290,1036.288319,-10418.898773
822.904518,222.061783,2886.803174,-10112.460574
822.904838,-518.144159,3256.906145,-9576.193725
822.905158,0.000000,1702.473667,-10112.460574
822.905478,1406.391290,296.082377,-9959.241474
822.905798,962.267725,-1332.370696,-9652.803275
822.906118,-444.123565,-1332.370696,-9422.974625
822.906438,296.082377,-222.061783,-9806.022374
822.906758,1554.432478,962.267725,-10265.679673
822.907078,666.185348,1924.535449,-10112.460574
822.907398,-2220.617826,2072.576638,-9499.584175
822.907718,-1628.453072,1406.391290,-9806.022374
822.908038,814.226536,1776.494261,-10112.460574
822.908358,1258.350101,444.123565,-9959.241474
822.908678,740.205942,-1184.329507,-9729.412825
822.908997,740.205942,-1554.432478,-9959.241474
822.909317,2442.679609,0.000000,-10035.851024
822.909637,1406.391290,2220.617826,-10495.508323
822.909957,-296.082377,3256.906145,-9346.365076
822.910277,-1184.329507,2368.659014,-10418.898773
822.910597,0.000000,296.082377,-10265.679673
822.910917,296.082377,0.000000,-10572.117872
822.911237,0.000000,-1184.329507,-9806.022374
822.911557,518.144159,-444.123565,-9346.365076
822.911877,1776.494261,-296.082377,-10342.289223
822.912197,2146.597232,2368.659014,-10801.946522
822.912517,666.185348,1924.535449,-9959.241474
822.912837,-888.247130,74.020594,-10265.679673
822.913157,296.082377,-740.205942,-10189.070123
822.913477,518.144159,-1184.329507,-9806.022374
822.913797,1036.288319,-1258.350101,-9806.022374
822.914117,1480.411884,-444.123565,-8120.612279
822.914437,3256.906145,888.247130,-10189.070123
822.914757,2886.803174,888.247130,-10342.289223
822.915077,1258.350101,-370.102971,-10189.070123
822.915397,-1480.411884,-1554.432478,-9193.145976
822.915717,814.226536,-1702.473667,-9269.755526
822.916037,2294.638420,-1702.473667,-9499.584175
822.916357,1480.411884,-888.247130,-10189.070123
822.916677,-296.082377,-666.185348,-9422.974625
822.916997,1036.288319,0.000000,-9959.241474
822.917317,1850.514855,222.061783,-10878.556072
822.917637,444.123565,592.164754,-10342.289223
822.917957,-148.041188,814.226536,-9806.022374
822.918276,296.082377,-592.164754,-10418.898773
822.918596,1924.535449,-148.041188,-9959.241474
822.918916,74.020594,-1776.494261,-10418.898773
822.919236,-518.144159,-1332.370696,-9806.022374
822.919556,592.164754,-444.123565,-10189.070123
822.919876,2590.720797,1258.350101,-10801.946522
822.920196,296.082377,1850.514855,-10112.460574
822.920516,-1850.514855,740.205942,-10112.460574
822.920836,-1406.391290,148.041188,-10418.898773
822.921156,1406.391290,-1480.411884,-10035.851024
822.921476,1110.308913,-1406.391290,-10112.460574
822.921796,0.000000,-1332.370696,-9806.022374
822.922116,-1110.308913,-814.226536,-9729.412825
822.922436,1332.370696,0.000000,-10495.508323
822.922756,888.247130,814.226536,-10572.117872
822.923076,-1924.535449,592.164754,-9882.631924
822.923396,-1406.391290,74.020594,-10035.851024
822.923716,222.061783,-888.247130,-10035.851024
822.924036,1554.432478,0.000000,-10342.289223
822.924356,148.041188,0.000000,-9729.412825
822.924676,-518.144159,-444.123565,-9806.022374
822.924996,-518.144159,-370.102971,-10418.898773
822.925316,1184.329507,1036.288319,-10342.289223
822.925636,370.102971,1998.556043,-9193.145976
822.925956,-296.082377,1702.473667,-9729.412825
822.926276,1258.350101,1184.329507,-10035.851024
822.926596,2886.803174,518.144159,-10418.898773
822.926916,1332.370696,444.123565,-9882.631924
822.927236,814.226536,740.205942,-9806.022374
822.927555,1184.329507,2368.659014,-10342.289223
822.927875,222.061783,2220.617826,-10418.898773
822.928195,-222.061783,2294.638420,-10189.070123
822.928515,-2146.597232,1110.308913,-9039.926876
822.928835,-592.164754,740.205942,-10648.727422
822.929155,1702.473667,814.226536,-9806.022374
822.929475,1332.370696,592.164754,-10342.289223
822.929795,0.000000,-592.164754,-9193.145976
822.930115,888.247130,0.000000,-10035.851024
822.930435,2072.576638,1850.514855,-10418.898773
822.930755,1998.556043,2220.617826,-10572.117872
822.931075,814.226536,2516.700203,-10189.070123
822.931395,1406.391290,1184.329507,-10725.336972
822.931715,1850.514855,0.000000,-10189.070123
822.932035,222.061783,-1110.308913,-9959.241474
822.932355,-888.247130,-888.247130,-9652.803275
822.932675,-296.082377,74.020594,-10342.289223
822.932995,296.082377,1184.329507,-10725.336972
822.933315,-444.123565,1554.432478,-10648.727422
822.933635,-2516.700203,740.205942,-9729.412825
822.933955,-1628.453072,-370.102971,-10035.851024
822.934275,1406.391290,0.000000,-9959.241474
822.934595,1258.350101,814.226536,-10342.289223
822.934915,-148.041188,814.226536,-9729.412825
822.935235,-666.185348,0.000000,-9652.803275
822.935555,1924.535449,-222.061783,-9499.584175
822.935875,1480.411884,222.061783,-9652.803275
822.936195,-444.123565,1332.370696,-10189.070123
822.936515,-1110.308913,1554.432478,-9959.241474
822.936834,518.144159,-370.102971,-10189.070123
822.937154,888.247130,-888.247130,-9576.193725
822.937474,296.082377,-888.247130,-9806.022374
822.937794,-296.082377,0.000000,-9882.631924
822.938114,1258.350101,74.020594,-10418.898773
822.938434,1480.411884,1258.350101,-11031.775171
822.938754,518.144159,1554.432478,-10265.679673
822.939074,296.082377,-370.102971,-10189.070123
822.939394,2886.803174,-2368.659014,-9959.241474
822.939714,2368.659014,-888.247130,-9806.022374
822.940034,1850.514855,74.020594,-10418.898773
822.940354,1628.453072,444.123565,-10265.679673
822.940674,1998.556043,1776.494261,-10725.336972
822.940994,1776.494261,2146.597232,-10572.117872
822.941314,-296.082377,518.144159,-9346.365076
822.941634,-888.247130,74.020594,-9806.022374
822.941954,1406.391290,-2146.597232,-10342.289223
822.942274,2812.782580,-1702.473667,-10189.070123
822.942594,740.205942,-1850.514855,-9806.022374
822.942914,518.144159,296.082377,-9652.803275
822.943234,740.205942,296.082377,-10572.117872
822.943554,2590.720797,1702.473667,-10878.556072
822.943874,592.164754,2442.679609,-10112.460574
822.944194,-1776.494261,1628.453072,-9806.022374
822.944514,222.061783,0.000000,-10342.289223
822.944834,2590.720797,-1332.370696,-9806.022374
822.945154,2072.576638,-962.267725,-10035.851024
822.945474,444.123565,-1406.391290,-9039.926876
822.945794,518.144159,-1036.288319,-9729.412825
822.946114,888.247130,-666.185348,-9959.241474
822.946434,-1036.288319,1110.308913,-9729.412825
822.946754,-3034.844362,1850.514855,-9652.803275
822.947074,-2516.700203,222.061783,-10112.460574
822.947394,888.247130,-1110.308913,-10035.851024
822.947714,370.102971,-962.267725,-10189.070123
822.948034,-740.205942,-2368.659014,-9193.145976
822.948354,-148.041188,-740.205942,-9959.241474
822.948674,1258.350101,444.123565,-10725.336972
822.948994,592.164754,1776.494261,-10648.727422
822.949314,-2294.638420,2146.597232,-9806.022374
822.949634,-1924.535449,1184.329507,-10189.070123
822.949954,1036.288319,0.000000,-10648.727422
822.950274,2072.576638,-888.247130,-10572.117872
822.950594,814.226536,-1110.308913,-9959.241474
822.950914,444.123565,-444.123565,-10342.289223
822.951234,1628.453072,1110.308913,-11108.384721
822.951554,148.041188,2664.741391,-10801.946522
822.951874,-2294.638420,2812.782580,-10265.679673
822.952194,-2960.823768,962.267725,-9959.241474
822.952514,-222.061783,0.000000,-9882.631924
822.952834,1998.556043,888.247130,-10342.289223
822.953154,1258.350101,-592.164754,-9729.412825
822.953474,370.102971,-1628.453072,-9729.412825
822.953794,1776.494261,370.102971,-10342.289223
822.954114,2072.576638,2664.741391,-10495.508323
822.954434,2220.617826,2886.803174,-9882.631924
822.954754,1332.370696,2146.597232,-9652.803275
822.955074,3256.906145,0.000000,-9882.631924
822.955394,3256.906145,-1036.288319,-9806.022374
822.955714,1406.391290,-1110.308913,-9652.803275
822.956034,74.020594,-222.061783,-9422.974625
822.956354,444.123565,518.144159,-9959.241474
822.956674,1110.308913,1850.514855,-10189.070123
822.956994,740.205942,1850.514855,-9959.241474
822.957314,-814.226536,1628.453072,-9806.022374
822.957634,74.020594,0.000000,-10112.460574
822.957954,740.205942,-370.102971,-9882.631924
822.958274,-148.041188,-444.123565,-9729.412825
822.958594,-296.082377,-592.164754,-9269.755526
822.958914,962.267725,-518.144159,-10189.070123
822.959234,1406.391290,296.082377,-10342.289223
822.959554,222.061783,1628.453072,-10648.727422
822.959874,-740.205942,1924.535449,-9959.241474
822.960194,444.123565,1628.453072,-10265.679673
822.960514,1628.453072,1184.329507,-10725.336972
822.960834,0.000000,666.185348,-10418.898773
822.961154,-1554.432478,518.144159,-9882.631924
822.961474,-370.102971,296.082377,-10495.508323
822.961794,962.267725,1628.453072,-11108.384721
822.962114,-148.041188,1628.453072,-10418.898773
822.962434,-1998.556043,1702.473667,-10265.679673
822.962754,-1036.288319,296.082377,-9729.412825
822.963074,1184.329507,-148.041188,-10495.508323
822.963394,370.102971,0.000000,-10418.898773
822.963714,-592.164754,592.164754,-9806.022374
822.964034,0.000000,296.082377,-9652.803275
822.964354,2812.782580,2146.597232,-10342.289223
822.964674,3701.029710,2738.761985,-10648.727422
822.964994,444.123565,1776.494261,-9652.803275
822.965314,74.020594,-518.144159,-9499.584175
822.965634,1998.556043,-1998.556043,-9729.412825
822.965954,2664.741391,-1406.391290,-9652.803275
822.966274,1110.308913,-1406.391290,-9576.193725
822.966594,-296.082377,-1110.308913,-9039.926876
822.966914,740.205942,444.123565,-9882.631924
822.967234,592.164754,814.226536,-9806.022374
822.967554,-370.102971,-518.144159,-9882.631924
822.967874,-2072.576638,-2072.576638,-9269.755526
822.968194,74.020594,-1924.535449,-10035.851024
822.968514,1924.535449,-1702.473667,-9959.241474
822.968834,1110.308913,-1036.288319,-10035.851024
822.969154,370.102971,74.020594,-10189.070123
822.969474,1776.494261,666.185348,-11184.994271
822.969794,2220.617826,1850.514855,-10725.336972
822.970114,370.102971,1184.329507,-10955.165621
822.970434,-1036.288319,-296.082377,-10035.851024
822.970754,296.082377,-1184.329507,-10648.727422
822.971074,2294.638420,-666.185348,-11031.775171
822.971394,2220.617826,-1036.288319,-10725.336972
822.971714,222.061783,-740.205942,-10035.851024
822.972034,0.000000,-296.082377,-11031.775171
822.972354,0.000000,296.082377,-10878.556072
822.972674,-814.226536,666.185348,-10572.117872
822.972994,-1480.411884,-518.144159,-10265.679673
822.973314,518.144159,-592.164754,-10418.898773
822.973634,1702.473667,-962.267725,-10189.070123
822.973954,814.226536,-148.041188,-10572.117872
822.974274,-1184.329507,-148.041188,-9576.193725
822.974594,74.020594,-962.267725,-9882.631924
822.974914,1480.411884,-222.061783,-9806.022374
822.975234,962.267725,-740.205942,-9806.022374
822.975554,-518.144159,-592.164754,-9576.193725
822.975874,-296.082377,-1554.432478,-9499.584175
822.976194,1554.432478,-1332.370696,-9806.022374
822.976514,1184.329507,-444.123565,-9576.193725
822.976834,296.082377,-666.185348,-8503.660028
822.977154,222.061783,-148.041188,-9729.412825
822.977474,1184.329507,1036.288319,-10112.460574
822.977794,444.123565,1332.370696,-10418.898773
822.978114,-666.185348,1184.329507,-9652.803275
822.978434,-222.061783,-148.041188,-9499.584175
