#time,accel_x,accel_y,accel_z
933.821575,518.144159,518.144159,-10342.289223
933.821895,222.061783,518.144159,-10112.460574
933.822215,666.185348,444.123565,-10112.460574
933.822535,1110.308913,296.082377,-10342.289223
933.822854,888.247130,222.061783,-10342.289223
933.823174,222.061783,0.000000,-9882.631924
933.823494,0.000000,-370.102971,-10112.460574
933.823814,296.082377,-222.061783,-10035.851024
933.824134,740.205942,74.020594,-10112.460574
933.824454,0.000000,814.226536,-10035.851024
933.824774,0.000000,148.041188,-10035.851024
933.825094,148.041188,370.102971,-10112.460574
933.825414,962.267725,148.041188,-10189.070123
933.825734,518.144159,0.000000,-10418.898773
933.826054,-296.082377,-222.061783,-10112.460574
933.826374,296.082377,-518.144159,-9959.241474
933.826694,666.185348,-444.123565,-9959.241474
933.827013,518.144159,-518.144159,-9882.631924
933.827333,-222.061783,-1110.308913,-9882.631924
933.827653,-592.164754,-740.205942,-9959.241474
933.827973,-148.041188,-814.226536,-9806.022374
933.828293,-296.082377,-518.144159,-9882.631924
933.828613,-1036.288319,-222.061783,-9806.022374
933.828933,-1332.370696,-296.082377,-10035.851024
933.829253,0.000000,-592.164754,-10035.851024
933.829573,-222.061783,-1110.308913,-10035.851024
933.829893,-962.267725,-1850.514855,-10189.070123
933.830213,-740.205942,-1702.473667,-9806.022374
933.830533,-370.102971,-1924.535449,-10035.851024
933.830853,-1332.370696,-1628.453072,-9806.022374
933.831173,-2146.597232,-1924.535449,-10035.851024
933.831492,-2146.597232,-2072.576638,-9882.631924
933.831812,-1184.329507,-1850.514855,-10112.460574
933.832132,-592.164754,-1332.370696,-10035.851024
933.832452,-1110.308913,-1110.308913,-10342.289223
933.832772,-1406.391290,-1184.329507,-10342.289223
933.833092,-592.164754,-740.205942,-11031.775171
933.833412,74.020594,-1184.329507,-10112.460574
933.833732,-888.247130,-1184.329507,-10495.508323
933.834052,-2368.659014,-2294.638420,-10342.289223
933.834372,-2960.823768,-2886.803174,-10265.679673
933.834692,-2368.659014,-2960.823768,-10265.679673
933.835012,-1924.535449,-2516.700203,-10112.460574
933.835332,-2220.617826,-2516.700203,-10112.460574
933.835652,-2368.659014,-3330.926739,-10035.851024
933.835971,-1850.514855,-3330.926739,-9806.022374
933.836291,0.000000,-2072.576638,-10189.070123
933.836611,814.226536,-1036.288319,-10418.898773
933.836931,296.082377,-444.123565,-10418.898773
933.837251,-740.205942,-962.267725,-10189.070123
933.837571,-2368.659014,-1110.308913,-10418.898773
933.837891,-3478.967927,-2146.597232,-10418.898773
933.838211,-4663.297435,-3701.029710,-9959.241474
933.838531,-5255.462188,-4959.379811,-9729.412825
933.838851,-4145.153275,-5773.606348,-9729.412825
933.839171,-2146.597232,-5403.503377,-9576.193725
933.839491,-222.061783,-3923.091493,-9959.241474
933.839811,592.164754,-962.267725,-10112.460574
933.840131,1036.288319,1184.329507,-11721.261119
933.840450,1702.473667,2516.700203,-10725.336972
933.840770,2294.638420,2072.576638,-10418.898773
933.841090,1776.494261,222.061783,-10801.946522
933.841410,0.000000,-1850.514855,-10418.898773
933.841730,-2220.617826,-3404.947333,-10418.898773
933.842050,-4589.276840,-4219.173869,-9806.022374
933.842370,-5773.606348,-4293.194464,-9422.974625
933.842690,-5625.565159,-4663.297435,-9269.755526
933.843010,-3701.029710,-5477.523971,-9499.584175
933.843330,-740.205942,-4589.276840,-9576.193725
933.843650,1110.308913,-2294.638420,-10342.289223
933.843970,2442.679609,666.185348,-10342.289223
933.844290,3923.091493,2812.782580,-10265.679673
933.844610,4737.318029,3997.112087,-11184.994271
933.844929,3478.967927,3256.906145,-11031.775171
933.845249,-814.226536,740.205942,-10648.727422
933.845569,-4811.338623,-2368.659014,-9882.631924
933.845889,-6291.750507,-5255.462188,-9652.803275
933.846209,-5625.565159,-6809.894666,-9576.193725
933.846529,-4737.318029,-6883.915261,-9116.536426
933.846849,-4219.173869,-5329.482782,-9193.145976
933.847169,-2294.638420,-2738.761985,-9499.584175
933.847489,296.082377,592.164754,-10342.289223
933.847809,2812.782580,3256.906145,-10495.508323
933.848129,3627.009116,3330.926739,-10725.336972
933.848449,3330.926739,2368.659014,-10418.898773
933.848769,2664.741391,444.123565,-10648.727422
933.849089,444.123565,-1258.350101,-10342.289223
933.849408,-2442.679609,-1850.514855,-9959.241474
933.849728,-4811.338623,-1776.494261,-9806.022374
933.850048,-5255.462188,-2368.659014,-9039.926876
933.850368,-6143.709319,-3330.926739,-9576.193725
933.850688,-6809.894666,-4737.318029,-9346.365076
933.851008,-5477.523971,-5699.585753,-9039.926876
933.851328,-888.247130,-5033.400406,-9346.365076
933.851648,3330.926739,-2442.679609,-9959.241474
933.851968,4811.338623,962.267725,-10648.727422
933.852288,3108.864956,3404.947333,-10495.508323
933.852608,1480.411884,4441.235652,-10495.508323
933.852928,2220.617826,2960.823768,-10572.117872
933.853248,1628.453072,0.000000,-10418.898773
933.853568,-1406.391290,-3404.947333,-10418.898773
933.853887,-5107.421000,-5847.626942,-9959.241474
933.854207,-7698.141797,-6143.709319,-9882.631924
933.854527,-9104.533087,-4737.318029,-9346.365076
933.854847,-8512.368333,-4737.318029,-9116.536426
933.855167,-4737.318029,-4737.318029,-9116.536426
933.855487,0.000000,-4293.194464,-9806.022374
933.855807,2664.741391,-2220.617826,-12027.699319
933.856127,3552.988522,-148.041188,-10878.556072
933.856447,4071.132681,1702.473667,-10878.556072
933.856767,3923.091493,3108.864956,-10725.336972
933.857087,3182.885551,3330.926739,-10878.556072
933.857407,296.082377,2368.659014,-11568.042020
933.857727,-3627.009116,-888.247130,-10572.117872
933.858046,-6587.832884,-4737.318029,-9959.241474
933.858366,-7772.162391,-7254.018232,-9806.022374
933.858686,-8068.244768,-9474.636058,-8810.098227
933.859006,-6735.874072,-9104.533087,-8963.317327
933.859326,-5107.421000,-7624.121203,-8656.879127
933.859646,-2886.803174,-3997.112087,-9039.926876
933.859966,888.247130,-518.144159,-9806.022374
933.860286,4663.297435,1258.350101,-10265.679673
933.860606,6217.729913,1924.535449,-11414.822920
933.860926,3478.967927,1554.432478,-10572.117872
933.861246,0.000000,-592.164754,-10112.460574
933.861566,-1924.535449,-2294.638420,-10189.070123
933.861886,-2664.741391,-4219.173869,-9806.022374
933.862206,-4367.215058,-5403.503377,-10112.460574
933.862525,-6661.853478,-6883.915261,-9346.365076
933.862845,-5625.565159,-7846.182985,-9039.926876
933.863165,-2886.803174,-5773.606348,-9806.022374
933.863485,-592.164754,-3775.050304,-10112.460574
933.863805,-592.164754,-1406.391290,-10189.070123
933.864125,-2072.576638,-370.102971,-9806.022374
933.864445,-148.041188,1184.329507,-9806.022374
933.864765,2886.803174,962.267725,-10648.727422
933.865085,4367.215058,888.247130,-10955.165621
933.865405,2368.659014,592.164754,-11261.603821
933.865725,370.102971,-1850.514855,-9652.803275
933.866045,-1406.391290,-2220.617826,-10955.165621
933.866365,-3923.091493,-2516.700203,-10265.679673
933.866685,-6513.812290,-2886.803174,-10189.070123
933.867004,-5699.585753,-4441.235652,-9193.145976
933.867324,-3256.906145,-4441.235652,-9806.022374
933.867644,-888.247130,-4071.132681,-9652.803275
933.867964,518.144159,-2812.782580,-9729.412825
933.868284,1628.453072,-1480.411884,-10418.898773
933.868604,1702.473667,444.123565,-10572.117872
933.868924,222.061783,2812.782580,-10648.727422
933.869244,-740.205942,2146.597232,-9806.022374
933.869564,370.102971,666.185348,-10189.070123
933.869884,1628.453072,-518.144159,-10112.460574
933.870204,-592.164754,-2220.617826,-9959.241474
933.870524,-3404.947333,-4145.153275,-9269.755526
933.870844,-4145.153275,-5255.462188,-9576.193725
933.871164,-3034.844362,-4071.132681,-9806.022374
933.871483,-3404.947333,-444.123565,-9729.412825
933.871803,-3034.844362,-1332.370696,-9499.584175
933.872123,-1554.432478,-1480.411884,-9806.022374
933.872443,740.205942,-2220.617826,-10035.851024
933.872763,2886.803174,-962.267725,-10265.679673
933.873083,3404.947333,2664.741391,-10801.946522
933.873403,1480.411884,3182.885551,-10418.898773
933.873723,-1110.308913,1332.370696,-10878.556072
933.874043,-1406.391290,-1184.329507,-9806.022374
933.874363,-1258.350101,-3849.070898,-9269.755526
933.874683,-3478.967927,-3775.050304,-9959.241474
933.875003,-4219.173869,-4367.215058,-9576.193725
933.875323,-5403.503377,-2812.782580,-9806.022374
933.875643,-4589.276840,-2220.617826,-8503.660028
933.875962,-3108.864956,-1554.432478,-9806.022374
933.876282,-592.164754,-1480.411884,-10112.460574
933.876602,1480.411884,-1332.370696,-10189.070123
933.876922,2960.823768,370.102971,-10495.508323
933.877242,1998.556043,1924.535449,-10648.727422
933.877562,666.185348,1406.391290,-10955.165621
933.877882,-1184.329507,-222.061783,-10189.070123
933.878202,-1554.432478,-2960.823768,-9729.412825
933.878522,-3404.947333,-4367.215058,-9806.022374
933.878842,-1628.453072,-4885.359217,-10112.460574
933.879162,-3849.070898,-4441.235652,-10189.070123
933.879482,-5403.503377,-4219.173869,-9346.365076
933.879802,-4737.318029,-3552.988522,-9652.803275
933.880122,-222.061783,-1702.473667,-9116.536426
933.880442,1850.514855,-518.144159,-10572.117872
933.880762,-370.102971,-666.185348,-11031.775171
933.881082,-1110.308913,-1258.350101,-10035.851024
933.881402,0.000000,-1110.308913,-10342.289223
933.881722,2072.576638,-962.267725,-10418.898773
933.882042,1406.391290,-2812.782580,-10342.289223
933.882362,-1776.494261,-3849.070898,-10342.289223
933.882682,-6069.688724,-4145.153275,-9806.022374
933.883002,-7031.956449,-3923.091493,-9806.022374
933.883322,-6069.688724,-3478.967927,-9346.365076
933.883642,-4737.318029,-1480.411884,-9806.022374
933.883962,-1628.453072,-1554.432478,-10112.460574
933.884282,-222.061783,-1998.556043,-10725.336972
933.884602,296.082377,-3108.864956,-10265.679673
933.884922,-2220.617826,-2516.700203,-9882.631924
933.885242,-1480.411884,-2368.659014,-9729.412825
933.885562,1258.350101,74.020594,-11261.603821
933.885882,3256.906145,-222.061783,-10648.727422
933.886202,0.000000,-666.185348,-11184.994271
933.886522,-3478.967927,-1554.432478,-10265.679673
933.886842,-4737.318029,-2220.617826,-10112.460574
933.887162,-2220.617826,-2886.803174,-9499.584175
933.887482,-1406.391290,-2220.617826,-10112.460574
933.887802,-2368.659014,-4441.235652,-10495.508323
933.888122,-2368.659014,-5403.503377,-9346.365076
933.888442,0.000000,-2664.741391,-9806.022374
933.888762,296.082377,-592.164754,-10495.508323
933.889082,1184.329507,1184.329507,-10189.070123
933.889402,1924.535449,3182.885551,-10342.289223
933.889722,1554.432478,962.267725,-10418.898773
933.890042,592.164754,-1998.556043,-9959.241474
933.890362,-444.123565,-2368.659014,-9959.241474
933.890682,592.164754,-3182.885551,-10189.070123
933.891002,1554.432478,-2220.617826,-9652.803275
933.891322,-518.144159,74.020594,-10035.851024
933.891642,-2960.823768,-2664.741391,-9806.022374
933.891962,-2146.597232,-2516.700203,-9806.022374
933.892282,1998.556043,-2368.659014,-9729.412825
933.892602,4589.276840,222.061783,-10265.679673
933.892922,4441.235652,1406.391290,-10418.898773
933.893242,1110.308913,518.144159,-10265.679673
933.893562,296.082377,518.144159,-9652.803275
933.893882,0.000000,74.020594,-9729.412825
933.894201,296.082377,-814.226536,-12257.527968
933.894521,-1110.308913,-2886.803174,-9806.022374
933.894841,-222.061783,-1998.556043,-10878.556072
933.895161,148.041188,-444.123565,-9729.412825
933.895481,1998.556043,888.247130,-10418.898773
933.895801,3256.906145,4441.235652,-12104.308868
933.896121,1184.329507,4959.379811,-10878.556072
933.896441,-148.041188,2812.782580,-10878.556072
933.896761,740.205942,2590.720797,-10801.946522
933.897081,3182.885551,-370.102971,-9882.631924
933.897401,1776.494261,-1036.288319,-10801.946522
933.897721,0.000000,0.000000,-9959.241474
933.898041,-1036.288319,-1628.453072,-9882.631924
933.898361,-444.123565,-1258.350101,-10189.070123
933.898681,0.000000,592.164754,-9193.145976
933.899001,-1184.329507,1924.535449,-10572.117872
933.899321,-2664.741391,296.082377,-9193.145976
933.899641,-1924.535449,-592.164754,-9729.412825
933.899961,-592.164754,-1036.288319,-9116.536426
933.900281,3256.906145,-1554.432478,-9499.584175
933.900601,5255.462188,-1110.308913,-9806.022374
933.900921,2664.741391,370.102971,-10189.070123
933.901241,-1776.494261,2294.638420,-10035.851024
933.901561,-3627.009116,3849.070898,-9652.803275
933.901881,-1184.329507,3108.864956,-9652.803275
933.902201,1184.329507,740.205942,-10572.117872
933.902521,518.144159,-1702.473667,-9806.022374
933.902841,-1628.453072,-2886.803174,-9576.193725
933.903161,-1406.391290,-1332.370696,-9346.365076
933.903481,1850.514855,1554.432478,-9116.536426
933.903801,2886.803174,3034.844362,-10495.508323
933.904121,2146.597232,2442.679609,-10342.289223
933.904441,0.000000,1406.391290,-10265.679673
933.904761,0.000000,518.144159,-9729.412825
933.905081,666.185348,2146.597232,-10495.508323
933.905401,1332.370696,2146.597232,-10725.336972
933.905721,888.247130,1110.308913,-10495.508323
933.906041,1184.329507,-1110.308913,-9806.022374
933.906361,962.267725,-1628.453072,-9806.022374
933.906681,2516.700203,222.061783,-10725.336972
933.907001,2516.700203,1406.391290,-10189.070123
933.907321,1998.556043,4071.132681,-10955.165621
933.907641,1406.391290,3182.885551,-10725.336972
933.907961,1998.556043,444.123565,-10418.898773
933.908281,962.267725,-518.144159,-10801.946522
933.908601,444.123565,-2442.679609,-10189.070123
933.908921,-444.123565,-1480.411884,-10035.851024
933.909241,740.205942,-814.226536,-9806.022374
933.909561,2220.617826,1406.391290,-10418.898773
933.909881,2072.576638,1702.473667,-10495.508323
933.910201,1776.494261,0.000000,-9729.412825
933.910521,2146.597232,0.000000,-10035.851024
933.910841,3182.885551,74.020594,-9806.022374
933.911161,4145.153275,0.000000,-10342.289223
933.911481,2072.576638,0.000000,-10189.070123
933.911801,1554.432478,222.061783,-9116.536426
933.912121,-370.102971,-1628.453072,-10801.946522
933.912440,-888.247130,-1776.494261,-8810.098227
933.912760,-2442.679609,-2146.597232,-9576.193725
933.913080,-2220.617826,-3478.967927,-8656.879127
933.913400,-814.226536,-2220.617826,-9193.145976
933.913720,-1480.411884,-1628.453072,-9959.241474
933.914040,888.247130,-666.185348,-9422.974625
933.914360,1110.308913,-296.082377,-10955.165621
933.914680,518.144159,1554.432478,-10801.946522
933.915000,-1702.473667,1110.308913,-10265.679673
933.915320,-2738.761985,814.226536,-10035.851024
933.915640,222.061783,-1702.473667,-9806.022374
933.915960,74.020594,-3182.885551,-11108.384721
933.916280,-1184.329507,-2590.720797,-10112.460574
933.916600,-2960.823768,-1554.432478,-10572.117872
933.916920,-2960.823768,74.020594,-10418.898773
933.917240,-296.082377,1480.411884,-10112.460574
933.917560,222.061783,888.247130,-11261.603821
933.917880,-814.226536,-814.226536,-10342.289223
933.918200,-666.185348,-1998.556043,-10495.508323
933.918520,222.061783,962.267725,-10265.679673
933.918840,1924.535449,1480.411884,-11338.213370
933.919160,2738.761985,2664.741391,-10878.556072
933.919480,1036.288319,2294.638420,-10955.165621
933.919800,-1480.411884,1628.453072,-10112.460574
933.920120,-1184.329507,-444.123565,-10035.851024
933.920440,0.000000,-1184.329507,-10801.946522
933.920760,1776.494261,-1924.535449,-9806.022374
933.921080,1480.411884,-592.164754,-9193.145976
933.921400,-296.082377,1036.288319,-9806.022374
933.921720,0.000000,2220.617826,-9576.193725
933.922040,1998.556043,1036.288319,-9882.631924
933.922360,2442.679609,0.000000,-9422.974625
933.922680,3330.926739,-1332.370696,-8273.831378
933.923000,4071.132681,-1776.494261,-9652.803275
933.923320,5033.400406,0.000000,-10035.851024
933.923640,3923.091493,1110.308913,-9882.631924
933.923960,962.267725,1998.556043,-10572.117872
933.924280,-888.247130,2516.700203,-9729.412825
933.924600,-1110.308913,1184.329507,-9729.412825
933.924920,444.123565,-1480.411884,-9729.412825
933.925240,666.185348,-2294.638420,-9652.803275
933.925560,222.061783,-1702.473667,-9499.584175
933.925880,222.061783,-2294.638420,-9652.803275
933.926200,3775.050304,-1480.411884,-9806.022374
933.926520,3478.967927,1184.329507,-10495.508323
933.926840,1628.453072,2960.823768,-10418.898773
933.927160,888.247130,3923.091493,-10955.165621
933.927480,370.102971,3108.864956,-10342.289223
933.927800,1036.288319,1258.350101,-11108.384721
933.928120,1850.514855,296.082377,-10725.336972
933.928440,2146.597232,666.185348,-12027.699319
933.928760,-370.102971,962.267725,-10801.946522
933.929080,-3478.967927,3849.070898,-10725.336972
933.929400,-3182.885551,6291.750507,-10725.336972
933.929720,-1110.308913,5699.585753,-10648.727422
933.930040,222.061783,3330.926739,-10189.070123
933.930359,-444.123565,-666.185348,-9959.241474
933.930679,-222.061783,-3997.112087,-9193.145976
933.930999,-518.144159,-5329.482782,-9193.145976
933.931319,1702.473667,-2072.576638,-10035.851024
933.931639,888.247130,2960.823768,-9729.412825
933.931959,-592.164754,6735.874072,-10189.070123
933.932279,-2146.597232,5403.503377,-9576.193725
933.932599,518.144159,444.123565,-9576.193725
933.932919,0.000000,-3627.009116,-8656.879127
933.933239,-1036.288319,-4441.235652,-8886.707777
933.933559,-370.102971,-3330.926739,-9346.365076
933.933879,-518.144159,-2516.700203,-9652.803275
933.934199,222.061783,0.000000,-8886.707777
933.934519,148.041188,1406.391290,-8963.317327
933.934839,1924.535449,3404.947333,-9882.631924
933.935159,2072.576638,4145.153275,-10189.070123
933.935479,592.164754,3775.050304,-10112.460574
933.935799,1110.308913,296.082377,-9652.803275
933.936119,888.247130,-2072.576638,-9882.631924
933.936439,-518.144159,-1998.556043,-9806.022374
933.936759,-1184.329507,-888.247130,-9806.022374
933.937079,-1258.350101,1036.288319,-9576.193725
933.937399,-222.061783,3182.885551,-10265.679673
933.937719,148.041188,4293.194464,-11568.042020
933.938039,1406.391290,2516.700203,-10648.727422
933.938359,2368.659014,1258.350101,-11797.870669
933.938679,3997.112087,-666.185348,-10495.508323
933.938999,3775.050304,-1924.535449,-10418.898773
933.939319,1924.535449,-1554.432478,-10878.556072
933.939639,1776.494261,444.123565,-9576.193725
933.939959,2146.597232,666.185348,-10648.727422
933.940279,2590.720797,592.164754,-10955.165621
933.940599,2368.659014,592.164754,-11108.384721
933.940919,-444.123565,444.123565,-10725.336972
933.941239,-962.267725,-370.102971,-9806.022374
933.941559,-592.164754,-1850.514855,-9652.803275
933.941879,740.205942,-2960.823768,-10035.851024
933.942199,1554.432478,-3404.947333,-8963.317327
933.942519,2664.741391,-2516.700203,-9959.241474
933.942839,3552.988522,-1036.288319,-9882.631924
933.943159,2590.720797,740.205942,-9959.241474
933.943479,814.226536,2294.638420,-9806.022374
933.943799,-444.123565,2738.761985,-9576.193725
933.944119,-444.123565,814.226536,-9652.803275
933.944439,148.041188,-2220.617826,-9882.631924
933.944759,-444.123565,-3923.091493,-9039.926876
933.945079,-1628.453072,-3182.885551,-9269.755526
933.945399,-1258.350101,-814.226536,-9422.974625
933.945719,-222.061783,740.205942,-9729.412825
933.946039,-1776.494261,814.226536,-9806.022374
933.946359,-3256.906145,-370.102971,-9652.803275
933.946679,-1332.370696,814.226536,-9652.803275
933.946999,1554.432478,962.267725,-10342.289223
933.947319,1702.473667,2368.659014,-11031.775171
933.947639,-222.061783,814.226536,-9959.241474
933.947959,-1184.329507,0.000000,-10648.727422
933.948279,-444.123565,-444.123565,-11338.213370
933.948598,-370.102971,1554.432478,-10801.946522
933.948918,-2072.576638,2664.741391,-10572.117872
933.949238,-1554.432478,3701.029710,-10878.556072
933.949558,1110.308913,2294.638420,-11338.213370
933.949878,1554.432478,74.020594,-11108.384721
933.950198,-592.164754,-666.185348,-10189.070123
933.950518,-1702.473667,-1110.308913,-10418.898773
933.950838,0.000000,-740.205942,-9422.974625
933.951158,1258.350101,1924.535449,-9806.022374
933.951478,2294.638420,1998.556043,-10035.851024
933.951798,740.205942,1332.370696,-9806.022374
933.952118,1924.535449,370.102971,-9576.193725
933.952438,1924.535449,2146.597232,-9959.241474
933.952758,2442.679609,1998.556043,-9959.241474
933.953078,3108.864956,1332.370696,-9499.584175
933.953398,2442.679609,296.082377,-9882.631924
933.953718,1554.432478,74.020594,-9039.926876
933.954038,-1110.308913,888.247130,-10342.289223
933.954358,-1036.288319,370.102971,-8963.317327
933.954678,1628.453072,74.020594,-9346.365076
933.954998,3182.885551,0.000000,-9422.974625
933.955318,1480.411884,-666.185348,-9422.974625
933.955638,-962.267725,-1628.453072,-9039.926876
933.955958,962.267725,-1110.308913,-9193.145976
933.956278,4071.132681,1554.432478,-9959.241474
933.956598,4663.297435,3701.029710,-10801.946522
933.956918,3108.864956,3256.906145,-10189.070123
933.957238,2294.638420,814.226536,-10418.898773
933.957558,2072.576638,-592.164754,-10342.289223
933.957878,4145.153275,666.185348,-11031.775171
933.958198,2516.700203,1332.370696,-10265.679673
933.958518,-666.185348,2368.659014,-11108.384721
933.958838,-2960.823768,1110.308913,-10418.898773
933.959158,-1998.556043,-962.267725,-10495.508323
933.959478,-1110.308913,-740.205942,-11031.775171
933.959798,-2516.700203,296.082377,-9882.631924
933.960118,-3108.864956,888.247130,-10648.727422
933.960438,-2664.741391,444.123565,-10572.117872
933.960758,1702.473667,-1036.288319,-9806.022374
933.961078,1998.556043,-1110.308913,-10725.336972
933.961398,-814.226536,-296.082377,-10495.508323
933.961718,-2368.659014,1110.308913,-10035.851024
933.962038,-888.247130,3182.885551,-10112.460574
933.962358,814.226536,4219.173869,-10265.679673
933.962678,1258.350101,3256.906145,-9959.241474
933.962998,-814.226536,74.020594,-9576.193725
933.963318,-1702.473667,-3108.864956,-9499.584175
933.963638,-1924.535449,-3404.947333,-8656.879127
933.963958,-1480.411884,-4441.235652,-9039.926876
933.964278,-2590.720797,-2146.597232,-8427.050478
933.964598,-2516.700203,222.061783,-9116.536426
933.964918,814.226536,1184.329507,-9882.631924
933.965238,1702.473667,1110.308913,-10265.679673
933.965558,2368.659014,1258.350101,-9882.631924
933.965878,888.247130,2442.679609,-10801.946522
933.966198,888.247130,2664.741391,-9959.241474
933.966517,962.267725,1406.391290,-10112.460574
933.966837,1480.411884,-666.185348,-9576.193725
933.967157,888.247130,-2368.659014,-9499.584175
933.967477,814.226536,-3849.070898,-10648.727422
933.967797,1850.514855,-3108.864956,-9499.584175
933.968117,1258.350101,-814.226536,-10801.946522
933.968437,2960.823768,2516.700203,-9959.241474
933.968757,3552.988522,4589.276840,-10265.679673
933.969077,2442.679609,5033.400406,-11184.994271
933.969397,1406.391290,2368.659014,-10035.851024
933.969717,592.164754,-1480.411884,-10035.851024
933.970037,3034.844362,-2738.761985,-9499.584175
933.970357,3849.070898,-2664.741391,-9652.803275
933.970677,2294.638420,-2590.720797,-9959.241474
933.970997,1998.556043,-740.205942,-9806.022374
933.971317,518.144159,888.247130,-9576.193725
933.971637,2664.741391,1184.329507,-9499.584175
933.971957,3701.029710,3256.906145,-10801.946522
933.972277,1702.473667,2812.782580,-10342.289223
933.972597,0.000000,1258.350101,-10112.460574
933.972917,2220.617826,74.020594,-9806.022374
933.973237,3182.885551,-518.144159,-9959.241474
933.973557,1110.308913,-666.185348,-10112.460574
933.973877,-1184.329507,-814.226536,-9422.974625
933.974197,-2294.638420,296.082377,-10112.460574
933.974517,-1184.329507,1406.391290,-9499.584175
933.974837,-148.041188,2072.576638,-10725.336972
933.975157,-1258.350101,1406.391290,-10572.117872
933.975477,-2664.741391,-148.041188,-10112.460574
933.975797,-3182.885551,666.185348,-10495.508323
933.976117,-1554.432478,518.144159,-10112.460574
933.976437,2220.617826,666.185348,-10648.727422
933.976757,-814.226536,518.144159,-10648.727422
933.977077,-2368.659014,0.000000,-10112.460574
933.977397,-1850.514855,740.205942,-9806.022374
933.977717,-296.082377,1776.494261,-10189.070123
933.978037,-296.082377,3775.050304,-10572.117872
933.978357,-1406.391290,2812.782580,-10725.336972
933.978677,-3701.029710,-444.123565,-9576.193725
933.978997,-3330.926739,-1924.535449,-10035.851024
933.979317,0.000000,-1924.535449,-9039.926876
933.979637,962.267725,888.247130,-10342.289223
933.979957,222.061783,2886.803174,-10648.727422
933.980277,740.205942,3701.029710,-9499.584175
933.980597,-370.102971,2738.761985,-10342.289223
933.980917,666.185348,1258.350101,-9039.926876
933.981237,1036.288319,888.247130,-9806.022374
933.981557,1332.370696,-1258.350101,-9806.022374
933.981877,2886.803174,-1998.556043,-9346.365076
933.982197,1480.411884,-1406.391290,-9652.803275
933.982517,1110.308913,666.185348,-9729.412825
933.982837,1036.288319,1776.494261,-10418.898773
933.983157,444.123565,2368.659014,-10342.289223
933.983477,1850.514855,1110.308913,-10418.898773
933.983797,2368.659014,-1850.514855,-9729.412825
933.984117,1036.288319,-3182.885551,-9652.803275
933.984437,74.020594,-2812.782580,-9882.631924
933.984757,148.041188,-1184.329507,-9959.241474
933.985077,2368.659014,2072.576638,-10189.070123
933.985397,3552.988522,3701.029710,-11721.261119
933.985717,5625.565159,2516.700203,-10955.165621
933.986037,4589.276840,888.247130,-11491.432470
933.986357,1776.494261,0.000000,-10035.851024
933.986677,814.226536,-666.185348,-10342.289223
933.986997,0.000000,-814.226536,-10495.508323
933.987317,444.123565,-518.144159,-10189.070123
933.987637,-518.144159,-592.164754,-10342.289223
933.987957,-518.144159,-814.226536,-9499.584175
933.988277,1332.370696,-1776.494261,-10189.070123
933.988597,2146.597232,1110.308913,-10495.508323
933.988917,2368.659014,666.185348,-9882.631924
933.989237,1480.411884,814.226536,-10955.165621
933.989557,148.041188,296.082377,-9422.974625
933.989877,444.123565,222.061783,-10495.508323
933.990197,0.000000,-592.164754,-9959.241474
933.990517,1332.370696,-518.144159,-10418.898773
933.990837,-592.164754,74.020594,-10725.336972
933.991157,-2738.761985,740.205942,-9576.193725
933.991477,-3478.967927,74.020594,-10035.851024
933.991797,-3330.926739,-1110.308913,-9422.974625
933.992117,-2146.597232,-2442.679609,-10112.460574
933.992437,-1924.535449,-2886.803174,-10189.070123
933.992757,-962.267725,-1554.432478,-9806.022374
933.993077,2368.659014,740.205942,-10801.946522
933.993397,3034.844362,3478.967927,-11031.775171
933.993717,814.226536,5181.441594,-11491.432470
933.994037,-3182.885551,4293.194464,-10725.336972
933.994357,-2812.782580,2220.617826,-10035.851024
933.994677,-962.267725,-1184.329507,-10801.946522
933.994997,814.226536,-3552.988522,-9882.631924
933.995317,-1258.350101,-4589.276840,-9499.584175
933.995637,-2442.679609,-2294.638420,-9346.365076
933.995957,-1036.288319,370.102971,-10342.289223
933.996277,-666.185348,3404.947333,-10572.117872
933.996597,-444.123565,4219.173869,-10112.460574
933.996917,-370.102971,4441.235652,-10418.898773
933.997237,666.185348,2442.679609,-9959.241474
933.997557,3552.988522,-592.164754,-10265.679673
933.997877,5329.482782,-2960.823768,-10189.070123
933.998197,5255.462188,-1924.535449,-9269.755526
933.998517,3404.947333,-518.144159,-10035.851024
933.998837,1850.514855,1110.308913,-9806.022374
933.999157,518.144159,3256.906145,-10189.070123
933.999477,-222.061783,3256.906145,-10495.508323
933.999797,1110.308913,3108.864956,-9269.755526
934.000117,1110.308913,666.185348,-10265.679673
934.000437,888.247130,-1554.432478,-9193.145976
934.000757,296.082377,-2664.741391,-9193.145976
934.001077,2442.679609,-2368.659014,-9269.755526
934.001397,2590.720797,0.000000,-9269.755526
934.001717,1184.329507,2664.741391,-10265.679673
934.002037,1110.308913,2886.803174,-9959.241474
934.002357,2738.761985,1998.556043,-9652.803275
934.002677,3182.885551,1332.370696,-9499.584175
934.002997,2220.617826,814.226536,-9882.631924
934.003317,888.247130,370.102971,-10189.070123
934.003637,296.082377,-1480.411884,-9959.241474
934.003957,1850.514855,-2368.659014,-9806.022374
934.004277,1332.370696,-962.267725,-9806.022374
934.004597,-2294.638420,1332.370696,-10189.070123
934.004917,-4737.318029,962.267725,-10112.460574
934.005237,-2368.659014,1110.308913,-9729.412825
934.005557,1554.432478,962.267725,-11108.384721
934.005877,2368.659014,592.164754,-10725.336972
934.006197,-148.041188,-148.041188,-10418.898773
934.006517,-2368.659014,-1924.535449,-9806.022374
934.006837,-1480.411884,-1110.308913,-9806.022374
934.007157,-296.082377,-370.102971,-10801.946522
934.007477,-1924.535449,0.000000,-9806.022374
934.007797,-3849.070898,148.041188,-10725.336972
934.008117,-2664.741391,296.082377,-10418.898773
934.008437,1036.288319,592.164754,-10265.679673
934.008757,2294.638420,1628.453072,-10342.289223
934.009077,0.000000,1332.370696,-9959.241474
934.009397,-2220.617826,518.144159,-10495.508323
934.009717,-3256.906145,-1258.350101,-10495.508323
934.010037,-2220.617826,-3182.885551,-9806.022374
934.010357,-370.102971,-2146.597232,-9346.365076
934.010677,-814.226536,-740.205942,-9346.365076
934.010997,-814.226536,370.102971,-10112.460574
934.011317,1258.350101,1258.350101,-10418.898773
934.011637,1924.535449,296.082377,-10572.117872
934.011957,222.061783,0.000000,-9422.974625
934.012277,222.061783,-444.123565,-10265.679673
934.012597,1628.453072,0.000000,-9959.241474
934.012917,1332.370696,0.000000,-10572.117872
934.013237,2294.638420,592.164754,-10035.851024
934.013557,-444.123565,-666.185348,-9422.974625
934.013877,-740.205942,-814.226536,-9806.022374
934.014197,592.164754,-1406.391290,-9959.241474
934.014517,3330.926739,-518.144159,-10189.070123
934.014837,4959.379811,518.144159,-10572.117872
934.015157,3849.070898,740.205942,-9882.631924
934.015477,2294.638420,-74.020594,-10112.460574
934.015797,1184.329507,0.000000,-10265.679673
934.016117,1628.453072,222.061783,-9806.022374
934.016437,3404.947333,0.000000,-10265.679673
934.016757,4515.256246,814.226536,-9882.631924
934.017077,4071.132681,0.000000,-10725.336972
934.017397,2146.597232,148.041188,-10035.851024
934.017717,148.041188,1480.411884,-10112.460574
934.018037,1554.432478,1332.370696,-10342.289223
934.018357,2368.659014,1480.411884,-9959.241474
934.018677,1480.411884,0.000000,-10648.727422
934.018997,-592.164754,-1628.453072,-9269.755526
934.019317,-1110.308913,-1036.288319,-9959.241474
934.019637,0.000000,-296.082377,-9882.631924
934.019957,1480.411884,740.205942,-9959.241474
934.020277,1036.288319,1850.514855,-10035.851024
934.020597,1184.329507,1332.370696,-9729.412825
934.020917,1184.329507,296.082377,-9882.631924
934.021237,740.205942,-666.185348,-10495.508323
934.021557,74.020594,-740.205942,-9729.412825
934.021877,-1184.329507,74.020594,-10265.679673
934.022197,-1184.329507,962.267725,-9806.022374
934.022517,-740.205942,2072.576638,-10112.460574
934.022837,-2738.761985,1258.350101,-10342.289223
934.023157,-1702.473667,296.082377,-10112.460574
934.023477,-2738.761985,-518.144159,-10572.117872
934.023797,-2072.576638,296.082377,-9959.241474
934.024117,-1776.494261,74.020594,-10189.070123
934.024437,-1850.514855,0.000000,-10035.851024
934.024757,-2072.576638,0.000000,-10265.679673
934.025077,-1776.494261,74.020594,-10572.117872
934.025397,-962.267725,2294.638420,-10035.851024
934.025717,740.205942,3701.029710,-11338.213370
934.026038,1110.308913,3478.967927,-10955.165621
934.026358,74.020594,3923.091493,-11031.775171
934.026678,-1998.556043,1406.391290,-10725.336972
934.026998,-1998.556043,740.205942,-9499.584175
934.027318,0.000000,0.000000,-9959.241474
934.027638,1110.308913,296.082377,-10112.460574
934.027958,740.205942,962.267725,-10265.679673
934.028278,592.164754,1406.391290,-10035.851024
934.028598,592.164754,1554.432478,-9806.022374
934.028918,962.267725,1332.370696,-9806.022374
934.029238,1184.329507,592.164754,-10112.460574
934.029558,1998.556043,518.144159,-9729.412825
934.029878,3034.844362,-814.226536,-9729.412825
934.030198,2738.761985,-592.164754,-9269.755526
934.030518,2812.782580,296.082377,-10265.679673
934.030838,3701.029710,518.144159,-9959.241474
934.031158,3108.864956,370.102971,-10418.898773
934.031478,1554.432478,0.000000,-9346.365076
934.031798,2368.659014,-962.267725,-9499.584175
934.032118,4663.297435,-1258.350101,-10112.460574
934.032438,4071.132681,-740.205942,-9422.974625
934.032758,1258.350101,-370.102971,-9729.412825
934.033078,814.226536,-740.205942,-9269.755526
934.033398,3330.926739,-1998.556043,-10265.679673
934.033718,4293.194464,-1332.370696,-9882.631924
934.034038,1480.411884,0.000000,-9729.412825
934.034358,-666.185348,1258.350101,-9806.022374
934.034678,296.082377,3108.864956,-9806.022374
934.034998,2590.720797,1406.391290,-10801.946522
934.035318,1332.370696,-1036.288319,-10342.289223
934.035638,-814.226536,-2146.597232,-9882.631924
934.035958,-1776.494261,-3552.988522,-10265.679673
934.036278,-296.082377,-2960.823768,-9729.412825
934.036598,1110.308913,-1110.308913,-11031.775171
934.036918,370.102971,592.164754,-10112.460574
934.037238,-370.102971,2738.761985,-11108.384721
934.037558,-1406.391290,3108.864956,-11338.213370
934.037878,-962.267725,3034.844362,-10342.289223
934.038198,-1480.411884,-222.061783,-11108.384721
934.038518,-1924.535449,-3404.947333,-9882.631924
934.038838,-2072.576638,-5255.462188,-9729.412825
934.039158,-1184.329507,-4737.318029,-9806.022374
934.039478,-296.082377,-1406.391290,-10189.070123
934.039798,-666.185348,1406.391290,-10495.508323
934.040118,-1850.514855,3330.926739,-10342.289223
934.040438,-3256.906145,3404.947333,-10648.727422
934.040758,-4219.173869,2812.782580,-10035.851024
934.041078,-2812.782580,0.000000,-9346.365076
934.041398,148.041188,-2146.597232,-9806.022374
934.041718,1480.411884,-2812.782580,-9499.584175
934.042038,1258.350101,-2072.576638,-9959.241474
934.042358,-1036.288319,-962.267725,-9499.584175
934.042678,-1628.453072,370.102971,-9806.022374
934.042998,-814.226536,1924.535449,-9959.241474
934.043318,0.000000,2368.659014,-10189.070123
934.043638,370.102971,1776.494261,-9806.022374
934.043958,1924.535449,0.000000,-9422.974625
934.044278,3404.947333,-1406.391290,-9729.412825
934.044598,1998.556043,-1554.432478,-10035.851024
934.044918,814.226536,-1110.308913,-10189.070123
934.045238,74.020594,1184.329507,-9193.145976
934.045558,-666.185348,2146.597232,-10035.851024
934.045878,2072.576638,1924.535449,-10418.898773
934.046198,3182.885551,518.144159,-10035.851024
934.046518,2590.720797,-1036.288319,-10572.117872
934.046838,1850.514855,-1184.329507,-9959.241474
934.047158,2294.638420,0.000000,-9959.241474
934.047478,2516.700203,740.205942,-11261.603821
934.047798,3478.967927,3256.906145,-10035.851024
934.048118,1924.535449,4959.379811,-11414.822920
934.048438,2812.782580,4515.256246,-10189.070123
934.048758,2812.782580,3108.864956,-10648.727422
934.049078,2368.659014,518.144159,-10572.117872
934.049398,2072.576638,-1036.288319,-9806.022374
934.049718,1036.288319,-1850.514855,-10035.851024
934.050038,1480.411884,-1702.473667,-9269.755526
934.050358,1258.350101,-222.061783,-9499.584175
934.050678,1184.329507,1480.411884,-10189.070123
934.050998,2146.597232,3256.906145,-10035.851024
934.051318,1998.556043,3404.947333,-10418.898773
934.051638,1776.494261,2442.679609,-9499.584175
934.051958,1332.370696,888.247130,-9576.193725
934.052278,2146.597232,-1406.391290,-10112.460574
934.052598,1258.350101,-1776.494261,-10035.851024
934.052918,-1480.411884,-888.247130,-9882.631924
934.053238,-1776.494261,1332.370696,-9729.412825
934.053558,-1110.308913,1998.556043,-10342.289223
934.053878,-222.061783,1406.391290,-9116.536426
934.054198,-592.164754,1184.329507,-10265.679673
934.054518,-2886.803174,0.000000,-9959.241474
934.054838,-2886.803174,-370.102971,-9959.241474
934.055158,-2368.659014,222.061783,-10189.070123
934.055478,-2368.659014,1184.329507,-10418.898773
934.055798,-962.267725,1258.350101,-10725.336972
934.056118,-962.267725,1184.329507,-10189.070123
934.056438,-370.102971,666.185348,-10572.117872
934.056758,-1554.432478,1184.329507,-10725.336972
934.057078,-2072.576638,1480.411884,-10725.336972
934.057398,-2146.597232,2220.617826,-10955.165621
934.057718,-1554.432478,1036.288319,-10418.898773
934.058038,-370.102971,888.247130,-9039.926876
934.058358,-666.185348,370.102971,-10112.460574
934.058678,-592.164754,1776.494261,-9652.803275
934.058998,222.061783,3034.844362,-10801.946522
934.059318,0.000000,2516.700203,-9806.022374
934.059638,962.267725,1924.535449,-9652.803275
934.059958,222.061783,-444.123565,-9959.241474
934.060278,1258.350101,-1554.432478,-8427.050478
934.060598,1554.432478,-1406.391290,-9729.412825
934.060918,1332.370696,-148.041188,-8886.707777
934.061238,1702.473667,-296.082377,-8886.707777
934.061558,888.247130,-1332.370696,-9039.926876
934.061878,2960.823768,-888.247130,-8427.050478
934.062198,3923.091493,-370.102971,-9806.022374
934.062518,2368.659014,-370.102971,-8886.707777
934.062838,1554.432478,0.000000,-9729.412825
934.063158,2146.597232,-1480.411884,-9729.412825
934.063478,4663.297435,-1998.556043,-8810.098227
934.063798,3478.967927,-3330.926739,-9806.022374
934.064118,2812.782580,-3034.844362,-9652.803275
934.064438,1702.473667,-1628.453072,-9806.022374
934.064758,1776.494261,592.164754,-10648.727422
934.065078,3108.864956,2664.741391,-10495.508323
934.065398,3701.029710,2960.823768,-11491.432470
934.065718,3182.885551,1406.391290,-11184.994271
934.066038,1258.350101,-1110.308913,-11108.384721
934.066358,370.102971,-2812.782580,-11031.775171
934.066678,-518.144159,-2072.576638,-9882.631924
934.066998,-1184.329507,-1110.308913,-10801.946522
934.067318,-592.164754,-370.102971,-10495.508323
934.067638,592.164754,-222.061783,-11261.603821
934.067958,370.102971,-1850.514855,-10342.289223
934.068278,-296.082377,-962.267725,-10495.508323
934.068598,370.102971,0.000000,-10572.117872
934.068918,1406.391290,296.082377,-10725.336972
934.069238,296.082377,888.247130,-10955.165621
934.069558,-1628.453072,666.185348,-11184.994271
934.069878,-1776.494261,-518.144159,-10189.070123
934.070198,-370.102971,-1850.514855,-9959.241474
934.070518,222.061783,-1702.473667,-9959.241474
934.070838,-3034.844362,-1332.370696,-10648.727422
934.071158,-4219.173869,-962.267725,-9269.755526
934.071478,-3627.009116,814.226536,-9576.193725
934.071798,-3108.864956,1406.391290,-9652.803275
934.072118,-2146.597232,962.267725,-9652.803275
934.072438,-1628.453072,-518.144159,-9959.241474
934.072758,222.061783,-1036.288319,-8886.707777
934.073078,1628.453072,-1628.453072,-9269.755526
934.073398,0.000000,-1184.329507,-8656.879127
934.073718,-74.020594,-1258.350101,-9193.145976
934.074038,74.020594,-1332.370696,-9729.412825
934.074358,1850.514855,962.267725,-10265.679673
934.074678,2368.659014,2146.597232,-10648.727422
934.074998,888.247130,3775.050304,-9959.241474
934.075318,-1036.288319,2664.741391,-10801.946522
934.075638,-1406.391290,1776.494261,-10189.070123
934.075958,-444.123565,0.000000,-10035.851024
934.076278,0.000000,-2072.576638,-10648.727422
934.076598,740.205942,-1776.494261,-9806.022374
934.076918,740.205942,518.144159,-11108.384721
934.077238,1480.411884,2590.720797,-10878.556072
934.077558,1628.453072,4367.215058,-10878.556072
934.077878,1850.514855,5255.462188,-11184.994271
934.078198,2960.823768,5181.441594,-11184.994271
934.078518,2442.679609,4293.194464,-11108.384721
934.078838,3256.906145,1554.432478,-11031.775171
934.079158,5033.400406,-592.164754,-9882.631924
934.079478,4663.297435,-1110.308913,-11721.261119
934.079798,3330.926739,0.000000,-9576.193725
934.080118,1184.329507,1554.432478,-9806.022374
934.080439,1480.411884,3552.988522,-9729.412825
934.080759,814.226536,3701.029710,-9499.584175
934.081079,0.000000,1998.556043,-8886.707777
934.081399,1110.308913,222.061783,-8810.098227
934.081719,3701.029710,-1776.494261,-9499.584175
934.082039,3997.112087,-1110.308913,-9269.755526
934.082359,2072.576638,-370.102971,-9193.145976
934.082679,0.000000,592.164754,-8580.269578
934.082999,-1110.308913,1110.308913,-9499.584175
934.083319,-814.226536,740.205942,-9346.365076
934.083639,-222.061783,518.144159,-9422.974625
934.083959,814.226536,518.144159,-9806.022374
934.084279,2368.659014,1110.308913,-10112.460574
934.084599,1628.453072,592.164754,-10342.289223
934.084919,0.000000,-370.102971,-9959.241474
934.085239,0.000000,296.082377,-9882.631924
934.085559,-148.041188,444.123565,-10725.336972
934.085880,-1406.391290,1036.288319,-10572.117872
934.086200,-1406.391290,1480.411884,-10878.556072
934.086520,222.061783,962.267725,-11108.384721
934.086840,518.144159,1332.370696,-11184.994271
934.087160,-1924.535449,1850.514855,-10878.556072
934.087480,-2960.823768,2146.597232,-10878.556072
934.087800,-1776.494261,1776.494261,-11414.822920
934.088120,1406.391290,1628.453072,-10572.117872
934.088440,2590.720797,1850.514855,-11338.213370
934.088760,0.000000,2442.679609,-10801.946522
934.089080,-444.123565,1924.535449,-10801.946522
934.089400,-2442.679609,2146.597232,-10648.727422
934.089720,-2738.761985,1554.432478,-9806.022374
934.090040,-2812.782580,1110.308913,-9806.022374
934.090360,-3182.885551,-740.205942,-9499.584175
934.090680,-1702.473667,-1406.391290,-8963.317327
934.091000,-148.041188,-1924.535449,-9576.193725
934.091321,592.164754,-2442.679609,-8733.488677
934.091641,1406.391290,-1998.556043,-9269.755526
934.091961,1110.308913,-1924.535449,-8963.317327
934.092281,2220.617826,-1258.350101,-8886.707777
934.092601,2812.782580,222.061783,-9193.145976
934.092921,4663.297435,1110.308913,-9729.412825
934.093241,4293.194464,444.123565,-9652.803275
934.093561,3182.885551,-666.185348,-9499.584175
934.093881,222.061783,-2368.659014,-9422.974625
934.094201,-1776.494261,-2664.741391,-9039.926876
934.094521,-2442.679609,-2294.638420,-9039.926876
934.094841,-740.205942,-1850.514855,-9576.193725
934.095161,1628.453072,-1776.494261,-9346.365076
934.095481,3775.050304,-1258.350101,-10572.117872
934.095801,3923.091493,-1554.432478,-10342.289223
934.096121,3404.947333,444.123565,-10801.946522
934.096441,3108.864956,1850.514855,-11338.213370
934.096762,1702.473667,1628.453072,-10342.289223
934.097082,1776.494261,888.247130,-11951.089769
934.097402,1924.535449,-962.267725,-11261.603821
934.097722,222.061783,-2960.823768,-11031.775171
934.098042,-666.185348,-3108.864956,-10725.336972
934.098362,-1036.288319,-1332.370696,-10648.727422
934.098682,-2664.741391,148.041188,-11261.603821
934.099002,-2072.576638,1628.453072,-11031.775171
934.099322,-1480.411884,1332.370696,-10955.165621
934.099642,-1850.514855,-888.247130,-10725.336972
934.099962,-2072.576638,-1850.514855,-10189.070123
934.100282,-1184.329507,-3256.906145,-10189.070123
934.100602,222.061783,-2664.741391,-9806.022374
934.100922,370.102971,-2220.617826,-9269.755526
934.101242,-1628.453072,-1036.288319,-9806.022374
934.101562,-518.144159,-74.020594,-9729.412825
934.101882,1332.370696,-148.041188,-10189.070123
934.102203,1554.432478,148.041188,-9193.145976
934.102523,962.267725,1184.329507,-9499.584175
934.102843,1184.329507,1480.411884,-10035.851024
934.103163,74.020594,3775.050304,-10725.336972
934.103483,-2146.597232,3182.885551,-9576.193725
934.103803,-2368.659014,3108.864956,-9882.631924
934.104123,666.185348,666.185348,-9729.412825
934.104443,1184.329507,-1554.432478,-8886.707777
934.104763,0.000000,-3330.926739,-9882.631924
934.105083,0.000000,-2516.700203,-7737.564530
934.105403,370.102971,-1554.432478,-9806.022374
934.105723,-222.061783,2072.576638,-9499.584175
934.106043,-814.226536,3627.009116,-10035.851024
934.106363,666.185348,4811.338623,-10878.556072
934.106683,2590.720797,4071.132681,-10418.898773
934.107003,2516.700203,1702.473667,-10572.117872
934.107323,2146.597232,-814.226536,-10572.117872
934.107644,4071.132681,-1406.391290,-10801.946522
934.107964,3627.009116,-296.082377,-11031.775171
934.108284,592.164754,1332.370696,-10572.117872
934.108604,0.000000,3404.947333,-10265.679673
934.108924,-1924.535449,4071.132681,-10878.556072
934.109244,-222.061783,3701.029710,-9729.412825
934.109564,962.267725,2368.659014,-10189.070123
934.109884,3330.926739,-296.082377,-9806.022374
934.110204,3478.967927,-1036.288319,-10495.508323
934.110524,1184.329507,-1258.350101,-9499.584175
934.110844,-740.205942,1110.308913,-8656.879127
934.111164,-1184.329507,4515.256246,-10265.679673
934.111484,1628.453072,6587.832884,-10495.508323
934.111804,1924.535449,5699.585753,-10572.117872
934.112124,1036.288319,2516.700203,-9806.022374
934.112444,1258.350101,0.000000,-8733.488677
934.112764,1036.288319,-2294.638420,-9806.022374
934.113084,1776.494261,-1406.391290,-8503.660028
934.113405,962.267725,222.061783,-9806.022374
934.113725,0.000000,1258.350101,-9882.631924
934.114045,888.247130,1480.411884,-9806.022374
934.114365,-444.123565,1924.535449,-9806.022374
934.114685,-1702.473667,1554.432478,-9652.803275
934.115005,962.267725,1480.411884,-10342.289223
934.115325,74.020594,-444.123565,-9652.803275
934.115645,370.102971,-2146.597232,-9882.631924
934.115965,370.102971,-3849.070898,-9806.022374
934.116285,0.000000,-2516.700203,-9806.022374
934.116605,-666.185348,74.020594,-9959.241474
934.116925,-814.226536,2368.659014,-10572.117872
934.117245,-222.061783,4589.276840,-11108.384721
934.117565,1332.370696,3627.009116,-11108.384721
934.117885,1258.350101,1554.432478,-10265.679673
934.118205,740.205942,592.164754,-11261.603821
934.118525,-666.185348,-222.061783,-10495.508323
934.118846,-2294.638420,444.123565,-10725.336972
934.119166,-518.144159,-296.082377,-10189.070123
934.119486,0.000000,740.205942,-9882.631924
934.119806,-1036.288319,0.000000,-10265.679673
934.120126,-1850.514855,74.020594,-9576.193725
934.120446,-888.247130,0.000000,-10189.070123
934.120766,2738.761985,1406.391290,-11031.775171
934.121086,2812.782580,1776.494261,-9959.241474
934.121406,2368.659014,1628.453072,-10035.851024
934.121726,1628.453072,888.247130,-9806.022374
934.122046,740.205942,-1480.411884,-9346.365076
934.122366,-296.082377,-3182.885551,-9422.974625
934.122686,962.267725,-3256.906145,-9269.755526
934.123006,296.082377,-2886.803174,-9882.631924
934.123326,-518.144159,-1480.411884,-9959.241474
934.123646,-296.082377,-370.102971,-8963.317327
934.123966,1924.535449,1850.514855,-10342.289223
934.124287,2664.741391,1628.453072,-10955.165621
934.124607,222.061783,-148.041188,-9882.631924
934.124927,-1480.411884,-3330.926739,-10342.289223
934.125247,740.205942,-4663.297435,-8963.317327
934.125567,3701.029710,-3627.009116,-9806.022374
934.125887,4219.173869,74.020594,-10801.946522
934.126207,3404.947333,2072.576638,-11031.775171
934.126527,2368.659014,3849.070898,-10725.336972
934.126847,1258.350101,2146.597232,-10572.117872
934.127167,148.041188,74.020594,-10189.070123
934.127487,740.205942,-2072.576638,-10035.851024
934.127807,74.020594,-3552.988522,-10265.679673
934.128127,518.144159,-3552.988522,-10035.851024
934.128447,0.000000,-2738.761985,-9959.241474
934.128767,-592.164754,-740.205942,-9652.803275
934.129087,-1628.453072,1184.329507,-10342.289223
934.129407,-444.123565,2368.659014,-10495.508323
934.129728,1258.350101,2220.617826,-10801.946522
934.130048,2220.617826,962.267725,-10418.898773
934.130368,1258.350101,1480.411884,-10495.508323
934.130688,148.041188,-518.144159,-10878.556072
934.131008,-1110.308913,-1406.391290,-10418.898773
934.131328,-1406.391290,-1628.453072,-10035.851024
934.131648,-2146.597232,-1258.350101,-9882.631924
934.131968,-2664.741391,-518.144159,-10035.851024
934.132288,-2072.576638,666.185348,-11261.603821
934.132608,-1480.411884,888.247130,-10035.851024
934.132928,-2146.597232,518.144159,-10648.727422
934.133248,-1480.411884,-740.205942,-9959.241474
934.133568,-1258.350101,0.000000,-9193.145976
934.133888,-666.185348,-222.061783,-10572.117872
934.134208,-444.123565,1702.473667,-9652.803275
934.134528,370.102971,2368.659014,-10572.117872
934.134848,296.082377,3627.009116,-10725.336972
934.135169,2368.659014,2368.659014,-10342.289223
934.135489,1998.556043,1258.350101,-10112.460574
934.135809,-148.041188,1036.288319,-9576.193725
934.136129,-814.226536,-222.061783,-9806.022374
934.136449,-962.267725,-518.144159,-10418.898773
934.136769,0.000000,-962.267725,-9729.412825
934.137089,0.000000,0.000000,-9806.022374
934.137409,666.185348,1776.494261,-8963.317327
934.137729,2220.617826,2960.823768,-10495.508323
934.138049,2812.782580,3256.906145,-10342.289223
934.138369,2072.576638,2590.720797,-9806.022374
934.138689,2516.700203,1554.432478,-10035.851024
934.139009,4293.194464,-222.061783,-9499.584175
934.139329,3330.926739,-370.102971,-10112.460574
934.139649,1332.370696,740.205942,-10035.851024
934.139969,-222.061783,518.144159,-9806.022374
934.140289,148.041188,1924.535449,-10112.460574
934.140610,74.020594,1554.432478,-9499.584175
934.140930,-296.082377,296.082377,-9729.412825
934.141250,1258.350101,-296.082377,-10342.289223
934.141570,4293.194464,0.000000,-10572.117872
934.141890,5773.606348,444.123565,-10418.898773
934.142210,4219.173869,1480.411884,-9422.974625
934.142530,2516.700203,2886.803174,-9959.241474
934.142850,1554.432478,2960.823768,-11031.775171
934.143170,1110.308913,2590.720797,-10572.117872
934.143490,-444.123565,1332.370696,-9269.755526
934.143810,-1332.370696,0.000000,-9882.631924
934.144130,444.123565,-148.041188,-9959.241474
934.144450,1184.329507,-666.185348,-10189.070123
934.144770,888.247130,296.082377,-10878.556072
934.145090,-1110.308913,962.267725,-9959.241474
934.145410,-2590.720797,0.000000,-9806.022374
934.145730,0.000000,-296.082377,-10035.851024
934.146050,1480.411884,74.020594,-10112.460574
934.146371,370.102971,518.144159,-10648.727422
934.146691,-1776.494261,1110.308913,-10342.289223
934.147011,-3108.864956,518.144159,-9806.022374
934.147331,-2294.638420,0.000000,-10265.679673
934.147651,-1924.535449,-814.226536,-10265.679673
934.147971,-3404.947333,-3256.906145,-9806.022374
934.148291,-3108.864956,-3552.988522,-9576.193725
934.148611,-3182.885551,-1998.556043,-9806.022374
934.148931,-1406.391290,444.123565,-10035.851024
934.149251,1110.308913,2442.679609,-10342.289223
934.149571,2368.659014,2664.741391,-10112.460574
934.149891,1850.514855,1776.494261,-10648.727422
934.150211,962.267725,148.041188,-10418.898773
934.150531,222.061783,-148.041188,-10035.851024
934.150851,-1110.308913,-148.041188,-10342.289223
934.151171,-444.123565,148.041188,-9882.631924
934.151491,-1184.329507,222.061783,-10189.070123
934.151812,-1480.411884,-296.082377,-9882.631924
934.152132,-518.144159,-296.082377,-9806.022374
934.152452,-1480.411884,-1184.329507,-10725.336972
934.152772,-518.144159,-1850.514855,-9729.412825
934.153092,-296.082377,-1998.556043,-9652.803275
934.153412,370.102971,-1406.391290,-10035.851024
934.153732,1554.432478,-1776.494261,-9193.145976
934.154052,2294.638420,-1110.308913,-10189.070123
934.154372,3478.967927,-962.267725,-9576.193725
934.154692,2812.782580,222.061783,-9652.803275
934.155012,4293.194464,888.247130,-10955.165621
934.155332,5255.462188,1480.411884,-10189.070123
934.155652,2812.782580,444.123565,-10418.898773
934.155972,148.041188,-1998.556043,-10418.898773
934.156292,-444.123565,-2220.617826,-9116.536426
934.156612,0.000000,-1776.494261,-10265.679673
934.156932,1628.453072,-444.123565,-9576.193725
934.157253,1850.514855,-740.205942,-10265.679673
934.157573,3923.091493,-148.041188,-10035.851024
934.157893,4219.173869,-296.082377,-10342.289223
934.158213,3923.091493,1036.288319,-10189.070123
934.158533,3330.926739,2812.782580,-11338.213370
934.158853,2590.720797,2664.741391,-10112.460574
934.159173,1924.535449,2442.679609,-10725.336972
934.159493,1258.350101,1184.329507,-10725.336972
934.159813,1554.432478,148.041188,-9576.193725
934.160133,0.000000,-1184.329507,-10418.898773
934.160453,-370.102971,-814.226536,-9959.241474
934.160773,74.020594,-296.082377,-10418.898773
934.161093,740.205942,0.000000,-10265.679673
934.161413,-148.041188,888.247130,-9652.803275
934.161733,-1332.370696,2738.761985,-10725.336972
934.162053,-2072.576638,2072.576638,-9806.022374
934.162373,-1554.432478,1998.556043,-10035.851024
934.162694,962.267725,444.123565,-10801.946522
934.163014,1702.473667,-740.205942,-9652.803275
934.163334,370.102971,-1850.514855,-10189.070123
934.163654,-592.164754,-592.164754,-9806.022374
934.163974,-1924.535449,444.123565,-9959.241474
934.164294,-1776.494261,1850.514855,-9806.022374
934.164614,-1924.535449,2960.823768,-9959.241474
934.164934,-2294.638420,3627.009116,-9882.631924
934.165254,-2664.741391,2442.679609,-10342.289223
934.165574,296.082377,74.020594,-10189.070123
934.165894,2220.617826,-1924.535449,-10112.460574
934.166214,222.061783,-666.185348,-9499.584175
934.166534,-2590.720797,1110.308913,-9729.412825
934.166854,-4293.194464,2368.659014,-9652.803275
934.167174,-1036.288319,2886.803174,-9959.241474
934.167494,1036.288319,1924.535449,-10495.508323
934.167814,-962.267725,0.000000,-9652.803275
934.168135,0.000000,-370.102971,-9806.022374
934.168455,0.000000,0.000000,-9806.022374
934.168775,1110.308913,2220.617826,-10495.508323
934.169095,2886.803174,1480.411884,-10572.117872
934.169415,1036.288319,296.082377,-9576.193725
934.169735,-1036.288319,-740.205942,-9422.974625
934.170055,-370.102971,-1924.535449,-9806.022374
934.170375,222.061783,-444.123565,-9576.193725
934.170695,2220.617826,222.061783,-10495.508323
934.171015,3552.988522,740.205942,-9806.022374
934.171335,2072.576638,1184.329507,-10418.898773
934.171655,2664.741391,0.000000,-10418.898773
934.171975,2812.782580,-1628.453072,-9652.803275
934.172295,4737.318029,-444.123565,-10418.898773
934.172615,3108.864956,592.164754,-10725.336972
934.172935,1036.288319,222.061783,-9499.584175
934.173255,-222.061783,444.123565,-10112.460574
934.173576,1332.370696,-592.164754,-10112.460574
934.173896,2812.782580,-2146.597232,-10112.460574
934.174216,1776.494261,-1332.370696,-10495.508323
934.174536,2368.659014,-222.061783,-10035.851024
934.174856,3849.070898,1998.556043,-10035.851024
934.175176,5107.421000,2812.782580,-10572.117872
934.175496,4441.235652,3330.926739,-10878.556072
934.175816,222.061783,1776.494261,-10265.679673
934.176136,-2368.659014,444.123565,-10418.898773
934.176456,-2368.659014,-1554.432478,-9652.803275
934.176776,-1110.308913,-3849.070898,-9729.412825
934.177096,888.247130,-4293.194464,-9959.241474
934.177416,-222.061783,-2886.803174,-9959.241474
934.177736,-2220.617826,-2368.659014,-9039.926876
934.178056,-888.247130,74.020594,-9499.584175
934.178376,592.164754,2664.741391,-10495.508323
934.178696,518.144159,3256.906145,-10878.556072
934.179016,-1036.288319,444.123565,-10035.851024
934.179337,-1480.411884,-2368.659014,-9193.145976
934.179657,0.000000,-3701.029710,-9729.412825
934.179977,-962.267725,-2294.638420,-10418.898773
934.180297,-2368.659014,1406.391290,-10725.336972
934.180617,-2886.803174,3701.029710,-10495.508323
934.180937,-3627.009116,2516.700203,-9652.803275
934.181257,-4367.215058,518.144159,-10035.851024
934.181576,-4293.194464,-1110.308913,-9729.412825
934.181896,-3256.906145,-1776.494261,-10189.070123
934.182216,-1332.370696,-2368.659014,-10189.070123
934.182536,370.102971,-1332.370696,-9576.193725
934.182856,3330.926739,592.164754,-10418.898773
934.183176,3182.885551,1998.556043,-10418.898773
934.183496,1480.411884,3034.844362,-10342.289223
934.183816,1850.514855,4145.153275,-10648.727422
934.184136,666.185348,3034.844362,-9806.022374
934.184456,1628.453072,444.123565,-10342.289223
934.184776,1332.370696,-370.102971,-10495.508323
934.185096,296.082377,-1036.288319,-9806.022374
934.185416,-814.226536,0.000000,-9729.412825
934.185736,370.102971,888.247130,-9959.241474
934.186056,1702.473667,1406.391290,-10112.460574
934.186376,3034.844362,1258.350101,-9652.803275
934.186696,1332.370696,2146.597232,-9576.193725
934.187016,592.164754,666.185348,-9499.584175
934.187336,2516.700203,518.144159,-9729.412825
934.187656,4293.194464,-1702.473667,-9959.241474
934.187976,5329.482782,-1036.288319,-10495.508323
934.188296,3552.988522,1036.288319,-9729.412825
934.188616,740.205942,2516.700203,-10418.898773
934.188936,1554.432478,4145.153275,-10189.070123
934.189256,2664.741391,3701.029710,-10648.727422
934.189576,4293.194464,1850.514855,-10572.117872
934.189896,3256.906145,-1110.308913,-9806.022374
934.190216,1184.329507,-1332.370696,-9806.022374
934.190536,962.267725,0.000000,-9729.412825
934.190856,2146.597232,1406.391290,-10495.508323
934.191176,1554.432478,2072.576638,-10112.460574
934.191496,-888.247130,1332.370696,-9882.631924
934.191816,-2664.741391,-1998.556043,-9652.803275
934.192136,-1110.308913,-2886.803174,-8886.707777
934.192456,1628.453072,-962.267725,-10418.898773
934.192776,1036.288319,1036.288319,-9806.022374
934.193096,-1036.288319,2886.803174,-9959.241474
934.193416,-296.082377,2664.741391,-10189.070123
934.193736,1998.556043,1184.329507,-10189.070123
934.194056,2220.617826,-1258.350101,-10265.679673
934.194376,-1036.288319,-1776.494261,-9882.631924
934.194696,-3478.967927,-1110.308913,-9652.803275
934.195016,-4441.235652,740.205942,-9882.631924
934.195336,-2072.576638,2294.638420,-10342.289223
934.195656,-962.267725,2146.597232,-10648.727422
934.195976,-1184.329507,-222.061783,-10265.679673
934.196296,-1258.350101,-1702.473667,-10112.460574
934.196616,-370.102971,-1332.370696,-10189.070123
934.196935,1628.453072,-666.185348,-11108.384721
934.197255,1554.432478,1036.288319,-10572.117872
934.197575,-1480.411884,1998.556043,-10189.070123
934.197895,-3627.009116,2886.803174,-10112.460574
934.198215,-1998.556043,2368.659014,-9576.193725
934.198535,888.247130,1628.453072,-10725.336972
934.198855,2146.597232,-370.102971,-10112.460574
934.199175,2072.576638,-1998.556043,-9806.022374
934.199495,74.020594,-2442.679609,-9422.974625
934.199815,1776.494261,-444.123565,-9499.584175
934.200135,-1776.494261,592.164754,-10878.556072
934.200455,-1702.473667,74.020594,-9422.974625
934.200775,-2368.659014,-148.041188,-9422.974625
934.201095,444.123565,-1924.535449,-9039.926876
934.201415,3997.112087,-1924.535449,-10189.070123
934.201735,3849.070898,-1332.370696,-10112.460574
934.202055,2442.679609,222.061783,-10112.460574
934.202375,1480.411884,1036.288319,-9346.365076
934.202695,1554.432478,74.020594,-9806.022374
934.203015,2516.700203,370.102971,-9959.241474
934.203335,3256.906145,-666.185348,-10495.508323
934.203655,2368.659014,-1776.494261,-10648.727422
934.203975,2294.638420,-1110.308913,-10572.117872
934.204295,1110.308913,-296.082377,-9729.412825
934.204615,1702.473667,2072.576638,-11644.651570
934.204935,1110.308913,3849.070898,-10725.336972
934.205255,740.205942,1480.411884,-11031.775171
934.205575,222.061783,518.144159,-10572.117872
934.205895,-888.247130,-1184.329507,-10035.851024
934.206215,2146.597232,-1998.556043,-10035.851024
934.206535,3997.112087,-814.226536,-10572.117872
934.206855,1406.391290,370.102971,-9652.803275
934.207175,592.164754,1998.556043,-10189.070123
934.207495,1924.535449,1406.391290,-10342.289223
934.207815,2664.741391,962.267725,-9959.241474
934.208135,1776.494261,1110.308913,-10112.460574
934.208455,-222.061783,666.185348,-9346.365076
934.208775,-1406.391290,-518.144159,-9346.365076
934.209095,-3108.864956,-1258.350101,-9346.365076
934.209415,-1776.494261,-1924.535449,-9269.755526
934.209735,-148.041188,-370.102971,-9422.974625
934.210055,370.102971,222.061783,-10189.070123
934.210375,-370.102971,1184.329507,-9499.584175
934.210695,-592.164754,444.123565,-9039.926876
934.211015,1036.288319,296.082377,-9499.584175
934.211335,1554.432478,592.164754,-9729.412825
934.211655,-296.082377,296.082377,-10572.117872
934.211975,-1258.350101,370.102971,-9882.631924
934.212294,-962.267725,-666.185348,-10112.460574
934.212614,888.247130,666.185348,-9806.022374
934.212934,518.144159,2220.617826,-9806.022374
934.213254,518.144159,3256.906145,-10878.556072
934.213574,-592.164754,3478.967927,-10265.679673
934.213894,0.000000,2368.659014,-11031.775171
934.214214,444.123565,0.000000,-10189.070123
934.214534,-888.247130,-962.267725,-10342.289223
934.214854,-2220.617826,-740.205942,-9499.584175
934.215174,-1702.473667,444.123565,-10342.289223
934.215494,296.082377,2590.720797,-10495.508323
934.215814,1332.370696,3701.029710,-11414.822920
934.216134,1628.453072,2590.720797,-10648.727422
934.216454,-370.102971,1554.432478,-10035.851024
934.216774,-1554.432478,666.185348,-9959.241474
934.217094,888.247130,-444.123565,-9806.022374
934.217414,3552.988522,370.102971,-10265.679673
934.217734,2294.638420,1702.473667,-10572.117872
934.218054,2812.782580,2146.597232,-9729.412825
934.218374,2664.741391,1702.473667,-9959.241474
934.218694,2146.597232,370.102971,-9422.974625
934.219014,1998.556043,-740.205942,-9499.584175
934.219334,0.000000,-2738.761985,-9269.755526
934.219654,740.205942,-3552.988522,-8733.488677
934.219974,962.267725,-2590.720797,-8810.098227
934.220294,1110.308913,-1554.432478,-9806.022374
934.220614,1776.494261,1036.288319,-9652.803275
934.220934,-222.061783,2220.617826,-10189.070123
934.221254,1998.556043,1110.308913,-9652.803275
934.221574,2738.761985,1628.453072,-10342.289223
934.221894,2368.659014,-370.102971,-10418.898773
934.222214,1110.308913,-1924.535449,-9959.241474
934.222534,-962.267725,-2812.782580,-9882.631924
934.222854,-1480.411884,-2590.720797,-9882.631924
934.223174,0.000000,-1184.329507,-9882.631924
934.223494,74.020594,74.020594,-9882.631924
934.223814,0.000000,2960.823768,-11491.432470
934.224134,-1036.288319,1998.556043,-10495.508323
934.224454,-740.205942,1480.411884,-10955.165621
934.224774,-740.205942,74.020594,-10342.289223
934.225094,518.144159,-592.164754,-10648.727422
934.225414,370.102971,-1406.391290,-11108.384721
934.225734,0.000000,-1554.432478,-9806.022374
934.226054,-1850.514855,-1258.350101,-10265.679673
934.226374,296.082377,-1628.453072,-10112.460574
934.226694,0.000000,148.041188,-10112.460574
934.227014,-1776.494261,1776.494261,-10418.898773
934.227334,-1924.535449,2812.782580,-10189.070123
934.227654,-1110.308913,1776.494261,-9346.365076
934.227973,296.082377,-1406.391290,-10265.679673
934.228293,296.082377,-1924.535449,-9346.365076
934.228613,-370.102971,-2738.761985,-9806.022374
934.228933,2368.659014,-1702.473667,-9806.022374
934.229253,1924.535449,-740.205942,-9499.584175
934.229573,1406.391290,2220.617826,-9882.631924
934.229893,222.061783,3034.844362,-9959.241474
934.230213,444.123565,2738.761985,-9116.536426
934.230533,444.123565,1110.308913,-9422.974625
934.230853,296.082377,-1036.288319,-10035.851024
934.231173,740.205942,-2146.597232,-9576.193725
934.231493,592.164754,370.102971,-9959.241474
934.231813,-666.185348,2294.638420,-9729.412825
934.232133,-148.041188,1554.432478,-9806.022374
934.232453,666.185348,518.144159,-10035.851024
934.232773,4293.194464,-1258.350101,-10342.289223
934.233093,4515.256246,-1110.308913,-9729.412825
934.233413,2590.720797,814.226536,-10418.898773
934.233733,2368.659014,2516.700203,-10418.898773
934.234053,3552.988522,2812.782580,-11261.603821
934.234373,3478.967927,3108.864956,-10801.946522
934.234693,1184.329507,1258.350101,-10725.336972
934.235013,-1628.453072,740.205942,-10648.727422
934.235333,-1406.391290,74.020594,-10418.898773
934.235653,666.185348,1184.329507,-10725.336972
934.235973,4441.235652,1480.411884,-10725.336972
934.236293,3627.009116,2738.761985,-10878.556072
934.236613,-296.082377,2590.720797,-10648.727422
934.236933,-370.102971,740.205942,-10342.289223
934.237253,1628.453072,666.185348,-9652.803275
934.237573,2664.741391,1332.370696,-10112.460574
934.237893,1480.411884,370.102971,-9422.974625
934.238213,-296.082377,1110.308913,-9959.241474
934.238533,-2146.597232,74.020594,-9193.145976
934.238853,1110.308913,814.226536,-10035.851024
934.239173,444.123565,0.000000,-8350.440928
934.239493,-666.185348,296.082377,-9576.193725
934.239813,-962.267725,444.123565,-9269.755526
934.240133,-3478.967927,444.123565,-9116.536426
934.240453,-2368.659014,-148.041188,-8963.317327
934.240773,-3108.864956,-1258.350101,-8580.269578
934.241093,-3849.070898,-1332.370696,-9193.145976
934.241413,-1406.391290,-4367.215058,-9269.755526
934.241733,2220.617826,-3182.885551,-9346.365076
934.242053,2368.659014,-1036.288319,-9652.803275
934.242373,1776.494261,2294.638420,-10112.460574
934.242693,0.000000,4663.297435,-10418.898773
934.243013,-2146.597232,3849.070898,-10955.165621
934.243332,-3552.988522,1554.432478,-9806.022374
934.243652,0.000000,-592.164754,-11031.775171
934.243972,-1628.453072,-2738.761985,-9959.241474
934.244292,-2220.617826,-2146.597232,-10955.165621
934.244612,-3108.864956,-1406.391290,-9959.241474
934.244932,444.123565,-666.185348,-10801.946522
934.245252,2220.617826,1332.370696,-10801.946522
934.245572,666.185348,2368.659014,-10418.898773
934.245892,-740.205942,3182.885551,-11184.994271
934.246212,1924.535449,3330.926739,-10955.165621
934.246532,3923.091493,1480.411884,-10572.117872
934.246852,5107.421000,1036.288319,-10878.556072
934.247172,3034.844362,-888.247130,-9806.022374
934.247492,2146.597232,-1480.411884,-10265.679673
934.247812,2812.782580,-444.123565,-10265.679673
934.248132,1110.308913,0.000000,-9882.631924
934.248452,222.061783,222.061783,-9652.803275
934.248772,-814.226536,74.020594,-9193.145976
934.249092,1332.370696,-666.185348,-8503.660028
934.249412,4441.235652,-2146.597232,-9499.584175
934.249732,4293.194464,-3182.885551,-9422.974625
934.250052,2516.700203,-1258.350101,-9269.755526
934.250372,1480.411884,518.144159,-9116.536426
934.250692,3552.988522,1480.411884,-9193.145976
934.251012,4737.318029,1258.350101,-9959.241474
934.251332,4219.173869,296.082377,-9729.412825
934.251652,2664.741391,-888.247130,-9806.022374
934.251972,888.247130,-1776.494261,-9652.803275
934.252292,518.144159,-370.102971,-9806.022374
934.252612,666.185348,592.164754,-9959.241474
934.252932,0.000000,1184.329507,-10418.898773
934.253252,-592.164754,888.247130,-9959.241474
934.253572,-2960.823768,0.000000,-10112.460574
934.253892,-2442.679609,-370.102971,-10495.508323
934.254212,0.000000,-518.144159,-10112.460574
934.254532,2738.761985,1776.494261,-11261.603821
934.254852,2516.700203,1480.411884,-11184.994271
934.255172,74.020594,666.185348,-10418.898773
934.255492,-1924.535449,1184.329507,-10418.898773
934.255812,-1184.329507,1036.288319,-10572.117872
934.256132,-370.102971,1332.370696,-10801.946522
934.256452,-3256.906145,2516.700203,-10572.117872
934.256772,-4959.379811,296.082377,-10418.898773
934.257092,-3997.112087,-814.226536,-9806.022374
934.257412,-2220.617826,-1110.308913,-10189.070123
934.257732,814.226536,-2368.659014,-9882.631924
934.258052,-1258.350101,-370.102971,-9576.193725
934.258372,-2146.597232,1184.329507,-10342.289223
934.258691,74.020594,1924.535449,-10112.460574
934.259011,1924.535449,2294.638420,-10035.851024
934.259331,-222.061783,1110.308913,-9422.974625
934.259651,-1702.473667,740.205942,-9806.022374
934.259971,-148.041188,518.144159,-9269.755526
934.260291,962.267725,0.000000,-10112.460574
934.260611,1184.329507,0.000000,-8963.317327
934.260931,74.020594,-1036.288319,-9499.584175
934.261251,-1036.288319,-740.205942,-9422.974625
934.261571,-370.102971,-666.185348,-9039.926876
934.261891,296.082377,-1036.288319,-9422.974625
934.262211,1776.494261,592.164754,-9882.631924
934.262531,1332.370696,1554.432478,-9959.241474
934.262851,1998.556043,1332.370696,-10418.898773
934.263171,3923.091493,148.041188,-9193.145976
934.263491,4367.215058,370.102971,-11261.603821
934.263811,2368.659014,888.247130,-10035.851024
934.264131,1776.494261,1998.556043,-11568.042020
934.264451,1258.350101,2812.782580,-10265.679673
934.264771,2368.659014,2294.638420,-10572.117872
934.265091,1184.329507,1554.432478,-10418.898773
934.265411,2220.617826,222.061783,-10801.946522
934.265731,5033.400406,-1036.288319,-10878.556072
934.266051,2886.803174,-2738.761985,-10878.556072
934.266371,740.205942,-1332.370696,-9959.241474
934.266691,0.000000,1554.432478,-11108.384721
934.267011,888.247130,3775.050304,-10725.336972
934.267331,2812.782580,3849.070898,-11414.822920
934.267651,370.102971,2886.803174,-10265.679673
934.267971,0.000000,518.144159,-10189.070123
934.268291,3182.885551,-1184.329507,-10418.898773
934.268611,4441.235652,-2442.679609,-10342.289223
934.268931,1924.535449,-4219.173869,-9576.193725
934.269251,-1850.514855,-1554.432478,-9499.584175
934.269571,-2960.823768,1110.308913,-9806.022374
934.269891,-814.226536,2960.823768,-9576.193725
934.270211,1258.350101,3701.029710,-10342.289223
934.270531,1036.288319,1628.453072,-9576.193725
934.270851,-1628.453072,-1332.370696,-8886.707777
934.271171,-1184.329507,-3404.947333,-9346.365076
934.271491,-962.267725,-4959.379811,-8963.317327
934.271811,-1702.473667,-3182.885551,-8733.488677
934.272131,-2960.823768,-592.164754,-9652.803275
934.272451,-4219.173869,518.144159,-9193.145976
934.272771,296.082377,1554.432478,-9269.755526
934.273091,-740.205942,0.000000,-10265.679673
934.273411,-2294.638420,-962.267725,-9039.926876
934.273731,-3034.844362,-888.247130,-10112.460574
934.274050,222.061783,296.082377,-10265.679673
934.274370,2294.638420,1184.329507,-10265.679673
934.274690,1184.329507,1776.494261,-11414.822920
934.275010,-296.082377,592.164754,-9806.022374
934.275330,-1628.453072,-222.061783,-10495.508323
934.275650,-2590.720797,1924.535449,-11031.775171
934.275970,0.000000,296.082377,-10572.117872
934.276290,2220.617826,222.061783,-10725.336972
934.276610,592.164754,-1110.308913,-9882.631924
934.276930,962.267725,74.020594,-10495.508323
934.277250,296.082377,0.000000,-10725.336972
934.277570,1628.453072,2368.659014,-10342.289223
934.277890,3478.967927,3108.864956,-10725.336972
934.278210,2516.700203,3330.926739,-10495.508323
934.278530,370.102971,962.267725,-9806.022374
934.278850,0.000000,-962.267725,-9729.412825
934.279168,1406.391290,0.000000,-10112.460574
934.279488,3997.112087,-148.041188,-9729.412825
934.279807,3997.112087,-814.226536,-10189.070123
934.280127,1480.411884,1406.391290,-9422.974625
934.280447,74.020594,2590.720797,-10418.898773
934.280767,1702.473667,888.247130,-10189.070123
934.281087,2368.659014,-518.144159,-8656.879127
934.281407,740.205942,-148.041188,-10112.460574
934.281727,1332.370696,-1258.350101,-9269.755526
934.282047,4071.132681,444.123565,-10265.679673
934.282367,6143.709319,1406.391290,-10572.117872
934.282687,3404.947333,1110.308913,-10189.070123
934.283007,-1776.494261,2368.659014,-9959.241474
934.283327,-2738.761985,1924.535449,-9422.974625
934.283647,888.247130,2442.679609,-9576.193725
934.283967,2442.679609,-1184.329507,-10265.679673
934.284287,3034.844362,-888.247130,-9959.241474
934.284607,1628.453072,-962.267725,-10035.851024
934.284927,962.267725,-592.164754,-10572.117872
934.285247,-2072.576638,1110.308913,-9882.631924
934.285567,-2886.803174,2960.823768,-10495.508323
934.285887,-3034.844362,2072.576638,-9806.022374
934.286207,-2368.659014,1184.329507,-10801.946522
934.286527,-1628.453072,-1776.494261,-9576.193725
934.286847,-2146.597232,-4441.235652,-9806.022374
934.287167,-1258.350101,-3775.050304,-9959.241474
934.287487,-518.144159,-1554.432478,-10342.289223
934.287807,0.000000,1406.391290,-9422.974625
934.288127,888.247130,2960.823768,-11184.994271
934.288447,370.102971,2812.782580,-9959.241474
934.288767,0.000000,1406.391290,-10955.165621
934.289086,-1480.411884,0.000000,-9882.631924
934.289406,-888.247130,-592.164754,-10265.679673
934.289726,-1406.391290,-1628.453072,-9959.241474
934.290046,-1332.370696,-1406.391290,-9806.022374
934.290366,-666.185348,74.020594,-10112.460574
934.290686,-1554.432478,-888.247130,-10495.508323
934.291006,-2738.761985,-1332.370696,-9882.631924
934.291326,-3404.947333,148.041188,-9652.803275
934.291646,-1554.432478,814.226536,-10112.460574
934.291966,370.102971,1332.370696,-9576.193725
934.292286,1702.473667,74.020594,-10265.679673
934.292606,3034.844362,-666.185348,-10265.679673
934.292926,3108.864956,-370.102971,-9806.022374
934.293246,2738.761985,-222.061783,-10648.727422
934.293566,4737.318029,888.247130,-10265.679673
934.293886,3849.070898,1258.350101,-9576.193725
934.294206,1110.308913,1850.514855,-10342.289223
934.294526,-1036.288319,1554.432478,-9116.536426
934.294846,0.000000,-1702.473667,-10725.336972
934.295166,1924.535449,0.000000,-9882.631924
934.295486,2072.576638,222.061783,-10572.117872
934.295806,1036.288319,-962.267725,-9882.631924
934.296126,2442.679609,0.000000,-9039.926876
934.296446,4071.132681,370.102971,-9806.022374
934.296766,4441.235652,1554.432478,-10418.898773
934.297086,1480.411884,0.000000,-10035.851024
934.297406,2146.597232,592.164754,-10189.070123
934.297726,3330.926739,1332.370696,-10112.460574
934.298046,3923.091493,3775.050304,-10878.556072
934.298365,3182.885551,2590.720797,-10801.946522
934.298685,2368.659014,148.041188,-9959.241474
934.299005,-1554.432478,0.000000,-10035.851024
934.299325,-740.205942,-2220.617826,-9346.365076
934.299645,-148.041188,-2368.659014,-9422.974625
934.299965,0.000000,-1406.391290,-9882.631924
934.300285,-370.102971,1850.514855,-10265.679673
934.300605,-1628.453072,2738.761985,-10495.508323
934.300925,-1258.350101,3627.009116,-10572.117872
934.301245,-518.144159,1554.432478,-9806.022374
934.301565,-370.102971,1036.288319,-10801.946522
934.301885,-2886.803174,-370.102971,-10418.898773
934.302205,-2072.576638,-592.164754,-9806.022374
934.302525,-1036.288319,222.061783,-9959.241474
934.302845,1332.370696,962.267725,-10112.460574
934.303165,-148.041188,1110.308913,-10189.070123
934.303485,-1998.556043,-592.164754,-9959.241474
934.303805,-2442.679609,-222.061783,-9882.631924
934.304125,-2146.597232,-444.123565,-9806.022374
934.304445,-814.226536,518.144159,-9882.631924
934.304765,-888.247130,1406.391290,-9652.803275
934.305085,-1184.329507,1702.473667,-10495.508323
934.305405,-1258.350101,666.185348,-9729.412825
934.305725,-1184.329507,0.000000,-10495.508323
934.306045,-296.082377,296.082377,-9882.631924
934.306365,-666.185348,1110.308913,-9576.193725
934.306685,222.061783,1628.453072,-10265.679673
934.307005,3182.885551,-296.082377,-9729.412825
934.307325,3478.967927,-888.247130,-9499.584175
934.307645,592.164754,-592.164754,-10648.727422
934.307964,-1332.370696,814.226536,-9729.412825
934.308284,1702.473667,1850.514855,-10342.289223
934.308604,3034.844362,3182.885551,-10801.946522
934.308924,2886.803174,2442.679609,-9422.974625
934.309244,518.144159,666.185348,-10189.070123
934.309564,814.226536,0.000000,-9806.022374
934.309884,2220.617826,222.061783,-9806.022374
934.310204,3627.009116,1480.411884,-10265.679673
934.310524,3256.906145,444.123565,-10495.508323
934.310844,2146.597232,-370.102971,-10648.727422
934.311164,1110.308913,-370.102971,-9959.241474
934.311484,518.144159,148.041188,-9806.022374
934.311804,370.102971,1258.350101,-10265.679673
934.312124,1628.453072,2072.576638,-9806.022374
934.312444,1776.494261,1184.329507,-10112.460574
934.312764,2146.597232,-592.164754,-9652.803275
934.313084,3627.009116,-1480.411884,-9652.803275
934.313404,2886.803174,-2590.720797,-9806.022374
934.313724,-148.041188,-814.226536,-9806.022374
934.314044,0.000000,1258.350101,-9652.803275
934.314364,0.000000,1998.556043,-10035.851024
934.314684,888.247130,962.267725,-10189.070123
934.315004,2442.679609,0.000000,-9882.631924
934.315324,1332.370696,-1184.329507,-10572.117872
934.315644,74.020594,-888.247130,-10112.460574
934.315964,-666.185348,0.000000,-9806.022374
934.316284,-814.226536,222.061783,-10035.851024
934.316604,-814.226536,814.226536,-9806.022374
934.316924,-1924.535449,-370.102971,-10342.289223
934.317243,-2590.720797,-962.267725,-9729.412825
934.317563,-1036.288319,-962.267725,-10342.289223
934.317883,592.164754,-1036.288319,-9806.022374
934.318203,740.205942,74.020594,-10265.679673
934.318523,-1406.391290,0.000000,-9882.631924
934.318843,-3404.947333,-518.144159,-9806.022374
934.319163,-1702.473667,-1702.473667,-10342.289223
934.319483,222.061783,-1406.391290,-10035.851024
934.319803,444.123565,-296.082377,-10725.336972
934.320123,-518.144159,296.082377,-9729.412825
934.320443,-1480.411884,518.144159,-10418.898773
934.320763,-1776.494261,740.205942,-10265.679673
934.321083,-740.205942,740.205942,-10189.070123
934.321403,-148.041188,0.000000,-9882.631924
934.321723,-3108.864956,-1776.494261,-10342.289223
934.322043,-3552.988522,-3478.967927,-10189.070123
934.322363,-2220.617826,-3701.029710,-9116.536426
934.322683,-148.041188,-3701.029710,-9193.145976
934.323003,1850.514855,-666.185348,-10112.460574
934.323323,518.144159,1776.494261,-10112.460574
934.323643,1628.453072,4367.215058,-10955.165621
934.323963,3256.906145,3404.947333,-10342.289223
934.324283,4071.132681,3627.009116,-10418.898773
934.324603,3108.864956,1258.350101,-10265.679673
934.324923,2590.720797,-370.102971,-9499.584175
934.325243,3849.070898,-2294.638420,-10495.508323
934.325563,3627.009116,-2738.761985,-9652.803275
934.325883,1480.411884,-518.144159,-10035.851024
934.326203,74.020594,1258.350101,-9806.022374
934.326522,0.000000,3627.009116,-10725.336972
934.326842,-222.061783,3034.844362,-10342.289223
934.327162,962.267725,2960.823768,-10725.336972
934.327482,2072.576638,518.144159,-9882.631924
934.327802,3923.091493,0.000000,-9729.412825
934.328122,4071.132681,-1258.350101,-9882.631924
934.328442,3701.029710,0.000000,-10112.460574
934.328762,4589.276840,148.041188,-9499.584175
934.329082,5181.441594,962.267725,-10725.336972
934.329402,3404.947333,3256.906145,-10342.289223
934.329722,-370.102971,3627.009116,-10035.851024
934.330042,-74.020594,2442.679609,-9959.241474
934.330362,222.061783,1776.494261,-9959.241474
934.330682,814.226536,1184.329507,-10035.851024
934.331002,0.000000,-592.164754,-10189.070123
934.331322,-518.144159,-1628.453072,-9729.412825
934.331642,-814.226536,-2146.597232,-9652.803275
934.331962,0.000000,-888.247130,-9422.974625
934.332282,-1184.329507,1850.514855,-9806.022374
934.332602,-3775.050304,3478.967927,-9729.412825
934.332922,-2294.638420,3478.967927,-9882.631924
934.333242,-592.164754,1998.556043,-9652.803275
934.333562,518.144159,296.082377,-10495.508323
934.333882,296.082377,0.000000,-9499.584175
934.334202,-370.102971,-888.247130,-9729.412825
934.334522,-2590.720797,-296.082377,-10035.851024
934.334842,-2368.659014,0.000000,-9652.803275
934.335162,-2368.659014,-814.226536,-9499.584175
934.335482,-1702.473667,-962.267725,-9116.536426
934.335802,-1924.535449,-1332.370696,-9882.631924
934.336121,-2516.700203,-1332.370696,-10495.508323
934.336441,-2294.638420,222.061783,-10035.851024
934.336761,-666.185348,2294.638420,-10801.946522
934.337081,296.082377,2368.659014,-10189.070123
934.337401,-1480.411884,1924.535449,-11414.822920
934.337721,-1554.432478,-666.185348,-11031.775171
934.338041,0.000000,-1480.411884,-9806.022374
934.338361,1924.535449,-666.185348,-11491.432470
934.338681,1998.556043,1258.350101,-10801.946522
934.339001,888.247130,-444.123565,-10112.460574
934.339321,1332.370696,1332.370696,-11108.384721
934.339641,2368.659014,2072.576638,-10418.898773
934.339961,1776.494261,2664.741391,-11184.994271
934.340281,0.000000,444.123565,-10342.289223
934.340601,-1036.288319,-1702.473667,-10035.851024
934.340921,444.123565,-2960.823768,-10112.460574
934.341241,1110.308913,-3256.906145,-9959.241474
934.341561,3775.050304,-3108.864956,-9269.755526
934.341881,2368.659014,0.000000,-10112.460574
934.342201,3256.906145,1554.432478,-10495.508323
934.342521,4959.379811,2812.782580,-10418.898773
934.342841,4293.194464,1850.514855,-10572.117872
934.343161,4071.132681,0.000000,-9806.022374
934.343481,1924.535449,-1998.556043,-9269.755526
934.343801,1924.535449,-2664.741391,-10035.851024
934.344121,1184.329507,-3330.926739,-9422.974625
934.344441,1406.391290,-2220.617826,-9193.145976
934.344761,1924.535449,-222.061783,-10189.070123
934.345081,2886.803174,222.061783,-9806.022374
934.345400,2886.803174,1998.556043,-10112.460574
934.345720,3108.864956,962.267725,-10572.117872
934.346040,4367.215058,1258.350101,-10648.727422
934.346360,3478.967927,0.000000,-10112.460574
934.346680,0.000000,-740.205942,-9806.022374
934.347000,-2368.659014,-518.144159,-9959.241474
934.347320,-1702.473667,-1036.288319,-9729.412825
934.347640,666.185348,222.061783,-10035.851024
934.347960,592.164754,2294.638420,-10725.336972
934.348280,-1924.535449,1406.391290,-10572.117872
934.348600,-1924.535449,592.164754,-10189.070123
934.348920,-1110.308913,370.102971,-10342.289223
934.349240,-222.061783,222.061783,-10572.117872
934.349560,-1480.411884,-814.226536,-10112.460574
934.349880,-2886.803174,-296.082377,-10265.679673
934.350200,-3775.050304,1110.308913,-10801.946522
934.350520,-1554.432478,1702.473667,-9806.022374
934.350840,370.102971,1406.391290,-10648.727422
934.351160,1036.288319,444.123565,-10189.070123
934.351480,-1110.308913,1702.473667,-10342.289223
934.351800,-3108.864956,2960.823768,-10725.336972
934.352120,-518.144159,2516.700203,-9882.631924
934.352440,-370.102971,0.000000,-9882.631924
934.352760,-1554.432478,-1480.411884,-9039.926876
934.353080,-4663.297435,-1850.514855,-8656.879127
934.353400,148.041188,-296.082377,-9576.193725
934.353720,666.185348,-370.102971,-9193.145976
934.354040,0.000000,-518.144159,-9422.974625
934.354360,444.123565,1406.391290,-9269.755526
934.354679,1110.308913,1110.308913,-9959.241474
934.354999,148.041188,1110.308913,-8580.269578
934.355319,1332.370696,740.205942,-10189.070123
934.355639,2886.803174,2146.597232,-9959.241474
934.355959,2368.659014,3034.844362,-9499.584175
934.356279,814.226536,3701.029710,-11184.994271
934.356599,-222.061783,2960.823768,-9806.022374
934.356919,-1554.432478,2294.638420,-9729.412825
934.357239,-1702.473667,0.000000,-10112.460574
934.357559,0.000000,-1258.350101,-9882.631924
934.357879,2368.659014,-1036.288319,-10648.727422
934.358199,3034.844362,-222.061783,-10495.508323
934.358519,5033.400406,518.144159,-10112.460574
934.358839,4737.318029,3627.009116,-11721.261119
934.359159,3627.009116,3775.050304,-11031.775171
934.359479,3108.864956,3034.844362,-10801.946522
934.359799,3923.091493,814.226536,-10572.117872
934.360119,4885.359217,222.061783,-10878.556072
934.360439,4663.297435,-740.205942,-11261.603821
934.360759,2516.700203,-1184.329507,-10725.336972
934.361079,-1480.411884,-444.123565,-10418.898773
934.361399,-2368.659014,2146.597232,-10112.460574
934.361719,-148.041188,2664.741391,-10418.898773
934.362039,1628.453072,1850.514855,-10572.117872
934.362359,296.082377,-1480.411884,-10035.851024
934.362679,-1776.494261,-3330.926739,-9499.584175
934.362999,0.000000,-3330.926739,-9039.926876
934.363319,2886.803174,-2516.700203,-9269.755526
934.363639,4737.318029,-296.082377,-10265.679673
934.363959,592.164754,1628.453072,-9652.803275
934.364278,-3256.906145,2442.679609,-9806.022374
934.364598,-2590.720797,1702.473667,-9116.536426
934.364918,1036.288319,-296.082377,-10189.070123
934.365238,2960.823768,-1702.473667,-9499.584175
934.365558,-1850.514855,-3256.906145,-9959.241474
934.365878,-4145.153275,-2368.659014,-8963.317327
934.366198,-4145.153275,-2368.659014,-9269.755526
934.366518,-2664.741391,-888.247130,-10342.289223
934.366838,-2220.617826,148.041188,-9652.803275
934.367158,-1480.411884,370.102971,-9806.022374
934.367478,-444.123565,1628.453072,-9959.241474
934.367798,1110.308913,0.000000,-11184.994271
934.368118,740.205942,-1184.329507,-11108.384721
934.368438,-444.123565,-1776.494261,-9882.631924
934.368758,296.082377,0.000000,-12104.308868
934.369078,370.102971,1702.473667,-10648.727422
934.369398,0.000000,2220.617826,-10955.165621
934.369718,-1480.411884,2886.803174,-11491.432470
934.370038,-2072.576638,1480.411884,-10725.336972
934.370358,-2442.679609,666.185348,-10648.727422
934.370678,-444.123565,-666.185348,-10495.508323
934.370998,1554.432478,-1702.473667,-10189.070123
934.371318,2664.741391,-740.205942,-10189.070123
934.371638,3108.864956,1184.329507,-9882.631924
934.371958,1480.411884,2294.638420,-10112.460574
934.372278,1924.535449,2812.782580,-10418.898773
934.372598,2960.823768,2738.761985,-10495.508323
934.372918,3997.112087,2590.720797,-10878.556072
934.373238,1554.432478,1702.473667,-9806.022374
934.373557,962.267725,444.123565,-9652.803275
934.373877,4071.132681,-518.144159,-9806.022374
934.374197,5699.585753,444.123565,-9882.631924
934.374517,2664.741391,444.123565,-9576.193725
934.374837,-666.185348,296.082377,-9499.584175
934.375157,-2294.638420,296.082377,-9269.755526
934.375477,148.041188,1628.453072,-9039.926876
934.375797,4071.132681,2220.617826,-9499.584175
934.376117,5033.400406,1924.535449,-9806.022374
934.376437,3923.091493,1480.411884,-9806.022374
934.376757,3404.947333,444.123565,-9652.803275
934.377077,3997.112087,1036.288319,-9729.412825
934.377397,4145.153275,2294.638420,-10725.336972
934.377717,370.102971,3034.844362,-10189.070123
934.378037,-1036.288319,2220.617826,-9806.022374
934.378357,1036.288319,1554.432478,-10265.679673
934.378677,2220.617826,1998.556043,-9729.412825
934.378997,2368.659014,2072.576638,-10342.289223
934.379317,1332.370696,2368.659014,-10342.289223
934.379637,0.000000,1184.329507,-10878.556072
934.379957,-2146.597232,518.144159,-9882.631924
934.380277,-1628.453072,888.247130,-10112.460574
934.380597,1258.350101,2220.617826,-10418.898773
934.380917,3330.926739,4145.153275,-10265.679673
934.381237,1406.391290,4071.132681,-11414.822920
934.381557,222.061783,3849.070898,-10189.070123
934.381877,0.000000,1702.473667,-9882.631924
934.382196,3034.844362,1406.391290,-10725.336972
934.382516,1628.453072,1850.514855,-9576.193725
934.382836,-1406.391290,2146.597232,-10495.508323
934.383156,-2072.576638,1850.514855,-9882.631924
934.383476,-444.123565,1628.453072,-9269.755526
934.383796,2072.576638,1776.494261,-10495.508323
934.384116,1702.473667,2368.659014,-9652.803275
934.384436,1258.350101,2886.803174,-10418.898773
934.384756,2220.617826,2294.638420,-9882.631924
934.385076,2886.803174,2960.823768,-9576.193725
934.385396,2886.803174,2590.720797,-10265.679673
934.385716,2590.720797,3034.844362,-9882.631924
934.386036,1110.308913,1776.494261,-9422.974625
934.386355,1110.308913,962.267725,-9806.022374
934.386675,2368.659014,1776.494261,-8580.269578
934.386995,3182.885551,2664.741391,-10189.070123
934.387315,2664.741391,3478.967927,-9882.631924
934.387635,3627.009116,1924.535449,-9422.974625
934.387955,3775.050304,1702.473667,-10265.679673
934.388275,5329.482782,-222.061783,-10265.679673
934.388595,4885.359217,-222.061783,-8963.317327
934.388915,2590.720797,2812.782580,-10572.117872
934.389235,2516.700203,5107.421000,-10265.679673
934.389555,2442.679609,7698.141797,-11184.994271
934.389875,2960.823768,6439.791695,-11721.261119
934.390195,3552.988522,3701.029710,-10801.946522
934.390515,2516.700203,444.123565,-10572.117872
934.390834,4219.173869,-592.164754,-10725.336972
934.391154,4885.359217,-1628.453072,-9729.412825
934.391474,4293.194464,1628.453072,-10112.460574
934.391794,4219.173869,3627.009116,-11108.384721
934.392114,5255.462188,4219.173869,-10418.898773
934.392434,4589.276840,5107.421000,-11338.213370
934.392754,3478.967927,4071.132681,-10648.727422
934.393074,2812.782580,2442.679609,-10342.289223
934.393394,1184.329507,2294.638420,-10265.679673
934.393714,370.102971,814.226536,-9806.022374
934.394034,-740.205942,74.020594,-9576.193725
934.394354,-740.205942,370.102971,-8656.879127
934.394674,296.082377,518.144159,-9422.974625
934.394994,2516.700203,1480.411884,-9193.145976
934.395313,4145.153275,1480.411884,-9576.193725
934.395633,4663.297435,2368.659014,-9576.193725
934.395953,4737.318029,3108.864956,-9576.193725
934.396273,4737.318029,2886.803174,-9882.631924
934.396593,4145.153275,3330.926739,-9499.584175
934.396913,3478.967927,3182.885551,-9806.022374
934.397233,2072.576638,3108.864956,-9959.241474
934.397553,444.123565,2072.576638,-9806.022374
934.397873,0.000000,1776.494261,-10112.460574
934.398193,740.205942,1628.453072,-10495.508323
934.398513,0.000000,1702.473667,-10418.898773
934.398833,-1258.350101,2664.741391,-10495.508323
934.399153,-1406.391290,2442.679609,-10342.289223
934.399473,0.000000,2442.679609,-10189.070123
934.399792,814.226536,2812.782580,-10495.508323
934.400112,2442.679609,3330.926739,-10572.117872
934.400432,4071.132681,3849.070898,-11414.822920
934.400752,4219.173869,4145.153275,-11031.775171
934.401072,2590.720797,3997.112087,-11184.994271
934.401392,2072.576638,3701.029710,-9729.412825
934.401712,1480.411884,3108.864956,-10495.508323
934.402032,740.205942,1776.494261,-10495.508323
934.402352,-370.102971,888.247130,-10265.679673
934.402672,0.000000,1332.370696,-10112.460574
934.402992,2368.659014,1776.494261,-9882.631924
934.403312,2146.597232,2886.803174,-10189.070123
934.403632,1332.370696,3701.029710,-10495.508323
934.403951,962.267725,4145.153275,-9422.974625
934.404271,2294.638420,3997.112087,-10648.727422
934.404591,3701.029710,3330.926739,-9576.193725
934.404911,3849.070898,2516.700203,-9806.022374
934.405231,3182.885551,2516.700203,-9806.022374
934.405551,3701.029710,2146.597232,-9729.412825
934.405871,3034.844362,2738.761985,-9422.974625
934.406191,2146.597232,2146.597232,-9652.803275
934.406511,962.267725,1998.556043,-9039.926876
934.406831,2590.720797,1480.411884,-9652.803275
934.407151,5033.400406,1110.308913,-9729.412825
934.407471,4663.297435,1776.494261,-9729.412825
934.407791,3701.029710,2294.638420,-9806.022374
934.408111,3923.091493,4071.132681,-10035.851024
934.408430,5255.462188,4959.379811,-10725.336972
934.408750,5773.606348,6291.750507,-10955.165621
934.409070,3182.885551,5255.462188,-10418.898773
934.409390,1554.432478,4071.132681,-10265.679673
934.409710,1998.556043,1702.473667,-10495.508323
934.410030,3108.864956,296.082377,-10035.851024
934.410350,3108.864956,-444.123565,-10189.070123
934.410670,1406.391290,296.082377,-9882.631924
934.410990,1258.350101,2294.638420,-10112.460574
934.411310,2368.659014,4293.194464,-9806.022374
934.411630,4663.297435,5625.565159,-11031.775171
934.411950,6291.750507,4811.338623,-10878.556072
934.412270,5551.544565,3997.112087,-11108.384721
934.412590,2812.782580,3775.050304,-10955.165621
934.412909,962.267725,3404.947333,-10265.679673
934.413229,518.144159,1702.473667,-10342.289223
934.413549,1554.432478,518.144159,-10112.460574
934.413869,1628.453072,148.041188,-9652.803275
934.414189,-148.041188,666.185348,-10112.460574
934.414509,-1332.370696,1850.514855,-10035.851024
934.414829,-518.144159,3478.967927,-9652.803275
934.415149,1924.535449,4145.153275,-10342.289223
934.415469,4219.173869,2590.720797,-9346.365076
934.415789,4589.276840,592.164754,-9806.022374
934.416109,2072.576638,888.247130,-10035.851024
934.416429,0.000000,1480.411884,-9806.022374
934.416749,-222.061783,2516.700203,-9652.803275
934.417069,1036.288319,2368.659014,-9652.803275
934.417388,2072.576638,592.164754,-9499.584175
934.417708,1406.391290,74.020594,-10112.460574
934.418028,962.267725,592.164754,-10112.460574
934.418348,666.185348,2738.761985,-9959.241474
934.418668,518.144159,4071.132681,-10189.070123
934.418988,888.247130,3404.947333,-9882.631924
934.419308,2590.720797,1184.329507,-9882.631924
934.419628,3478.967927,74.020594,-10725.336972
934.419948,3108.864956,370.102971,-10342.289223
934.420268,2516.700203,2590.720797,-10572.117872
934.420588,2368.659014,4663.297435,-11108.384721
934.420908,1998.556043,5107.421000,-10572.117872
934.421228,1036.288319,3478.967927,-10265.679673
934.421547,1628.453072,962.267725,-10112.460574
934.421867,2960.823768,-666.185348,-10572.117872
934.422187,4219.173869,-518.144159,-10418.898773
934.422507,4145.153275,1628.453072,-10265.679673
934.422827,4885.359217,4219.173869,-10265.679673
934.423147,5773.606348,5403.503377,-10112.460574
934.423467,5255.462188,5773.606348,-10495.508323
934.423787,3108.864956,4885.359217,-10572.117872
934.424107,962.267725,3627.009116,-9959.241474
934.424427,1554.432478,1110.308913,-9882.631924
934.424747,2812.782580,-962.267725,-9576.193725
934.425067,3034.844362,-1480.411884,-9193.145976
934.425387,2516.700203,74.020594,-9269.755526
934.425707,3182.885551,3034.844362,-8656.879127
934.426026,4441.235652,5921.647536,-9806.022374
934.426346,5847.626942,7328.038826,-10189.070123
934.426666,5477.523971,6069.688724,-10265.679673
934.426986,3701.029710,3552.988522,-10112.460574
934.427306,1480.411884,888.247130,-9806.022374
934.427626,222.061783,-370.102971,-9499.584175
934.427946,-74.020594,0.000000,-9422.974625
934.428266,592.164754,1036.288319,-9652.803275
934.428586,1702.473667,2294.638420,-11568.042020
934.428906,1480.411884,3330.926739,-10112.460574
934.429226,2146.597232,4367.215058,-10189.070123
934.429546,3404.947333,4959.379811,-10189.070123
934.429866,5033.400406,5477.523971,-9806.022374
934.430186,5329.482782,4959.379811,-10648.727422
934.430505,3923.091493,3701.029710,-10342.289223
934.430825,1628.453072,3108.864956,-10572.117872
934.431145,962.267725,2738.761985,-10342.289223
934.431465,1258.350101,3404.947333,-10495.508323
934.431785,0.000000,3849.070898,-10418.898773
934.432105,-1036.288319,3552.988522,-10265.679673
934.432425,-1924.535449,2294.638420,-9882.631924
934.432745,-1406.391290,1406.391290,-9269.755526
934.433065,370.102971,814.226536,-9729.412825
934.433385,2368.659014,1628.453072,-9882.631924
934.433705,4737.318029,3108.864956,-10189.070123
934.434025,6143.709319,4219.173869,-10342.289223
934.434345,5699.585753,5255.462188,-10342.289223
934.434664,4293.194464,5995.668130,-10342.289223
934.434984,2664.741391,5551.544565,-10572.117872
934.435304,1480.411884,4071.132681,-10189.070123
934.435624,1628.453072,962.267725,-9729.412825
934.435944,222.061783,148.041188,-9346.365076
934.436264,-1036.288319,-518.144159,-9499.584175
934.436584,-1258.350101,-370.102971,-9269.755526
934.436904,74.020594,962.267725,-9422.974625
934.437224,1702.473667,2368.659014,-9499.584175
934.437544,3775.050304,2960.823768,-9652.803275
934.437864,5403.503377,3034.844362,-9729.412825
934.438184,6883.915261,2220.617826,-9882.631924
934.438504,7179.997637,1258.350101,-8963.317327
934.438824,4367.215058,1110.308913,-9882.631924
934.439143,1480.411884,1776.494261,-10112.460574
934.439463,-296.082377,2664.741391,-9959.241474
934.439783,-814.226536,2220.617826,-10112.460574
934.440103,-962.267725,888.247130,-9806.022374
934.440423,0.000000,-666.185348,-10189.070123
934.440743,296.082377,-962.267725,-10265.679673
934.441063,962.267725,148.041188,-10112.460574
934.441383,2368.659014,2072.576638,-11338.213370
934.441703,3775.050304,3923.091493,-10725.336972
934.442023,4441.235652,4959.379811,-10878.556072
934.442343,4071.132681,4589.276840,-10801.946522
934.442663,3478.967927,3627.009116,-10955.165621
934.442983,2738.761985,2590.720797,-11031.775171
934.443303,1850.514855,1480.411884,-10572.117872
934.443622,814.226536,518.144159,-10035.851024
934.443942,370.102971,222.061783,-10112.460574
934.444262,1258.350101,-444.123565,-9652.803275
934.444582,1480.411884,962.267725,-9576.193725
934.444902,2442.679609,2294.638420,-10112.460574
934.445222,3627.009116,3478.967927,-10035.851024
934.445542,5033.400406,4367.215058,-9882.631924
934.445862,7031.956449,4071.132681,-10035.851024
934.446182,7254.018232,4441.235652,-10112.460574
934.446502,6587.832884,4737.318029,-10572.117872
934.446822,4515.256246,5329.482782,-10265.679673
934.447142,1480.411884,4811.338623,-10265.679673
934.447462,148.041188,3034.844362,-9959.241474
934.447782,-888.247130,1258.350101,-9652.803275
934.448101,-740.205942,0.000000,-9346.365076
934.448421,888.247130,-962.267725,-9422.974625
934.448741,1776.494261,814.226536,-9576.193725
934.449061,3775.050304,2738.761985,-10112.460574
934.449381,5033.400406,5255.462188,-10112.460574
934.449701,5995.668130,7031.956449,-10495.508323
934.450021,6143.709319,7179.997637,-11184.994271
934.450341,5329.482782,7105.977043,-10725.336972
934.450661,3849.070898,5699.585753,-10495.508323
934.450981,3552.988522,3701.029710,-10418.898773
934.451301,2590.720797,2368.659014,-9576.193725
934.451621,74.020594,2146.597232,-10035.851024
934.451941,-2812.782580,2442.679609,-9576.193725
934.452260,-3404.947333,2812.782580,-9729.412825
934.452580,-1332.370696,2664.741391,-9959.241474
934.452900,1110.308913,2442.679609,-9729.412825
934.453220,2812.782580,2072.576638,-9959.241474
934.453540,3108.864956,2368.659014,-9729.412825
934.453860,3701.029710,3775.050304,-9959.241474
934.454180,5033.400406,5625.565159,-9652.803275
934.454500,5847.626942,6143.709319,-10035.851024
934.454820,5181.441594,5773.606348,-10572.117872
934.455140,2960.823768,4737.318029,-10265.679673
934.455460,-1110.308913,2960.823768,-9729.412825
934.455780,-2960.823768,2220.617826,-9499.584175
934.456100,-2146.597232,370.102971,-9806.022374
934.456420,-1184.329507,-666.185348,-9576.193725
934.456739,-666.185348,-814.226536,-9039.926876
934.457059,148.041188,222.061783,-8886.707777
934.457379,3404.947333,1850.514855,-9422.974625
934.457699,5699.585753,4959.379811,-10495.508323
934.458019,6587.832884,6587.832884,-10418.898773
934.458339,5847.626942,6587.832884,-9959.241474
934.458659,4293.194464,4811.338623,-10189.070123
934.458979,2960.823768,2590.720797,-10035.851024
934.459299,1480.411884,814.226536,-9806.022374
934.459619,1184.329507,-370.102971,-9882.631924
934.459939,1554.432478,-962.267725,-9882.631924
934.460259,370.102971,-444.123565,-9729.412825
934.460579,-888.247130,1332.370696,-9652.803275
934.460899,0.000000,2590.720797,-9959.241474
934.461218,2442.679609,4145.153275,-10035.851024
934.461538,5625.565159,3627.009116,-10725.336972
934.461858,7550.100608,2960.823768,-10572.117872
934.462178,8068.244768,2812.782580,-10725.336972
934.462498,6513.812290,3701.029710,-10801.946522
934.462818,4145.153275,4293.194464,-10955.165621
934.463138,1258.350101,4367.215058,-10572.117872
934.463458,148.041188,2368.659014,-10342.289223
934.463778,0.000000,148.041188,-9882.631924
934.464098,0.000000,-1924.535449,-10725.336972
934.464418,-592.164754,-2368.659014,-9729.412825
934.464738,-370.102971,-1184.329507,-9422.974625
934.465058,1406.391290,444.123565,-9806.022374
934.465378,3775.050304,2294.638420,-9959.241474
934.465697,5921.647536,3627.009116,-9499.584175
934.466017,6809.894666,3997.112087,-10725.336972
934.466337,6143.709319,4367.215058,-10342.289223
934.466657,3849.070898,4663.297435,-10495.508323
934.466977,2368.659014,3923.091493,-10189.070123
934.467297,1554.432478,1554.432478,-9806.022374
934.467617,0.000000,-148.041188,-9806.022374
934.467937,-2442.679609,-1554.432478,-9499.584175
934.468257,-4367.215058,-1628.453072,-9269.755526
934.468577,-4071.132681,-814.226536,-9346.365076
934.468897,-74.020594,-518.144159,-9652.803275
934.469217,3997.112087,666.185348,-9652.803275
934.469537,4885.359217,2590.720797,-10265.679673
934.469856,3627.009116,4737.318029,-9806.022374
934.470176,4367.215058,6439.791695,-10495.508323
934.470496,6069.688724,6883.915261,-11338.213370
934.470816,6587.832884,6143.709319,-10878.556072
934.471136,3478.967927,3552.988522,-10955.165621
934.471456,-1036.288319,1628.453072,-9652.803275
934.471776,-2664.741391,-148.041188,-9576.193725
934.472096,-2368.659014,0.000000,-9806.022374
934.472416,-1702.473667,370.102971,-9959.241474
934.472736,-814.226536,1554.432478,-9422.974625
934.473056,444.123565,1554.432478,-9959.241474
934.473376,3997.112087,2072.576638,-9882.631924
934.473696,6143.709319,3775.050304,-10495.508323
934.474016,6069.688724,5847.626942,-10801.946522
934.474335,5625.565159,7105.977043,-9959.241474
934.474655,6069.688724,6069.688724,-10495.508323
934.474975,7328.038826,4737.318029,-10495.508323
934.475295,6069.688724,2220.617826,-10572.117872
934.475615,1480.411884,3108.864956,-9576.193725
934.475935,-2220.617826,1850.514855,-9806.022374
934.476255,-3330.926739,2886.803174,-9193.145976
934.476575,-1850.514855,2368.659014,-10112.460574
934.476895,814.226536,2220.617826,-10572.117872
934.477215,3108.864956,1850.514855,-9806.022374
934.477535,4367.215058,1702.473667,-9806.022374
934.477855,6143.709319,3701.029710,-10112.460574
934.478175,6291.750507,5699.585753,-9882.631924
934.478495,6957.935855,7105.977043,-10878.556072
934.478814,7698.141797,7328.038826,-10495.508323
934.479134,6217.729913,5699.585753,-10495.508323
934.479454,2664.741391,4219.173869,-9959.241474
934.479774,962.267725,2516.700203,-10265.679673
934.480094,148.041188,1036.288319,-9576.193725
934.480414,-814.226536,1332.370696,-9729.412825
934.480734,-3404.947333,444.123565,-9039.926876
934.481054,-2072.576638,0.000000,-9193.145976
934.481374,740.205942,740.205942,-10112.460574
934.481694,3256.906145,3034.844362,-10189.070123
934.482014,3849.070898,5255.462188,-10801.946522
934.482334,5181.441594,6439.791695,-10801.946522
934.482654,5551.544565,6883.915261,-10112.460574
934.482974,4663.297435,6587.832884,-11031.775171
934.483293,1776.494261,4663.297435,-10801.946522
934.483613,-962.267725,1850.514855,-9806.022374
934.483933,-2664.741391,-740.205942,-9806.022374
934.484253,-1924.535449,-1702.473667,-9652.803275
934.484573,-222.061783,-1554.432478,-9882.631924
934.484893,-666.185348,74.020594,-9193.145976
934.485213,0.000000,1776.494261,-9882.631924
934.485533,2812.782580,3701.029710,-10112.460574
934.485853,5107.421000,5403.503377,-10189.070123
934.486173,5033.400406,5033.400406,-10648.727422
934.486493,5551.544565,4293.194464,-9882.631924
934.486813,6291.750507,3701.029710,-9806.022374
934.487133,6069.688724,3478.967927,-10189.070123
934.487452,4219.173869,2812.782580,-10189.070123
934.487772,1702.473667,1998.556043,-9806.022374
934.488092,0.000000,814.226536,-9729.412825
934.488412,-740.205942,-296.082377,-10112.460574
934.488732,-888.247130,-1554.432478,-9959.241474
934.489052,-740.205942,-962.267725,-9729.412825
934.489372,222.061783,0.000000,-10035.851024
934.489692,1850.514855,1406.391290,-9729.412825
934.490012,3330.926739,3182.885551,-10648.727422
934.490332,6143.709319,4959.379811,-10878.556072
934.490652,7402.059420,5477.523971,-10801.946522
934.490972,6439.791695,6439.791695,-11031.775171
934.491292,5551.544565,4737.318029,-11414.822920
934.491612,3923.091493,3478.967927,-10265.679673
934.491931,1184.329507,1258.350101,-10495.508323
934.492251,222.061783,-1110.308913,-9652.803275
934.492571,-1036.288319,-2516.700203,-9269.755526
934.492891,-592.164754,-2146.597232,-9806.022374
934.493211,592.164754,-148.041188,-9576.193725
934.493531,1628.453072,2442.679609,-9806.022374
934.493851,2368.659014,4219.173869,-10342.289223
934.494171,3997.112087,4367.215058,-10035.851024
934.494491,5403.503377,2812.782580,-9576.193725
934.494811,5107.421000,740.205942,-10878.556072
934.495131,5403.503377,-592.164754,-9346.365076
934.495451,3627.009116,-666.185348,-9576.193725
934.495771,592.164754,1036.288319,-9959.241474
934.496091,74.020594,2294.638420,-9269.755526
934.496410,222.061783,2664.741391,-10035.851024
934.496730,1332.370696,1184.329507,-10342.289223
934.497050,296.082377,-592.164754,-9499.584175
934.497370,-148.041188,-1184.329507,-10265.679673
934.497690,1110.308913,-1480.411884,-9729.412825
934.498010,2072.576638,592.164754,-9806.022374
934.498330,2442.679609,3108.864956,-9882.631924
934.498650,3552.988522,4885.359217,-9806.022374
934.498970,2886.803174,5107.421000,-11261.603821
934.499290,1554.432478,3330.926739,-11184.994271
934.499610,-1628.453072,1332.370696,-9422.974625
934.499930,-2368.659014,0.000000,-10648.727422
934.500250,1184.329507,-370.102971,-10189.070123
934.500570,592.164754,-148.041188,-10495.508323
934.500889,-3034.844362,740.205942,-10112.460574
934.501209,-3997.112087,1554.432478,-9729.412825
934.501529,-2368.659014,2072.576638,-10112.460574
934.501849,592.164754,1554.432478,-10572.117872
934.502169,2886.803174,1258.350101,-9576.193725
934.502489,3256.906145,1998.556043,-11031.775171
934.502809,2220.617826,2072.576638,-9882.631924
934.503129,2368.659014,1628.453072,-9806.022374
934.503449,2368.659014,1702.473667,-10495.508323
934.503769,1702.473667,1554.432478,-9729.412825
934.504089,1110.308913,148.041188,-10265.679673
934.504409,-1924.535449,666.185348,-9882.631924
934.504729,-3478.967927,1258.350101,-9729.412825
934.505049,-3330.926739,1628.453072,-9806.022374
934.505368,-1998.556043,148.041188,-9193.145976
934.505688,-148.041188,-1110.308913,-9499.584175
934.506008,888.247130,-2294.638420,-9806.022374
934.506328,2812.782580,-1554.432478,-9576.193725
934.506648,3182.885551,666.185348,-9959.241474
934.506968,2738.761985,2516.700203,-9729.412825
934.507288,222.061783,4145.153275,-9959.241474
934.507608,-666.185348,3923.091493,-10342.289223
934.507928,1184.329507,1702.473667,-9959.241474
934.508248,3108.864956,-148.041188,-9729.412825
934.508568,3478.967927,-1776.494261,-10189.070123
934.508888,1036.288319,-3182.885551,-9806.022374
934.509208,-814.226536,-3404.947333,-9882.631924
934.509528,-1332.370696,-1258.350101,-10265.679673
934.509847,-592.164754,1110.308913,-9882.631924
934.510167,0.000000,4293.194464,-11108.384721
934.510487,740.205942,5921.647536,-11108.384721
934.510807,1702.473667,4737.318029,-10878.556072
934.511127,3849.070898,1776.494261,-10572.117872
934.511447,5477.523971,-814.226536,-10265.679673
934.511767,4145.153275,-2220.617826,-10495.508323
934.512087,2960.823768,-1628.453072,-10725.336972
934.512407,2960.823768,-148.041188,-9729.412825
934.512727,962.267725,1776.494261,-10189.070123
934.513047,-1184.329507,2368.659014,-10112.460574
934.513367,-2516.700203,2072.576638,-10878.556072
934.513687,-1036.288319,-148.041188,-10189.070123
934.514007,888.247130,-1702.473667,-10112.460574
934.514326,74.020594,-1628.453072,-9806.022374
934.514646,-222.061783,-888.247130,-9576.193725
934.514966,1406.391290,-370.102971,-10035.851024
934.515286,2368.659014,148.041188,-9652.803275
934.515606,1628.453072,518.144159,-9422.974625
934.515926,0.000000,1776.494261,-9882.631924
934.516246,1110.308913,1554.432478,-9806.022374
934.516566,1998.556043,518.144159,-9882.631924
934.516886,148.041188,-1480.411884,-9806.022374
934.517206,-2368.659014,-2220.617826,-9269.755526
934.517526,-3552.988522,-1850.514855,-9806.022374
934.517846,-2812.782580,-888.247130,-9422.974625
934.518166,-2368.659014,444.123565,-9959.241474
934.518485,-888.247130,1554.432478,-9346.365076
934.518805,74.020594,1702.473667,-10112.460574
934.519125,2590.720797,814.226536,-10189.070123
934.519445,3849.070898,1258.350101,-10648.727422
934.519765,2146.597232,2220.617826,-10495.508323
934.520085,-1184.329507,2590.720797,-10265.679673
934.520405,-3404.947333,2146.597232,-10801.946522
934.520725,-3182.885551,666.185348,-10418.898773
934.521045,-2368.659014,-1332.370696,-9959.241474
934.521365,-2368.659014,-1554.432478,-10648.727422
934.521685,-1998.556043,-296.082377,-10189.070123
934.522005,666.185348,1776.494261,-10725.336972
934.522325,2294.638420,2812.782580,-10878.556072
934.522645,2368.659014,2516.700203,-9576.193725
934.522964,2960.823768,1554.432478,-11261.603821
934.523284,2812.782580,-814.226536,-9882.631924
934.523604,2590.720797,-1924.535449,-10418.898773
934.523924,1480.411884,-888.247130,-11568.042020
934.524244,370.102971,2960.823768,-10801.946522
934.524564,-296.082377,4663.297435,-10801.946522
934.524884,-1110.308913,3404.947333,-9882.631924
934.525204,-444.123565,-1036.288319,-9729.412825
934.525524,1258.350101,-4441.235652,-9116.536426
934.525844,2146.597232,-6661.853478,-9039.926876
934.526164,1850.514855,-4811.338623,-9193.145976
934.526484,1036.288319,-592.164754,-9422.974625
934.526804,1776.494261,1998.556043,-8580.269578
934.527124,3108.864956,2960.823768,-9269.755526
934.527443,3627.009116,2072.576638,-9959.241474
934.527763,2146.597232,1036.288319,-10189.070123
934.528083,296.082377,148.041188,-9882.631924
934.528403,1850.514855,-740.205942,-9806.022374
934.528723,2368.659014,-2442.679609,-9882.631924
934.529043,1702.473667,-1924.535449,-9959.241474
934.529363,-1480.411884,-1110.308913,-9959.241474
934.529683,-2368.659014,1258.350101,-10035.851024
934.530003,-740.205942,2516.700203,-10572.117872
934.530323,1036.288319,2960.823768,-10801.946522
934.530643,1036.288319,814.226536,-10955.165621
934.530963,2294.638420,-1332.370696,-10725.336972
934.531283,2590.720797,-1554.432478,-10495.508323
934.531603,888.247130,-444.123565,-10189.070123
934.531922,-1628.453072,1628.453072,-11184.994271
934.532242,-1406.391290,2960.823768,-11108.384721
934.532562,-148.041188,2738.761985,-11261.603821
934.532882,518.144159,1332.370696,-10725.336972
934.533202,-370.102971,888.247130,-10112.460574
934.533522,-1406.391290,1184.329507,-10648.727422
934.533842,-1702.473667,814.226536,-10572.117872
934.534162,-2146.597232,-518.144159,-9959.241474
934.534482,-3478.967927,-1924.535449,-9806.022374
934.534802,-2738.761985,-2368.659014,-9269.755526
934.535122,-1628.453072,-1110.308913,-9652.803275
934.535442,518.144159,888.247130,-9806.022374
934.535762,2072.576638,3108.864956,-9959.241474
934.536082,3034.844362,3330.926739,-9729.412825
934.536401,2368.659014,1332.370696,-9806.022374
934.536721,370.102971,518.144159,-9806.022374
934.537041,0.000000,-222.061783,-9576.193725
934.537361,-1776.494261,-444.123565,-9193.145976
934.537681,-1480.411884,-962.267725,-9729.412825
934.538001,-222.061783,-1406.391290,-9576.193725
934.538321,-148.041188,-1258.350101,-9576.193725
934.538641,-888.247130,-1110.308913,-9422.974625
934.538961,-1036.288319,296.082377,-9652.803275
934.539281,0.000000,1924.535449,-10189.070123
934.539601,1998.556043,2368.659014,-10265.679673
934.539921,3404.947333,1998.556043,-10572.117872
934.540241,2738.761985,148.041188,-9652.803275
934.540561,666.185348,-1406.391290,-10189.070123
934.540880,888.247130,-1776.494261,-9806.022374
934.541200,3182.885551,-888.247130,-10955.165621
934.541520,4885.359217,-370.102971,-10725.336972
934.541840,3701.029710,1406.391290,-10342.289223
934.542160,-296.082377,3330.926739,-10725.336972
934.542480,296.082377,3404.947333,-10648.727422
934.542800,2220.617826,3849.070898,-10878.556072
934.543120,2738.761985,4071.132681,-11031.775171
934.543440,1850.514855,2886.803174,-10418.898773
934.543760,1850.514855,666.185348,-10342.289223
934.544080,2368.659014,-2368.659014,-9882.631924
934.544400,3330.926739,-4293.194464,-9959.241474
934.544720,3404.947333,-2886.803174,-10035.851024
934.545040,2368.659014,518.144159,-10189.070123
934.545359,-666.185348,3775.050304,-10648.727422
934.545679,-1850.514855,4145.153275,-10112.460574
934.545999,-1554.432478,2516.700203,-9499.584175
934.546319,222.061783,0.000000,-9806.022374
934.546639,1702.473667,-2664.741391,-9806.022374
934.546959,814.226536,-4145.153275,-9652.803275
934.547279,74.020594,-3108.864956,-9882.631924
934.547599,-814.226536,-2072.576638,-9193.145976
934.547919,-666.185348,-518.144159,-9422.974625
934.548239,-592.164754,666.185348,-9422.974625
934.548559,-1332.370696,296.082377,-9806.022374
934.548879,-962.267725,222.061783,-9499.584175
934.549199,-740.205942,666.185348,-10955.165621
934.549519,-1776.494261,518.144159,-9193.145976
934.549838,-3108.864956,-444.123565,-9882.631924
934.550158,-1850.514855,-1480.411884,-9576.193725
934.550478,1332.370696,-2146.597232,-9729.412825
934.550798,1480.411884,-444.123565,-10648.727422
934.551118,-2146.597232,962.267725,-10648.727422
934.551438,-3404.947333,1036.288319,-9882.631924
934.551758,-1036.288319,1776.494261,-10495.508323
934.552078,2590.720797,1776.494261,-10572.117872
934.552398,1924.535449,592.164754,-10878.556072
934.552718,-2294.638420,222.061783,-11261.603821
934.553038,-3552.988522,-222.061783,-10265.679673
934.553358,-1258.350101,0.000000,-10572.117872
934.553678,1776.494261,222.061783,-11031.775171
934.553997,-666.185348,222.061783,-9882.631924
934.554317,-3108.864956,-1776.494261,-10265.679673
934.554637,-2886.803174,-2442.679609,-9806.022374
934.554957,222.061783,-2294.638420,-9882.631924
934.555277,148.041188,-370.102971,-9806.022374
934.555597,-740.205942,0.000000,-8963.317327
934.555917,592.164754,666.185348,-10189.070123
934.556237,4663.297435,74.020594,-9729.412825
934.556557,6735.874072,-962.267725,-10035.851024
934.556877,5847.626942,-2442.679609,-9806.022374
934.557197,3034.844362,-2220.617826,-9422.974625
934.557517,1036.288319,-222.061783,-9576.193725
934.557837,962.267725,2072.576638,-9576.193725
934.558157,740.205942,2368.659014,-10265.679673
934.558476,2886.803174,518.144159,-10265.679673
934.558796,1776.494261,-1332.370696,-10035.851024
934.559116,740.205942,-2072.576638,-9499.584175
934.559436,518.144159,-1036.288319,-9193.145976
934.559756,2590.720797,1480.411884,-10572.117872
934.560076,4885.359217,2738.761985,-10495.508323
934.560396,4219.173869,2664.741391,-10189.070123
934.560716,2812.782580,2294.638420,-10955.165621
934.561036,1184.329507,592.164754,-9806.022374
934.561356,1702.473667,-222.061783,-10265.679673
934.561676,740.205942,1110.308913,-10725.336972
934.561996,-1628.453072,1702.473667,-10495.508323
934.562316,-1776.494261,1332.370696,-10189.070123
934.562636,-814.226536,222.061783,-10265.679673
934.562955,0.000000,-148.041188,-10418.898773
934.563275,-1036.288319,518.144159,-10418.898773
934.563595,-1184.329507,1554.432478,-10189.070123
934.563915,-1110.308913,2368.659014,-9806.022374
934.564235,1036.288319,2960.823768,-10572.117872
934.564555,2812.782580,2442.679609,-10955.165621
934.564875,3034.844362,888.247130,-10265.679673
934.565195,888.247130,814.226536,-9959.241474
934.565515,-2146.597232,1184.329507,-9806.022374
934.565835,-3627.009116,814.226536,-9422.974625
934.566155,-2294.638420,1406.391290,-9652.803275
934.566475,-1628.453072,222.061783,-9499.584175
934.566795,-1332.370696,-962.267725,-9576.193725
934.567115,-2516.700203,0.000000,-9806.022374
934.567434,-1332.370696,518.144159,-9576.193725
934.567754,-1036.288319,2442.679609,-9806.022374
934.568074,-444.123565,2886.803174,-9499.584175
934.568394,-444.123565,1776.494261,-10189.070123
934.568714,-962.267725,74.020594,-9346.365076
934.569034,-1110.308913,-962.267725,-9193.145976
934.569354,814.226536,-444.123565,-10112.460574
934.569674,3034.844362,-666.185348,-8656.879127
934.569994,888.247130,148.041188,-10112.460574
934.570314,-1258.350101,-148.041188,-9729.412825
934.570634,-888.247130,0.000000,-9652.803275
934.570954,1628.453072,222.061783,-10801.946522
934.571274,3330.926739,666.185348,-10495.508323
934.571594,962.267725,1110.308913,-10572.117872
934.571913,-1332.370696,296.082377,-10572.117872
934.572233,222.061783,-666.185348,-10342.289223
934.572553,2294.638420,-888.247130,-11797.870669
934.572873,3923.091493,74.020594,-10878.556072
934.573193,2368.659014,-148.041188,-10495.508323
934.573513,1998.556043,518.144159,-10648.727422
934.573833,2294.638420,888.247130,-10418.898773
934.574153,1998.556043,1110.308913,-10878.556072
934.574473,1776.494261,74.020594,-10572.117872
934.574793,370.102971,-888.247130,-10035.851024
934.575113,1554.432478,-518.144159,-9729.412825
934.575433,3256.906145,-1184.329507,-9806.022374
934.575753,4145.153275,-1628.453072,-9882.631924
934.576073,2664.741391,-2442.679609,-9959.241474
934.576392,222.061783,-1924.535449,-9882.631924
934.576712,0.000000,-666.185348,-9193.145976
934.577032,1184.329507,0.000000,-10112.460574
934.577352,1628.453072,1110.308913,-10495.508323
934.577672,-740.205942,962.267725,-10495.508323
934.577992,-666.185348,74.020594,-10495.508323
934.578312,222.061783,-296.082377,-10342.289223
934.578632,1702.473667,444.123565,-10955.165621
934.578952,1924.535449,370.102971,-10648.727422
934.579272,592.164754,1480.411884,-10189.070123
934.579592,296.082377,-518.144159,-9346.365076
934.579912,-814.226536,-592.164754,-9959.241474
934.580232,-2368.659014,-3256.906145,-9499.584175
934.580552,-1998.556043,-4219.173869,-9422.974625
934.580871,-666.185348,-1406.391290,-9422.974625
934.581191,962.267725,0.000000,-9422.974625
934.581511,1480.411884,2442.679609,-9806.022374
934.581831,1036.288319,3108.864956,-11108.384721
934.582151,-814.226536,1258.350101,-9729.412825
934.582471,-3034.844362,-740.205942,-9806.022374
934.582791,-2960.823768,-2368.659014,-9652.803275
934.583111,-1702.473667,-2960.823768,-9116.536426
934.583431,444.123565,-1776.494261,-10265.679673
934.583751,222.061783,1184.329507,-9729.412825
934.584071,-2220.617826,2294.638420,-10189.070123
934.584391,-962.267725,2368.659014,-10572.117872
934.584711,2220.617826,2368.659014,-10265.679673
934.585030,2294.638420,2368.659014,-10572.117872
934.585350,-444.123565,888.247130,-10648.727422
934.585670,-888.247130,-148.041188,-9652.803275
934.585990,-1036.288319,-1110.308913,-9882.631924
934.586310,0.000000,-666.185348,-9806.022374
934.586630,1110.308913,0.000000,-9806.022374
934.586950,1036.288319,1184.329507,-10495.508323
934.587270,1332.370696,1406.391290,-9422.974625
934.587590,3701.029710,2516.700203,-10035.851024
934.587910,3849.070898,2072.576638,-10495.508323
934.588230,2812.782580,1036.288319,-9499.584175
934.588550,740.205942,444.123565,-10112.460574
934.588870,1480.411884,-962.267725,-9729.412825
934.589189,2294.638420,-888.247130,-9729.412825
934.589509,2146.597232,1110.308913,-10648.727422
934.589829,1184.329507,3256.906145,-9959.241474
934.590149,666.185348,4367.215058,-10648.727422
934.590469,1258.350101,3182.885551,-10648.727422
934.590789,1332.370696,-296.082377,-10035.851024
934.591109,-592.164754,-2590.720797,-9499.584175
934.591429,814.226536,-2072.576638,-9039.926876
934.591749,2960.823768,0.000000,-10572.117872
934.592069,5551.544565,1332.370696,-10342.289223
934.592389,2590.720797,2072.576638,-10495.508323
934.592709,2368.659014,2590.720797,-11031.775171
934.593029,1332.370696,2072.576638,-9806.022374
934.593348,2146.597232,1776.494261,-10725.336972
934.593668,-666.185348,2072.576638,-9882.631924
934.593988,-3552.988522,814.226536,-9959.241474
934.594308,-3849.070898,-1628.453072,-9806.022374
934.594628,-592.164754,-3404.947333,-9576.193725
934.594948,-148.041188,-3108.864956,-9346.365076
934.595268,-370.102971,-2072.576638,-8273.831378
934.595588,962.267725,1850.514855,-10342.289223
934.595908,592.164754,3108.864956,-9729.412825
934.596228,74.020594,4663.297435,-10801.946522
934.596548,-1110.308913,2442.679609,-9652.803275
934.596868,0.000000,962.267725,-9346.365076
934.597188,-148.041188,-962.267725,-10418.898773
934.597507,-592.164754,-2220.617826,-9576.193725
934.597827,-2146.597232,-592.164754,-10495.508323
934.598147,-1850.514855,-888.247130,-9116.536426
934.598467,0.000000,-518.144159,-9806.022374
934.598787,-814.226536,814.226536,-10572.117872
934.599107,-2442.679609,1184.329507,-10265.679673
934.599427,-5329.482782,0.000000,-9193.145976
934.599747,-2146.597232,-148.041188,-10112.460574
934.600067,2442.679609,-1184.329507,-9806.022374
934.600387,5699.585753,-1184.329507,-10878.556072
934.600707,3627.009116,-444.123565,-10418.898773
934.601027,-296.082377,1998.556043,-10418.898773
934.601347,-296.082377,2590.720797,-10801.946522
934.601666,2368.659014,1924.535449,-10495.508323
934.601986,1258.350101,-222.061783,-10878.556072
934.602306,-2590.720797,-3182.885551,-9959.241474
934.602626,-3997.112087,-5699.585753,-9116.536426
934.602946,-814.226536,-3923.091493,-9959.241474
934.603266,2146.597232,-814.226536,-9959.241474
934.603586,3923.091493,962.267725,-10189.070123
934.603906,4145.153275,2146.597232,-10572.117872
934.604226,3404.947333,2146.597232,-10265.679673
934.604546,4589.276840,740.205942,-10648.727422
934.604866,2812.782580,222.061783,-9806.022374
934.605186,2590.720797,518.144159,-10342.289223
934.605506,592.164754,-592.164754,-9806.022374
934.605825,666.185348,-962.267725,-9882.631924
934.606145,-592.164754,-1480.411884,-9652.803275
934.606465,592.164754,-814.226536,-9959.241474
934.606785,2072.576638,-666.185348,-10189.070123
934.607105,3330.926739,888.247130,-10801.946522
934.607425,2146.597232,2146.597232,-10189.070123
934.607745,-1702.473667,1258.350101,-9729.412825
934.608065,-1924.535449,148.041188,-9576.193725
934.608385,962.267725,370.102971,-10648.727422
934.608705,1776.494261,0.000000,-10572.117872
934.609025,2146.597232,370.102971,-10725.336972
934.609345,740.205942,740.205942,-9882.631924
934.609664,-814.226536,1628.453072,-8963.317327
934.609984,-2072.576638,1332.370696,-10265.679673
934.610304,-2812.782580,740.205942,-9959.241474
934.610624,-2146.597232,814.226536,-10112.460574
934.610944,-814.226536,222.061783,-9959.241474
934.611264,814.226536,-592.164754,-9652.803275
934.611584,518.144159,-444.123565,-9806.022374
934.611904,1036.288319,0.000000,-10035.851024
934.612224,1258.350101,1702.473667,-10035.851024
934.612544,1184.329507,4737.318029,-9729.412825
934.612864,1406.391290,7624.121203,-11414.822920
934.613184,888.247130,6069.688724,-10801.946522
934.613504,-2146.597232,2960.823768,-9959.241474
934.613823,-2886.803174,-1258.350101,-9652.803275
934.614143,-1480.411884,-5551.544565,-8656.879127
934.614463,0.000000,-4737.318029,-9729.412825
