#time,accel_x,accel_y,accel_z
849.298778,592.164754,296.082377,-9959.241474
849.299099,740.205942,0.000000,-11797.870669
849.299419,370.102971,0.000000,-10189.070123
849.299739,518.144159,0.000000,-10035.851024
849.300059,592.164754,74.020594,-10035.851024
849.300379,1036.288319,0.000000,-9806.022374
849.300699,666.185348,148.041188,-10112.460574
849.301019,222.061783,296.082377,-10035.851024
849.301339,222.061783,444.123565,-10418.898773
849.301660,666.185348,148.041188,-10112.460574
849.301980,1258.350101,-518.144159,-10189.070123
849.302300,740.205942,74.020594,-10112.460574
849.302620,740.205942,296.082377,-9959.241474
849.302940,814.226536,296.082377,-9806.022374
849.303260,666.185348,518.144159,-10035.851024
849.303580,1036.288319,0.000000,-10342.289223
849.303900,0.000000,0.000000,-10189.070123
849.304221,-296.082377,-370.102971,-9882.631924
849.304541,74.020594,-296.082377,-9959.241474
849.304861,296.082377,222.061783,-10955.165621
849.305181,222.061783,444.123565,-10342.289223
849.305501,296.082377,740.205942,-10265.679673
849.305821,1110.308913,592.164754,-10189.070123
849.306141,1258.350101,222.061783,-9882.631924
849.306461,518.144159,0.000000,-10342.289223
849.306782,518.144159,-666.185348,-10112.460574
849.307102,370.102971,-444.123565,-9959.241474
849.307422,370.102971,-666.185348,-9882.631924
849.307742,-148.041188,-296.082377,-9882.631924
849.308062,-962.267725,-740.205942,-9806.022374
849.308382,-740.205942,-518.144159,-10265.679673
849.308702,-296.082377,-518.144159,-9882.631924
849.309023,-592.164754,-148.041188,-10035.851024
849.309343,-740.205942,-296.082377,-10112.460574
849.309663,-296.082377,-370.102971,-10265.679673
849.309983,370.102971,-740.205942,-9882.631924
849.310303,-296.082377,-1110.308913,-9959.241474
849.310623,-962.267725,-1332.370696,-9806.022374
849.310943,-740.205942,-2294.638420,-9959.241474
849.311263,-296.082377,-1998.556043,-9806.022374
849.311584,-1332.370696,-1776.494261,-9959.241474
849.311904,-2146.597232,-1554.432478,-10112.460574
849.312224,-2516.700203,-1998.556043,-9806.022374
849.312544,-1406.391290,-1480.411884,-9959.241474
849.312864,-962.267725,-1184.329507,-10035.851024
849.313184,-1406.391290,-1332.370696,-10112.460574
849.313504,-1776.494261,-1628.453072,-10189.070123
849.313824,-666.185348,-1924.535449,-10035.851024
849.314145,-370.102971,-1258.350101,-10418.898773
849.314465,-888.247130,-1332.370696,-10112.460574
849.314785,-2960.823768,-1998.556043,-10342.289223
849.315105,-3182.885551,-3108.864956,-9882.631924
849.315425,-2442.679609,-3775.050304,-10189.070123
849.315745,-2516.700203,-3256.906145,-10112.460574
849.316065,-2590.720797,-3775.050304,-10189.070123
849.316385,-2960.823768,-2812.782580,-10035.851024
849.316706,-1554.432478,-2294.638420,-9882.631924
849.317026,0.000000,-1406.391290,-10265.679673
849.317346,888.247130,-592.164754,-10725.336972
849.317666,370.102971,-814.226536,-10495.508323
849.317986,-962.267725,-1406.391290,-10572.117872
849.318306,-2368.659014,-2072.576638,-10189.070123
849.318626,-3849.070898,-2886.803174,-10418.898773
849.318946,-5255.462188,-3404.947333,-10035.851024
849.319267,-5921.647536,-4737.318029,-9422.974625
849.319587,-4589.276840,-4885.359217,-9652.803275
849.319907,-1850.514855,-4515.256246,-9806.022374
849.320227,222.061783,-3034.844362,-10112.460574
849.320547,1776.494261,-1110.308913,-10035.851024
849.320867,2146.597232,370.102971,-10342.289223
849.321187,2146.597232,1628.453072,-10418.898773
849.321507,2368.659014,1406.391290,-10189.070123
849.321828,1480.411884,518.144159,-10572.117872
849.322148,0.000000,-1406.391290,-10725.336972
849.322468,-2220.617826,-2886.803174,-10112.460574
849.322788,-4515.256246,-3404.947333,-9882.631924
849.323108,-5847.626942,-3478.967927,-9729.412825
849.323428,-5773.606348,-3923.091493,-8963.317327
849.323748,-3627.009116,-4441.235652,-9576.193725
849.324068,-666.185348,-3923.091493,-9576.193725
849.324389,1480.411884,-2368.659014,-10112.460574
849.324709,2590.720797,0.000000,-8733.488677
849.325029,4145.153275,2368.659014,-10418.898773
849.325349,4811.338623,3330.926739,-11184.994271
849.325669,3108.864956,3034.844362,-11108.384721
849.325989,-1258.350101,1998.556043,-10955.165621
849.326309,-4959.379811,-1628.453072,-10035.851024
849.326629,-6587.832884,-4367.215058,-9806.022374
849.326950,-5995.668130,-5995.668130,-9576.193725
849.327270,-4811.338623,-6439.791695,-9346.365076
849.327590,-3775.050304,-5107.421000,-8963.317327
849.327910,-1924.535449,-2960.823768,-9193.145976
849.328230,666.185348,444.123565,-10418.898773
849.328550,2368.659014,2960.823768,-10418.898773
849.328870,2886.803174,3627.009116,-10955.165621
849.329190,3330.926739,2072.576638,-9882.631924
849.329511,2886.803174,592.164754,-10495.508323
849.329831,666.185348,-962.267725,-10572.117872
849.330151,-2664.741391,-1998.556043,-10035.851024
849.330471,-4663.297435,-2072.576638,-9346.365076
849.330791,-5847.626942,-1628.453072,-9806.022374
849.331111,-7031.956449,-3478.967927,-9806.022374
849.331431,-7846.182985,-6069.688724,-9193.145976
849.331751,-5699.585753,-7624.121203,-8580.269578
849.332072,-1332.370696,-6069.688724,-9193.145976
849.332392,2590.720797,-2516.700203,-10035.851024
849.332712,3923.091493,1554.432478,-10801.946522
849.333032,2220.617826,3849.070898,-10955.165621
849.333352,1406.391290,4515.256246,-10878.556072
849.333672,1850.514855,2812.782580,-11031.775171
849.333992,1628.453072,-222.061783,-10955.165621
849.334313,-1110.308913,-3404.947333,-10572.117872
849.334633,-5033.400406,-5329.482782,-10648.727422
849.334953,-7846.182985,-5107.421000,-10189.070123
849.335273,-8956.491898,-4293.194464,-9806.022374
849.335593,-7698.141797,-4293.194464,-9039.926876
849.335913,-4145.153275,-4441.235652,-9346.365076
849.336233,592.164754,-4071.132681,-10801.946522
849.336553,3182.885551,-3701.029710,-10572.117872
849.336874,4219.173869,-1924.535449,-10265.679673
849.337194,5033.400406,-222.061783,-10495.508323
849.337514,4885.359217,1702.473667,-10035.851024
849.337834,3552.988522,2960.823768,-10725.336972
849.338154,0.000000,1184.329507,-10955.165621
849.338474,-4367.215058,-1332.370696,-9882.631924
849.338794,-6291.750507,-4145.153275,-9882.631924
849.339114,-7254.018232,-6587.832884,-9422.974625
849.339435,-5921.647536,-9992.780217,-8733.488677
849.339755,-6291.750507,-10288.862594,-8886.707777
849.340075,-4737.318029,-8586.388927,-8656.879127
849.340395,-1258.350101,-5033.400406,-8963.317327
849.340715,2220.617826,-370.102971,-9959.241474
849.341035,4145.153275,3034.844362,-10495.508323
849.341355,4367.215058,3997.112087,-10955.165621
849.341675,1924.535449,2220.617826,-10878.556072
849.341996,-370.102971,-296.082377,-10189.070123
849.342316,-1776.494261,-3034.844362,-9882.631924
849.342636,-2812.782580,-5847.626942,-9882.631924
849.342956,-4515.256246,-5995.668130,-9806.022374
849.343276,-6587.832884,-6143.709319,-9806.022374
849.343596,-6439.791695,-6217.729913,-9346.365076
849.343916,-3627.009116,-4071.132681,-9882.631924
849.344236,-1776.494261,-2368.659014,-10572.117872
849.344557,-1998.556043,-592.164754,-10572.117872
849.344877,-1702.473667,0.000000,-10265.679673
849.345197,1184.329507,888.247130,-10495.508323
849.345517,4293.194464,1258.350101,-11261.603821
849.345837,4367.215058,2368.659014,-11031.775171
849.346157,2072.576638,1036.288319,-11108.384721
849.346477,-962.267725,-444.123565,-10648.727422
849.346797,-3404.947333,-1776.494261,-10725.336972
849.347118,-5847.626942,-3108.864956,-10112.460574
849.347438,-6735.874072,-3923.091493,-9576.193725
849.347758,-5995.668130,-3182.885551,-9576.193725
849.348078,-2368.659014,-1776.494261,-9959.241474
849.348398,1776.494261,-1554.432478,-10035.851024
849.348718,3182.885551,-592.164754,-9882.631924
849.349038,4071.132681,-1702.473667,-10035.851024
849.349358,3330.926739,1554.432478,-10189.070123
849.349679,2146.597232,3997.112087,-10648.727422
849.349999,1184.329507,3330.926739,-9729.412825
849.350319,2072.576638,2886.803174,-10112.460574
849.350639,1036.288319,0.000000,-9729.412825
849.350959,-2590.720797,-3330.926739,-9729.412825
849.351279,-4663.297435,-4737.318029,-9039.926876
849.351599,-4811.338623,-4219.173869,-8810.098227
849.351919,-2812.782580,-2368.659014,-10418.898773
849.352240,-1332.370696,-666.185348,-9193.145976
849.352560,0.000000,-1628.453072,-9422.974625
849.352880,2220.617826,-2516.700203,-9576.193725
849.353200,3775.050304,-740.205942,-11414.822920
849.353520,4885.359217,2220.617826,-10955.165621
849.353840,4663.297435,4293.194464,-10955.165621
849.354160,2664.741391,6143.709319,-11338.213370
849.354480,-888.247130,5403.503377,-11108.384721
849.354801,-2294.638420,1258.350101,-10342.289223
849.355121,-1258.350101,-2812.782580,-9729.412825
849.355441,-1628.453072,-3997.112087,-10648.727422
849.355761,-3552.988522,-3404.947333,-10418.898773
849.356081,-2886.803174,-3108.864956,-9959.241474
849.356401,-1850.514855,-296.082377,-9959.241474
849.356721,-814.226536,2146.597232,-10035.851024
849.357041,1850.514855,2590.720797,-10495.508323
849.357361,3701.029710,2664.741391,-10801.946522
849.357681,4589.276840,444.123565,-10189.070123
849.358001,3627.009116,1850.514855,-10648.727422
849.358321,3701.029710,2146.597232,-9806.022374
849.358641,1554.432478,2590.720797,-10801.946522
849.358960,74.020594,1406.391290,-10878.556072
849.359280,-4071.132681,-888.247130,-9729.412825
849.359600,-3404.947333,-3108.864956,-9269.755526
849.359920,-1332.370696,-4071.132681,-9039.926876
849.360240,1110.308913,-4663.297435,-9576.193725
849.360560,370.102971,-3034.844362,-9422.974625
849.360880,444.123565,-1036.288319,-9959.241474
849.361200,-518.144159,2220.617826,-9576.193725
849.361520,1184.329507,4663.297435,-10035.851024
849.361840,4663.297435,4219.173869,-10572.117872
849.362160,4885.359217,3034.844362,-10035.851024
849.362480,2960.823768,0.000000,-10878.556072
849.362800,814.226536,-2886.803174,-9576.193725
849.363119,-370.102971,-3552.988522,-9806.022374
849.363439,-1850.514855,-2516.700203,-9652.803275
849.363759,-3330.926739,-1776.494261,-9652.803275
849.364079,-3108.864956,-888.247130,-9806.022374
849.364399,-1998.556043,-1110.308913,-9882.631924
849.364719,0.000000,-2072.576638,-10342.289223
849.365039,2812.782580,-1554.432478,-10725.336972
849.365359,2812.782580,0.000000,-10801.946522
849.365679,1554.432478,2146.597232,-10342.289223
849.365999,296.082377,3627.009116,-12487.356617
849.366319,592.164754,1998.556043,-11108.384721
849.366639,888.247130,1258.350101,-10955.165621
849.366959,592.164754,-222.061783,-10878.556072
849.367279,296.082377,-1110.308913,-10495.508323
849.367598,-296.082377,-1998.556043,-10342.289223
849.367918,-3849.070898,-1924.535449,-9652.803275
849.368238,-4367.215058,-1258.350101,-10035.851024
849.368558,-2146.597232,-1480.411884,-9652.803275
849.368878,888.247130,-592.164754,-9729.412825
849.369198,3182.885551,-1776.494261,-10265.679673
849.369518,3997.112087,1036.288319,-10418.898773
849.369838,2368.659014,2886.803174,-10342.289223
849.370158,222.061783,2812.782580,-10955.165621
849.370478,-296.082377,1480.411884,-9346.365076
849.370798,222.061783,1110.308913,-10189.070123
849.371118,1184.329507,1850.514855,-10342.289223
849.371438,1480.411884,-222.061783,-10342.289223
849.371757,1258.350101,-1554.432478,-10035.851024
849.372077,-2368.659014,-2664.741391,-9806.022374
849.372397,-3108.864956,-2368.659014,-9422.974625
849.372717,-1110.308913,-1554.432478,-9729.412825
849.373037,296.082377,-518.144159,-9806.022374
849.373357,2146.597232,740.205942,-9729.412825
849.373677,3552.988522,740.205942,-10265.679673
849.373997,5773.606348,1554.432478,-10418.898773
849.374317,4737.318029,1554.432478,-10648.727422
849.374637,1554.432478,1036.288319,-11568.042020
849.374957,-1184.329507,1480.411884,-10342.289223
849.375277,-2368.659014,740.205942,-10189.070123
849.375597,-2072.576638,444.123565,-10342.289223
849.375916,-888.247130,-1184.329507,-10112.460574
849.376236,0.000000,-2072.576638,-10648.727422
849.376556,-1110.308913,74.020594,-9806.022374
849.376876,-1702.473667,1628.453072,-10112.460574
849.377196,1258.350101,1332.370696,-9576.193725
849.377516,3182.885551,1184.329507,-10035.851024
849.377836,2516.700203,1924.535449,-10189.070123
849.378156,2368.659014,74.020594,-9652.803275
849.378476,2886.803174,-222.061783,-10035.851024
849.378796,2590.720797,1110.308913,-9499.584175
849.379116,444.123565,2442.679609,-10418.898773
849.379436,1036.288319,1702.473667,-9729.412825
849.379756,814.226536,-444.123565,-9806.022374
849.380076,-1480.411884,-1998.556043,-9806.022374
849.380395,-2442.679609,-3108.864956,-8963.317327
849.380715,-1332.370696,-1924.535449,-9806.022374
849.381035,0.000000,-592.164754,-9806.022374
849.381355,0.000000,666.185348,-9882.631924
849.381675,740.205942,592.164754,-9806.022374
849.381995,2368.659014,1184.329507,-10495.508323
849.382315,3478.967927,1258.350101,-10878.556072
849.382635,3849.070898,888.247130,-10112.460574
849.382955,2960.823768,3182.885551,-11184.994271
849.383275,0.000000,2516.700203,-10955.165621
849.383595,-1628.453072,814.226536,-9959.241474
849.383915,-2368.659014,-666.185348,-10572.117872
849.384235,-3330.926739,-1554.432478,-10265.679673
849.384554,-2072.576638,-1036.288319,-10725.336972
849.384874,-148.041188,-1628.453072,-10112.460574
849.385194,1628.453072,-1110.308913,-10189.070123
849.385514,2368.659014,666.185348,-10495.508323
849.385834,370.102971,3034.844362,-9806.022374
849.386154,740.205942,1776.494261,-10189.070123
849.386474,1480.411884,1184.329507,-10265.679673
849.386794,1110.308913,1184.329507,-10418.898773
849.387114,518.144159,-296.082377,-9882.631924
849.387434,518.144159,-666.185348,-10265.679673
849.387754,-1924.535449,-962.267725,-9652.803275
849.388074,-2516.700203,-1628.453072,-9499.584175
849.388394,-1480.411884,-666.185348,-9576.193725
849.388713,-1184.329507,-222.061783,-9193.145976
849.389033,-1332.370696,-1776.494261,-8963.317327
849.389353,0.000000,-2368.659014,-9499.584175
849.389673,740.205942,-1554.432478,-9652.803275
849.389993,1036.288319,888.247130,-9652.803275
849.390313,2590.720797,2220.617826,-9882.631924
849.390633,4145.153275,1924.535449,-9959.241474
849.390953,2664.741391,2368.659014,-10035.851024
849.391273,-296.082377,592.164754,-10112.460574
849.391593,-1480.411884,-518.144159,-10112.460574
849.391913,-1036.288319,-1036.288319,-9882.631924
849.392233,-2294.638420,-370.102971,-10112.460574
849.392553,-2368.659014,-370.102971,-9576.193725
849.392873,-1184.329507,-296.082377,-9729.412825
849.393192,1406.391290,0.000000,-9882.631924
849.393512,4441.235652,74.020594,-10648.727422
849.393832,6217.729913,814.226536,-10725.336972
849.394152,5107.421000,1702.473667,-10878.556072
849.394472,3404.947333,3256.906145,-10725.336972
849.394792,962.267725,3108.864956,-10112.460574
849.395112,740.205942,2368.659014,-10495.508323
849.395432,-370.102971,1850.514855,-10418.898773
849.395752,-444.123565,888.247130,-10495.508323
849.396072,1998.556043,0.000000,-10725.336972
849.396392,1776.494261,-1776.494261,-10112.460574
849.396712,814.226536,-444.123565,-9806.022374
849.397032,-296.082377,0.000000,-9499.584175
849.397351,-888.247130,1036.288319,-9576.193725
849.397671,0.000000,962.267725,-9806.022374
849.397991,2146.597232,-370.102971,-9729.412825
849.398311,3478.967927,1110.308913,-10189.070123
849.398631,3330.926739,2294.638420,-10648.727422
849.398951,740.205942,3034.844362,-10342.289223
849.399271,1406.391290,3182.885551,-9729.412825
849.399591,1554.432478,1628.453072,-9806.022374
849.399911,222.061783,-666.185348,-10265.679673
849.400231,-1036.288319,-2294.638420,-9346.365076
849.400551,-962.267725,-2960.823768,-9422.974625
849.400871,-2072.576638,-1702.473667,-9652.803275
849.401191,-2368.659014,962.267725,-9729.412825
849.401510,-814.226536,1332.370696,-10189.070123
849.401830,1258.350101,1776.494261,-10112.460574
849.402150,1924.535449,2590.720797,-10342.289223
849.402470,2368.659014,2220.617826,-10418.898773
849.402790,2072.576638,1110.308913,-10878.556072
849.403110,592.164754,888.247130,-10189.070123
849.403430,-518.144159,1036.288319,-10265.679673
849.403750,-1924.535449,74.020594,-10035.851024
849.404070,-1406.391290,-888.247130,-10342.289223
849.404390,74.020594,-2072.576638,-9882.631924
849.404710,370.102971,-1480.411884,-10342.289223
849.405030,370.102971,370.102971,-10265.679673
849.405350,-1406.391290,518.144159,-9882.631924
849.405670,-2072.576638,592.164754,-9882.631924
849.405989,296.082377,148.041188,-10112.460574
849.406309,814.226536,-740.205942,-10342.289223
849.406629,444.123565,-518.144159,-10265.679673
849.406949,1184.329507,-148.041188,-10189.070123
849.407269,1776.494261,1258.350101,-11031.775171
849.407589,666.185348,1332.370696,-10112.460574
849.407909,-740.205942,666.185348,-10112.460574
849.408229,-1110.308913,-296.082377,-10112.460574
849.408549,-888.247130,-1036.288319,-9576.193725
849.408869,-2146.597232,-1554.432478,-10189.070123
849.409189,-1110.308913,-2146.597232,-9346.365076
849.409509,1184.329507,-2442.679609,-9729.412825
849.409829,1702.473667,-740.205942,-10189.070123
849.410148,888.247130,814.226536,-9652.803275
849.410468,1258.350101,2590.720797,-10648.727422
849.410788,666.185348,1406.391290,-10342.289223
849.411108,-296.082377,-518.144159,-9806.022374
849.411428,0.000000,-1628.453072,-9959.241474
849.411748,222.061783,-2516.700203,-9882.631924
849.412068,592.164754,-1258.350101,-9806.022374
849.412388,222.061783,740.205942,-10265.679673
849.412708,-518.144159,0.000000,-9882.631924
849.413028,370.102971,296.082377,-10112.460574
849.413348,444.123565,-148.041188,-10342.289223
849.413668,2220.617826,-592.164754,-10342.289223
849.413988,3256.906145,1628.453072,-10572.117872
849.414307,1924.535449,1924.535449,-10725.336972
849.414627,2664.741391,888.247130,-9576.193725
849.414947,3256.906145,2146.597232,-10648.727422
849.415267,888.247130,1554.432478,-10418.898773
849.415587,-444.123565,0.000000,-10801.946522
849.415907,1258.350101,148.041188,-9422.974625
849.416227,0.000000,148.041188,-10035.851024
849.416547,148.041188,1110.308913,-10418.898773
849.416867,-370.102971,2368.659014,-9959.241474
849.417187,-148.041188,1258.350101,-10418.898773
849.417507,1332.370696,0.000000,-10112.460574
849.417827,1406.391290,-814.226536,-10189.070123
849.418147,3552.988522,296.082377,-10418.898773
849.418467,3256.906145,1036.288319,-10189.070123
849.418786,962.267725,2590.720797,-9652.803275
849.419106,370.102971,518.144159,-9652.803275
849.419426,444.123565,0.000000,-10265.679673
849.419746,-814.226536,740.205942,-9806.022374
849.420066,-1110.308913,1406.391290,-8963.317327
849.420386,148.041188,1850.514855,-9882.631924
849.420706,370.102971,888.247130,-10112.460574
849.421026,-518.144159,-888.247130,-9882.631924
849.421346,-1850.514855,-1554.432478,-9346.365076
849.421666,0.000000,444.123565,-9882.631924
849.421986,-666.185348,2368.659014,-10495.508323
849.422306,3034.844362,2738.761985,-10572.117872
849.422626,2294.638420,2590.720797,-10955.165621
849.422945,0.000000,1110.308913,-10035.851024
849.423265,-1480.411884,2368.659014,-9959.241474
849.423585,-1258.350101,1332.370696,-9806.022374
849.423905,2368.659014,1480.411884,-10495.508323
849.424225,3552.988522,1480.411884,-10189.070123
849.424545,1776.494261,-1110.308913,-9729.412825
849.424865,2294.638420,-2664.741391,-9882.631924
849.425185,-592.164754,-2220.617826,-9269.755526
849.425505,0.000000,592.164754,-10189.070123
849.425825,1924.535449,1406.391290,-9652.803275
849.426145,2220.617826,1554.432478,-9959.241474
849.426465,1628.453072,1628.453072,-10112.460574
849.426785,1628.453072,444.123565,-10035.851024
849.427104,2294.638420,-222.061783,-10878.556072
849.427424,1554.432478,444.123565,-10035.851024
849.427744,0.000000,0.000000,-9882.631924
849.428064,-370.102971,-740.205942,-9806.022374
849.428384,-370.102971,-814.226536,-9806.022374
849.428704,370.102971,-666.185348,-10725.336972
849.429024,962.267725,-888.247130,-9882.631924
849.429344,0.000000,0.000000,-9959.241474
849.429664,-592.164754,1554.432478,-9806.022374
849.429984,-1184.329507,1702.473667,-9346.365076
849.430304,-148.041188,2664.741391,-10955.165621
849.430624,0.000000,1776.494261,-9652.803275
849.430944,-1184.329507,-666.185348,-10495.508323
849.431264,-370.102971,-2220.617826,-9576.193725
849.431583,-296.082377,740.205942,-9959.241474
849.431903,-1776.494261,814.226536,-10418.898773
849.432223,-2294.638420,2368.659014,-10189.070123
849.432543,-2368.659014,666.185348,-9959.241474
849.432863,-2294.638420,-148.041188,-11491.432470
849.433183,-1628.453072,-1258.350101,-9959.241474
849.433503,74.020594,-740.205942,-9806.022374
849.433823,1110.308913,1110.308913,-10495.508323
849.434143,148.041188,2220.617826,-10189.070123
849.434463,-148.041188,1332.370696,-10801.946522
849.434783,962.267725,-370.102971,-10801.946522
849.435103,2146.597232,-962.267725,-9882.631924
849.435423,1776.494261,148.041188,-10342.289223
849.435742,2442.679609,1850.514855,-10189.070123
849.436062,1184.329507,3256.906145,-10648.727422
849.436382,-444.123565,1628.453072,-10342.289223
849.436702,-296.082377,-962.267725,-9806.022374
849.437022,-148.041188,-2590.720797,-9499.584175
849.437342,1332.370696,-2146.597232,-9806.022374
849.437662,2368.659014,-222.061783,-9959.241474
849.437982,1480.411884,3108.864956,-10342.289223
849.438302,1184.329507,4515.256246,-10955.165621
849.438622,2220.617826,2812.782580,-9499.584175
849.438942,2072.576638,1702.473667,-9806.022374
849.439262,2294.638420,-444.123565,-9422.974625
849.439582,3034.844362,-2590.720797,-9422.974625
849.439901,2072.576638,-2442.679609,-9269.755526
849.440221,2590.720797,-1554.432478,-9652.803275
849.440541,3034.844362,222.061783,-10189.070123
849.440861,518.144159,1554.432478,-10112.460574
849.441181,-222.061783,2886.803174,-9959.241474
849.441501,-740.205942,2812.782580,-10189.070123
849.441821,-592.164754,2886.803174,-10265.679673
849.442141,0.000000,1110.308913,-10418.898773
849.442461,1850.514855,-444.123565,-9959.241474
849.442781,1258.350101,-2738.761985,-9806.022374
849.443101,296.082377,-4959.379811,-9346.365076
849.443421,-296.082377,-2664.741391,-9346.365076
849.443741,-740.205942,0.000000,-10112.460574
849.444061,-518.144159,1850.514855,-10342.289223
849.444380,-222.061783,1406.391290,-10265.679673
849.444700,-962.267725,1480.411884,-10342.289223
849.445020,-740.205942,1480.411884,-10265.679673
849.445340,-1110.308913,74.020594,-10265.679673
849.445660,1332.370696,-1850.514855,-10112.460574
849.445980,1184.329507,-1110.308913,-10035.851024
849.446300,74.020594,-1036.288319,-10112.460574
849.446620,-222.061783,370.102971,-9882.631924
849.446940,-814.226536,888.247130,-10189.070123
849.447260,74.020594,1776.494261,-9959.241474
849.447580,0.000000,3108.864956,-9882.631924
849.447900,1850.514855,2590.720797,-10572.117872
849.448220,1998.556043,444.123565,-10342.289223
849.448539,740.205942,-1628.453072,-9729.412825
849.448859,74.020594,-3182.885551,-9729.412825
849.449179,0.000000,-1480.411884,-9576.193725
849.449499,666.185348,1258.350101,-9729.412825
849.449819,518.144159,2072.576638,-9882.631924
849.450139,1184.329507,2294.638420,-10035.851024
849.450459,814.226536,1184.329507,-10495.508323
849.450779,666.185348,-592.164754,-10418.898773
849.451099,3034.844362,-814.226536,-9882.631924
849.451419,3552.988522,0.000000,-9959.241474
849.451739,1036.288319,1258.350101,-9882.631924
849.452059,-1702.473667,2220.617826,-10342.289223
849.452379,-1110.308913,666.185348,-10035.851024
849.452698,-296.082377,444.123565,-9959.241474
849.453018,296.082377,74.020594,-10265.679673
849.453338,1628.453072,0.000000,-10189.070123
849.453658,1258.350101,666.185348,-10035.851024
849.453978,0.000000,962.267725,-10189.070123
849.454298,-2220.617826,666.185348,-11184.994271
849.454618,-1480.411884,-370.102971,-10189.070123
849.454938,740.205942,-666.185348,-9806.022374
849.455258,1924.535449,-370.102971,-9806.022374
849.455578,1850.514855,370.102971,-10112.460574
849.455898,592.164754,1776.494261,-11031.775171
849.456218,222.061783,1776.494261,-9806.022374
849.456538,888.247130,1628.453072,-10112.460574
849.456858,1628.453072,740.205942,-10112.460574
849.457177,1258.350101,370.102971,-9576.193725
849.457497,-1110.308913,-666.185348,-9882.631924
849.457817,148.041188,148.041188,-9729.412825
849.458137,592.164754,1924.535449,-9882.631924
849.458457,296.082377,2664.741391,-10955.165621
849.458777,-148.041188,1554.432478,-9806.022374
849.459097,0.000000,0.000000,-10112.460574
849.459417,222.061783,-1184.329507,-9882.631924
849.459736,962.267725,-740.205942,-10189.070123
849.460056,1628.453072,0.000000,-11031.775171
849.460376,1480.411884,1776.494261,-10342.289223
849.460696,666.185348,1702.473667,-10495.508323
849.461016,0.000000,1554.432478,-9652.803275
849.461336,74.020594,740.205942,-10572.117872
849.461655,0.000000,-666.185348,-9576.193725
849.461975,1258.350101,-444.123565,-10265.679673
849.462295,3478.967927,-666.185348,-10418.898773
849.462615,2442.679609,-148.041188,-9729.412825
849.462935,-222.061783,1258.350101,-10342.289223
849.463255,-444.123565,666.185348,-9806.022374
849.463574,666.185348,444.123565,-10342.289223
849.463894,1406.391290,296.082377,-10265.679673
849.464214,1258.350101,0.000000,-10035.851024
849.464534,1554.432478,0.000000,-10572.117872
849.464854,814.226536,148.041188,-10418.898773
849.465174,-1258.350101,296.082377,-10112.460574
849.465493,-1480.411884,296.082377,-10189.070123
849.465813,296.082377,222.061783,-9959.241474
849.466133,740.205942,-370.102971,-10189.070123
849.466453,1110.308913,-1480.411884,-10418.898773
849.466773,1406.391290,-1480.411884,-10189.070123
849.467093,740.205942,-296.082377,-11414.822920
849.467412,-370.102971,814.226536,-10189.070123
849.467732,0.000000,1554.432478,-9959.241474
849.468052,666.185348,1036.288319,-10418.898773
849.468372,518.144159,0.000000,-10265.679673
849.468692,666.185348,-740.205942,-10572.117872
849.469012,962.267725,-1776.494261,-10112.460574
849.469331,-444.123565,-148.041188,-9729.412825
849.469651,-1332.370696,1110.308913,-10648.727422
849.469971,-666.185348,2442.679609,-10189.070123
849.470291,-148.041188,1924.535449,-10189.070123
849.470611,222.061783,444.123565,-10418.898773
849.470931,1480.411884,-1184.329507,-9959.241474
849.471250,740.205942,-1036.288319,-10878.556072
849.471570,-592.164754,-962.267725,-9882.631924
849.471890,0.000000,-444.123565,-9729.412825
849.472210,0.000000,0.000000,-10035.851024
849.472530,518.144159,-814.226536,-10189.070123
849.472850,-518.144159,-444.123565,-10878.556072
849.473169,370.102971,-1184.329507,-9959.241474
849.473489,814.226536,148.041188,-10265.679673
849.473809,814.226536,1554.432478,-9959.241474
849.474129,-148.041188,962.267725,-10112.460574
849.474449,222.061783,-888.247130,-10265.679673
849.474769,222.061783,-2368.659014,-9652.803275
849.475088,-666.185348,-2590.720797,-9806.022374
849.475408,-1036.288319,-1480.411884,-9806.022374
849.475728,-962.267725,888.247130,-9959.241474
849.476048,-888.247130,2886.803174,-10112.460574
849.476368,666.185348,3478.967927,-9806.022374
849.476688,1776.494261,1480.411884,-10035.851024
849.477007,2368.659014,-370.102971,-8810.098227
849.477327,666.185348,-2220.617826,-9882.631924
849.477647,1702.473667,-2664.741391,-9806.022374
849.477967,1184.329507,-370.102971,-10112.460574
849.478287,-1480.411884,1480.411884,-9959.241474
849.478607,-1406.391290,3182.885551,-9499.584175
849.478926,-1110.308913,2368.659014,-10342.289223
849.479246,2072.576638,2072.576638,-10572.117872
849.479566,1924.535449,370.102971,-10801.946522
849.479886,1480.411884,-888.247130,-9882.631924
849.480206,444.123565,-1406.391290,-10112.460574
849.480526,-296.082377,0.000000,-10265.679673
849.480845,444.123565,296.082377,-9729.412825
849.481165,444.123565,1480.411884,-10955.165621
849.481485,962.267725,2738.761985,-10035.851024
849.481805,1406.391290,2960.823768,-11108.384721
849.482125,2664.741391,2812.782580,-11108.384721
849.482445,2368.659014,3182.885551,-10878.556072
849.482764,370.102971,740.205942,-10035.851024
849.483084,296.082377,814.226536,-10035.851024
849.483404,1480.411884,444.123565,-9882.631924
849.483724,222.061783,1406.391290,-9806.022374
849.484044,888.247130,2072.576638,-10112.460574
849.484364,1184.329507,2516.700203,-10342.289223
849.484683,1998.556043,1554.432478,-9882.631924
849.485003,1480.411884,-370.102971,-9806.022374
849.485323,1480.411884,-1702.473667,-9422.974625
849.485643,1924.535449,-1628.453072,-8963.317327
849.485963,1554.432478,-1480.411884,-9652.803275
849.486283,370.102971,-740.205942,-9882.631924
849.486602,0.000000,-148.041188,-10342.289223
849.486922,888.247130,888.247130,-9269.755526
849.487242,518.144159,1258.350101,-9806.022374
849.487562,518.144159,2368.659014,-10418.898773
849.487882,444.123565,2146.597232,-10189.070123
849.488202,-814.226536,962.267725,-10495.508323
849.488521,-592.164754,-518.144159,-9806.022374
849.488841,370.102971,-1332.370696,-9729.412825
849.489161,518.144159,-1554.432478,-10112.460574
849.489481,-444.123565,-1332.370696,-10189.070123
849.489801,-740.205942,444.123565,-9959.241474
849.490121,-222.061783,962.267725,-9882.631924
849.490440,740.205942,1628.453072,-10878.556072
849.490760,666.185348,370.102971,-10035.851024
849.491080,296.082377,-444.123565,-10418.898773
849.491400,-888.247130,-518.144159,-10342.289223
849.491720,-1332.370696,-1332.370696,-9806.022374
849.492040,-592.164754,-592.164754,-9729.412825
849.492359,-444.123565,740.205942,-10035.851024
849.492679,-592.164754,962.267725,-9959.241474
849.492999,592.164754,592.164754,-10265.679673
849.493319,3256.906145,-518.144159,-10265.679673
849.493639,2146.597232,-814.226536,-10112.460574
849.493959,222.061783,-814.226536,-9729.412825
849.494278,-296.082377,-888.247130,-10035.851024
849.494598,740.205942,-370.102971,-9806.022374
849.494918,0.000000,222.061783,-10265.679673
849.495238,-444.123565,-1184.329507,-9806.022374
849.495558,518.144159,-518.144159,-10265.679673
849.495878,518.144159,-296.082377,-9806.022374
849.496197,-518.144159,296.082377,-9959.241474
849.496517,-962.267725,222.061783,-10112.460574
849.496837,-740.205942,592.164754,-9806.022374
849.497157,444.123565,-518.144159,-10418.898773
849.497477,2368.659014,-1554.432478,-9882.631924
849.497797,1480.411884,-740.205942,-10725.336972
849.498116,-592.164754,518.144159,-10342.289223
849.498436,-1776.494261,2960.823768,-9652.803275
849.498756,592.164754,2072.576638,-10725.336972
849.499076,888.247130,1776.494261,-10265.679673
849.499396,296.082377,-296.082377,-10342.289223
849.499716,740.205942,-1998.556043,-10878.556072
849.500035,-148.041188,-2072.576638,-10418.898773
849.500355,296.082377,-1110.308913,-9806.022374
849.500675,-222.061783,814.226536,-9806.022374
849.500995,-518.144159,1184.329507,-10495.508323
849.501315,1332.370696,1184.329507,-11874.480219
849.501635,1998.556043,814.226536,-10572.117872
849.501954,1628.453072,148.041188,-9882.631924
849.502274,-148.041188,592.164754,-10342.289223
849.502594,-148.041188,-148.041188,-10418.898773
849.502914,518.144159,0.000000,-9576.193725
849.503234,2220.617826,74.020594,-10189.070123
849.503554,740.205942,740.205942,-9882.631924
849.503873,814.226536,888.247130,-9499.584175
849.504193,3330.926739,-148.041188,-10112.460574
849.504513,4293.194464,1184.329507,-9729.412825
849.504833,2146.597232,1850.514855,-9959.241474
849.505153,-814.226536,962.267725,-9882.631924
849.505473,-740.205942,444.123565,-9806.022374
849.505792,0.000000,0.000000,-9959.241474
849.506112,222.061783,0.000000,-10265.679673
849.506432,296.082377,0.000000,-10035.851024
849.506752,814.226536,1554.432478,-10265.679673
849.507072,1036.288319,1702.473667,-10112.460574
849.507392,0.000000,1628.453072,-10035.851024
849.507711,222.061783,370.102971,-10265.679673
849.508031,370.102971,-518.144159,-9959.241474
849.508351,1628.453072,-888.247130,-10265.679673
849.508671,1480.411884,-222.061783,-10112.460574
849.508991,444.123565,518.144159,-10035.851024
849.509311,296.082377,2146.597232,-10035.851024
849.509630,1036.288319,2590.720797,-9959.241474
849.509950,1776.494261,2368.659014,-10725.336972
849.510270,814.226536,222.061783,-9882.631924
849.510590,222.061783,-888.247130,-10112.460574
849.510910,-370.102971,-2368.659014,-10035.851024
849.511230,-296.082377,-1924.535449,-9269.755526
849.511549,-2368.659014,-148.041188,-9422.974625
849.511869,-1924.535449,1332.370696,-9499.584175
849.512189,-592.164754,2146.597232,-10189.070123
849.512509,370.102971,2516.700203,-10572.117872
849.512829,1110.308913,74.020594,-9806.022374
849.513149,2368.659014,-518.144159,-10189.070123
849.513468,1332.370696,-370.102971,-10035.851024
849.513788,518.144159,-592.164754,-9806.022374
849.514108,-296.082377,-592.164754,-9499.584175
849.514428,74.020594,0.000000,-9729.412825
849.514748,0.000000,0.000000,-10112.460574
849.515068,814.226536,0.000000,-10112.460574
849.515387,1110.308913,814.226536,-10725.336972
849.515707,888.247130,0.000000,-10189.070123
849.516027,-518.144159,814.226536,-10112.460574
849.516347,-592.164754,-888.247130,-10035.851024
849.516667,592.164754,-1554.432478,-10265.679673
849.516987,0.000000,-2146.597232,-10495.508323
849.517306,1184.329507,-1702.473667,-9806.022374
849.517626,1406.391290,666.185348,-10189.070123
849.517946,1258.350101,2590.720797,-10648.727422
849.518266,888.247130,3256.906145,-10342.289223
849.518586,962.267725,1480.411884,-10725.336972
849.518906,2960.823768,-1258.350101,-10035.851024
849.519225,444.123565,-1924.535449,-10418.898773
849.519545,-888.247130,-2664.741391,-10189.070123
849.519865,-592.164754,-1850.514855,-10189.070123
849.520185,-740.205942,-592.164754,-9959.241474
849.520505,-370.102971,2220.617826,-10189.070123
849.520825,370.102971,1998.556043,-10342.289223
849.521144,2220.617826,1110.308913,-8656.879127
849.521464,1036.288319,-296.082377,-10035.851024
849.521784,444.123565,-1258.350101,-9806.022374
849.522104,-222.061783,-1110.308913,-9959.241474
849.522424,-740.205942,-740.205942,-9346.365076
849.522744,-296.082377,-666.185348,-9576.193725
849.523063,-444.123565,-1258.350101,-9652.803275
849.523383,-296.082377,-296.082377,-9959.241474
849.523703,1184.329507,518.144159,-10342.289223
849.524023,2368.659014,1924.535449,-10189.070123
849.524343,1406.391290,2368.659014,-10342.289223
849.524663,-1406.391290,1924.535449,-10112.460574
849.524982,-2368.659014,74.020594,-9806.022374
849.525302,-1406.391290,-1554.432478,-9806.022374
849.525622,222.061783,-1554.432478,-9729.412825
849.525942,1184.329507,222.061783,-10189.070123
849.526262,2368.659014,1406.391290,-10265.679673
849.526582,3034.844362,2738.761985,-10955.165621
849.526901,1702.473667,2590.720797,-10265.679673
849.527221,-370.102971,2368.659014,-10112.460574
849.527541,-888.247130,2072.576638,-10418.898773
849.527861,370.102971,592.164754,-9959.241474
849.528181,518.144159,-296.082377,-10035.851024
849.528501,1554.432478,444.123565,-10418.898773
849.528820,2294.638420,1554.432478,-10265.679673
849.529140,2294.638420,3034.844362,-10495.508323
849.529460,2368.659014,2886.803174,-10265.679673
849.529780,2368.659014,1554.432478,-10878.556072
849.530100,1406.391290,296.082377,-9959.241474
849.530420,0.000000,-1184.329507,-9806.022374
849.530739,888.247130,-1258.350101,-9959.241474
849.531059,444.123565,0.000000,-10035.851024
849.531379,444.123565,444.123565,-9959.241474
849.531699,-444.123565,1110.308913,-9806.022374
849.532019,222.061783,814.226536,-10572.117872
849.532339,1258.350101,1332.370696,-10572.117872
849.532658,1036.288319,592.164754,-10418.898773
849.532978,0.000000,1480.411884,-10495.508323
849.533298,-740.205942,1480.411884,-9882.631924
849.533618,-370.102971,1554.432478,-9959.241474
849.533938,-370.102971,814.226536,-9652.803275
849.534258,1036.288319,148.041188,-10189.070123
849.534577,1702.473667,-814.226536,-9959.241474
849.534897,1776.494261,-740.205942,-9806.022374
849.535217,2294.638420,-296.082377,-10112.460574
849.535537,-148.041188,1036.288319,-9806.022374
849.535857,-1850.514855,1036.288319,-9882.631924
849.536177,-2220.617826,222.061783,-8963.317327
849.536496,-518.144159,-1554.432478,-9806.022374
849.536816,1110.308913,-2812.782580,-9346.365076
849.537136,592.164754,-1850.514855,-9499.584175
849.537456,1776.494261,0.000000,-10342.289223
849.537776,1110.308913,444.123565,-9729.412825
849.538096,0.000000,1332.370696,-9806.022374
849.538415,-1998.556043,888.247130,-10112.460574
849.538735,-1554.432478,518.144159,-9959.241474
849.539055,74.020594,222.061783,-10418.898773
849.539375,1776.494261,0.000000,-9959.241474
849.539695,1998.556043,592.164754,-9499.584175
849.540015,962.267725,814.226536,-9959.241474
849.540334,-592.164754,74.020594,-9959.241474
849.540654,-666.185348,-1628.453072,-10342.289223
849.540974,222.061783,-2368.659014,-10495.508323
849.541294,0.000000,-2220.617826,-9959.241474
849.541614,-592.164754,0.000000,-10189.070123
849.541934,-1184.329507,1332.370696,-10801.946522
849.542253,-1554.432478,1184.329507,-10342.289223
849.542573,-1628.453072,740.205942,-10648.727422
849.542893,-814.226536,-1702.473667,-9959.241474
849.543213,1480.411884,-2368.659014,-10189.070123
849.543533,2368.659014,-1702.473667,-10418.898773
849.543853,2442.679609,222.061783,-10189.070123
849.544172,814.226536,2442.679609,-10265.679673
849.544492,-1258.350101,2886.803174,-10112.460574
849.544812,-1628.453072,1184.329507,-9806.022374
849.545132,0.000000,-1406.391290,-9652.803275
849.545452,1776.494261,-2738.761985,-9422.974625
849.545772,2072.576638,-3627.009116,-9652.803275
849.546091,1554.432478,-1998.556043,-9576.193725
849.546411,1110.308913,1258.350101,-10189.070123
849.546731,-148.041188,2960.823768,-9116.536426
849.547051,-962.267725,4145.153275,-9806.022374
849.547371,296.082377,2442.679609,-10112.460574
849.547691,2590.720797,-444.123565,-9882.631924
849.548010,2738.761985,-3108.864956,-9652.803275
849.548330,1628.453072,-2812.782580,-9269.755526
849.548650,1628.453072,-444.123565,-9959.241474
849.548970,1924.535449,1628.453072,-10418.898773
849.549290,1776.494261,3404.947333,-10342.289223
849.549610,1702.473667,2812.782580,-10572.117872
849.549929,1850.514855,1554.432478,-10572.117872
849.550249,2368.659014,296.082377,-10189.070123
849.550569,1480.411884,-296.082377,-11108.384721
849.550889,592.164754,0.000000,-10189.070123
849.551209,-592.164754,666.185348,-10342.289223
849.551529,-740.205942,74.020594,-9576.193725
849.551848,2664.741391,1184.329507,-10342.289223
849.552168,1850.514855,1776.494261,-10265.679673
849.552488,1332.370696,1776.494261,-10572.117872
849.552808,1554.432478,1924.535449,-10572.117872
849.553128,1554.432478,1332.370696,-10189.070123
849.553448,-592.164754,444.123565,-9729.412825
849.553767,-1628.453072,-592.164754,-9652.803275
849.554087,0.000000,-666.185348,-9959.241474
849.554407,666.185348,-592.164754,-10035.851024
849.554727,1480.411884,592.164754,-9806.022374
849.555047,1258.350101,1850.514855,-10342.289223
849.555367,0.000000,1850.514855,-10801.946522
849.555686,-148.041188,1702.473667,-9959.241474
849.556006,0.000000,888.247130,-9882.631924
849.556326,740.205942,148.041188,-10265.679673
849.556646,0.000000,-444.123565,-9576.193725
849.556966,0.000000,-1332.370696,-9882.631924
849.557286,888.247130,0.000000,-10189.070123
849.557605,-740.205942,666.185348,-9729.412825
849.557925,-2590.720797,1628.453072,-10418.898773
849.558245,-2960.823768,518.144159,-9499.584175
849.558565,-1110.308913,888.247130,-10418.898773
849.558885,1628.453072,-148.041188,-10265.679673
849.559205,1406.391290,-592.164754,-10035.851024
849.559525,0.000000,-1036.288319,-10418.898773
849.559844,-370.102971,444.123565,-10035.851024
849.560164,0.000000,1776.494261,-10112.460574
849.560484,1036.288319,1628.453072,-10725.336972
849.560804,370.102971,666.185348,-10342.289223
849.561124,-666.185348,-222.061783,-10495.508323
849.561444,1776.494261,-1554.432478,-10035.851024
849.561764,2146.597232,666.185348,-10725.336972
849.562083,-1628.453072,1480.411884,-10342.289223
849.562403,-2516.700203,1628.453072,-9193.145976
849.562723,-1776.494261,0.000000,-10035.851024
849.563043,666.185348,-1332.370696,-9806.022374
849.563363,1628.453072,-1850.514855,-9806.022374
849.563683,1332.370696,-1036.288319,-9959.241474
849.564002,1776.494261,888.247130,-10342.289223
849.564322,1406.391290,2516.700203,-10342.289223
849.564642,-296.082377,1850.514855,-10265.679673
849.564962,-1702.473667,148.041188,-9652.803275
849.565282,-148.041188,-1258.350101,-9806.022374
849.565602,1554.432478,-2738.761985,-9729.412825
849.565922,2072.576638,-1480.411884,-9652.803275
849.566241,962.267725,444.123565,-10112.460574
849.566561,222.061783,1924.535449,-10035.851024
849.566881,0.000000,370.102971,-9576.193725
849.567201,666.185348,148.041188,-10418.898773
849.567521,592.164754,-592.164754,-10189.070123
849.567841,888.247130,-296.082377,-10189.070123
849.568161,2442.679609,518.144159,-9729.412825
849.568480,2516.700203,1110.308913,-10572.117872
849.568800,888.247130,1998.556043,-10418.898773
849.569120,-962.267725,1702.473667,-10418.898773
849.569440,0.000000,0.000000,-10112.460574
849.569760,666.185348,-148.041188,-9959.241474
849.570080,1924.535449,296.082377,-10342.289223
849.570399,2516.700203,296.082377,-10265.679673
849.570719,1406.391290,1258.350101,-10495.508323
849.571039,-592.164754,1998.556043,-10035.851024
849.571359,-740.205942,1850.514855,-10112.460574
849.571679,888.247130,1924.535449,-10418.898773
849.571999,1554.432478,814.226536,-9806.022374
849.572319,1406.391290,518.144159,-9959.241474
849.572638,2294.638420,0.000000,-9959.241474
849.572958,1554.432478,148.041188,-9959.241474
849.573278,-296.082377,0.000000,-9806.022374
849.573598,148.041188,888.247130,-9422.974625
849.573918,1258.350101,1036.288319,-10035.851024
849.574238,1850.514855,296.082377,-9959.241474
849.574558,1554.432478,-888.247130,-10342.289223
849.574877,962.267725,-1110.308913,-9806.022374
849.575197,0.000000,0.000000,-9882.631924
849.575517,0.000000,1110.308913,-10265.679673
849.575837,-296.082377,1258.350101,-9959.241474
849.576157,-518.144159,370.102971,-10189.070123
849.576477,740.205942,-296.082377,-10342.289223
849.576796,1110.308913,-148.041188,-10112.460574
849.577116,1332.370696,-814.226536,-10648.727422
849.577436,0.000000,518.144159,-10342.289223
849.577756,-1184.329507,2146.597232,-10801.946522
849.578076,-370.102971,2590.720797,-11031.775171
849.578396,370.102971,888.247130,-10801.946522
849.578716,888.247130,74.020594,-10418.898773
849.579035,888.247130,518.144159,-10189.070123
849.579355,1036.288319,1850.514855,-10265.679673
849.579675,592.164754,2294.638420,-9806.022374
849.579995,222.061783,1332.370696,-9729.412825
849.580315,74.020594,-1110.308913,-9193.145976
849.580635,1036.288319,-2738.761985,-9116.536426
849.580954,1184.329507,-2664.741391,-9269.755526
849.581274,962.267725,-1480.411884,-9499.584175
849.581594,1480.411884,518.144159,-9576.193725
849.581914,296.082377,2886.803174,-9959.241474
849.582234,-1628.453072,3404.947333,-9806.022374
849.582554,-2072.576638,2590.720797,-10955.165621
849.582874,-370.102971,-222.061783,-9499.584175
849.583193,1036.288319,-2590.720797,-9652.803275
849.583513,1850.514855,-2738.761985,-9652.803275
849.583833,2220.617826,-1850.514855,-9806.022374
849.584153,74.020594,0.000000,-10112.460574
849.584473,-1406.391290,1406.391290,-10035.851024
849.584793,-1036.288319,2220.617826,-10572.117872
849.585113,0.000000,962.267725,-10495.508323
849.585432,814.226536,-814.226536,-10648.727422
849.585752,-740.205942,-814.226536,-10342.289223
849.586072,74.020594,-296.082377,-10418.898773
849.586392,740.205942,370.102971,-11108.384721
849.586712,518.144159,518.144159,-10265.679673
849.587032,-518.144159,518.144159,-10801.946522
849.587351,-666.185348,370.102971,-10189.070123
849.587671,444.123565,444.123565,-10801.946522
849.587991,1406.391290,148.041188,-11031.775171
849.588311,1628.453072,666.185348,-11184.994271
849.588631,0.000000,1258.350101,-10572.117872
849.588951,-1258.350101,1628.453072,-10342.289223
849.589271,0.000000,592.164754,-10342.289223
849.589590,0.000000,74.020594,-10189.070123
849.589910,1184.329507,-592.164754,-9806.022374
849.590230,1702.473667,74.020594,-9882.631924
849.590550,1184.329507,814.226536,-9652.803275
849.590870,888.247130,1480.411884,-9652.803275
849.591190,-222.061783,1258.350101,-9576.193725
849.591510,-888.247130,-222.061783,-9193.145976
849.591829,-444.123565,-2442.679609,-8733.488677
849.592149,444.123565,-2886.803174,-9422.974625
849.592469,2072.576638,-2516.700203,-9499.584175
849.592789,2368.659014,0.000000,-10035.851024
849.593109,1110.308913,1554.432478,-9959.241474
849.593429,-444.123565,4367.215058,-9652.803275
849.593748,222.061783,2960.823768,-10418.898773
849.594068,1924.535449,1554.432478,-10035.851024
849.594388,2590.720797,-1258.350101,-10572.117872
849.594708,3627.009116,-2516.700203,-9882.631924
849.595028,2738.761985,-1924.535449,-10265.679673
849.595348,1184.329507,-148.041188,-9346.365076
849.595668,-888.247130,1998.556043,-10035.851024
849.595987,-1480.411884,2738.761985,-10878.556072
849.596307,-222.061783,2368.659014,-10342.289223
849.596627,518.144159,814.226536,-10342.289223
849.596947,1480.411884,0.000000,-10189.070123
849.597267,518.144159,-148.041188,-10725.336972
849.597587,-296.082377,518.144159,-10572.117872
849.597907,-1406.391290,1480.411884,-10035.851024
849.598226,-592.164754,1776.494261,-10112.460574
849.598546,592.164754,1554.432478,-10265.679673
849.598866,2146.597232,1036.288319,-10648.727422
849.599186,4441.235652,962.267725,-10035.851024
849.599506,3256.906145,962.267725,-11031.775171
849.599826,1332.370696,814.226536,-9806.022374
849.600145,-740.205942,222.061783,-9652.803275
849.600465,-666.185348,-518.144159,-9806.022374
849.600785,-518.144159,-518.144159,-9499.584175
849.601105,444.123565,-518.144159,-9576.193725
849.601425,962.267725,74.020594,-9576.193725
849.601745,592.164754,740.205942,-9806.022374
849.602065,-518.144159,1628.453072,-9806.022374
849.602384,-888.247130,370.102971,-9039.926876
849.602704,-444.123565,222.061783,-9576.193725
849.603024,814.226536,-1110.308913,-9576.193725
849.603344,2220.617826,-2368.659014,-9729.412825
849.603664,2664.741391,-1332.370696,-9499.584175
849.603984,148.041188,-444.123565,-9806.022374
849.604303,-1332.370696,1184.329507,-9806.022374
849.604623,-740.205942,2442.679609,-10112.460574
849.604943,592.164754,2886.803174,-10265.679673
849.605263,592.164754,1702.473667,-10112.460574
849.605583,0.000000,296.082377,-10495.508323
849.605903,0.000000,-888.247130,-10495.508323
849.606223,148.041188,-962.267725,-10572.117872
849.606542,-814.226536,-592.164754,-10112.460574
849.606862,-740.205942,148.041188,-10035.851024
849.607182,-592.164754,962.267725,-10572.117872
849.607502,-1184.329507,1258.350101,-10648.727422
849.607822,-1110.308913,666.185348,-10495.508323
849.608142,148.041188,888.247130,-11491.432470
849.608462,962.267725,0.000000,-10495.508323
849.608781,518.144159,1036.288319,-10265.679673
849.609101,-740.205942,222.061783,-10112.460574
849.609421,148.041188,74.020594,-11338.213370
849.609741,666.185348,-444.123565,-10265.679673
849.610061,1628.453072,-666.185348,-9806.022374
849.610381,1110.308913,0.000000,-9959.241474
849.610700,74.020594,592.164754,-9806.022374
849.611020,592.164754,1184.329507,-9346.365076
849.611340,-444.123565,0.000000,-9882.631924
849.611660,-296.082377,-666.185348,-9652.803275
849.611980,-370.102971,-1480.411884,-9499.584175
849.612300,740.205942,-1184.329507,-9806.022374
849.612620,1480.411884,0.000000,-10112.460574
849.612939,740.205942,1184.329507,-9806.022374
849.613259,592.164754,1702.473667,-10035.851024
849.613579,1110.308913,888.247130,-9499.584175
849.613899,2368.659014,1110.308913,-10265.679673
849.614219,3404.947333,592.164754,-10112.460574
849.614539,2812.782580,666.185348,-10189.070123
849.614859,2368.659014,1036.288319,-10495.508323
849.615178,0.000000,1406.391290,-9882.631924
849.615498,-666.185348,740.205942,-10035.851024
849.615818,0.000000,370.102971,-10035.851024
849.616138,444.123565,814.226536,-10189.070123
849.616458,1628.453072,0.000000,-10112.460574
849.616778,1998.556043,0.000000,-10265.679673
849.617097,1702.473667,-148.041188,-10342.289223
849.617417,962.267725,592.164754,-10342.289223
849.617737,-148.041188,444.123565,-10035.851024
849.618057,666.185348,-370.102971,-9959.241474
849.618377,1110.308913,148.041188,-9729.412825
849.618697,370.102971,592.164754,-10495.508323
849.619017,1628.453072,0.000000,-10035.851024
849.619336,1184.329507,74.020594,-10801.946522
849.619656,888.247130,0.000000,-10035.851024
849.619976,-518.144159,0.000000,-10035.851024
849.620296,-814.226536,-444.123565,-10418.898773
849.620616,-518.144159,-666.185348,-9806.022374
849.620936,-444.123565,-1332.370696,-9422.974625
849.621255,74.020594,-962.267725,-10418.898773
849.621575,-962.267725,0.000000,-10418.898773
849.621895,-1924.535449,1332.370696,-10648.727422
849.622215,-1036.288319,1554.432478,-9729.412825
849.622535,1554.432478,2294.638420,-10112.460574
849.622855,2294.638420,222.061783,-10265.679673
849.623175,2590.720797,-2072.576638,-10342.289223
849.623494,2960.823768,-3552.988522,-9882.631924
849.623814,666.185348,-2072.576638,-9269.755526
849.624134,-1110.308913,0.000000,-9806.022374
849.624454,-1924.535449,1332.370696,-9806.022374
849.624774,-814.226536,1924.535449,-10189.070123
849.625094,370.102971,1406.391290,-10725.336972
849.625414,962.267725,814.226536,-10112.460574
849.625733,814.226536,-444.123565,-10342.289223
849.626053,-666.185348,-740.205942,-9806.022374
849.626373,-888.247130,148.041188,-9729.412825
849.626693,666.185348,-592.164754,-9576.193725
849.627013,1110.308913,222.061783,-9806.022374
849.627333,1776.494261,-222.061783,-10112.460574
849.627652,2220.617826,-148.041188,-9576.193725
849.627972,4663.297435,296.082377,-10342.289223
849.628292,3627.009116,2146.597232,-10418.898773
849.628612,888.247130,2220.617826,-9806.022374
849.628932,-1702.473667,1036.288319,-10342.289223
849.629252,-1776.494261,-148.041188,-9652.803275
849.629572,-518.144159,-1110.308913,-9652.803275
849.629891,444.123565,-740.205942,-10265.679673
849.630211,74.020594,296.082377,-10418.898773
849.630531,-518.144159,1776.494261,-10342.289223
849.630851,-1554.432478,2220.617826,-9346.365076
849.631171,-740.205942,1480.411884,-9806.022374
849.631491,-666.185348,444.123565,-10572.117872
849.631811,-1184.329507,-888.247130,-10035.851024
849.632130,0.000000,-1036.288319,-10035.851024
849.632450,1924.535449,-740.205942,-10189.070123
849.632770,1332.370696,0.000000,-9806.022374
849.633090,-296.082377,1184.329507,-10418.898773
849.633410,-666.185348,1554.432478,-10342.289223
849.633730,592.164754,2738.761985,-10572.117872
849.634049,1332.370696,1258.350101,-10112.460574
849.634369,1998.556043,-370.102971,-9806.022374
849.634689,592.164754,-1036.288319,-9959.241474
849.635009,0.000000,-370.102971,-10572.117872
849.635329,-962.267725,222.061783,-10112.460574
849.635649,74.020594,1036.288319,-10035.851024
849.635969,1480.411884,1702.473667,-10342.289223
849.636288,1554.432478,2220.617826,-10189.070123
849.636608,888.247130,1998.556043,-10189.070123
849.636928,666.185348,1332.370696,-9959.241474
849.637248,370.102971,1406.391290,-9806.022374
849.637568,1036.288319,888.247130,-9729.412825
849.637888,2960.823768,-814.226536,-9499.584175
849.638208,2442.679609,-888.247130,-9652.803275
849.638527,1110.308913,-74.020594,-9499.584175
849.638847,962.267725,1258.350101,-10035.851024
849.639167,1406.391290,2146.597232,-10265.679673
849.639487,1480.411884,2664.741391,-10418.898773
849.639807,1554.432478,2516.700203,-10112.460574
849.640127,814.226536,74.020594,-10265.679673
849.640446,-444.123565,-1554.432478,-9576.193725
849.640766,-1850.514855,-1184.329507,-9652.803275
849.641086,518.144159,-888.247130,-9882.631924
849.641406,1554.432478,148.041188,-10342.289223
849.641726,1628.453072,962.267725,-10112.460574
849.642046,1184.329507,1258.350101,-10418.898773
849.642366,1332.370696,518.144159,-10265.679673
849.642685,222.061783,518.144159,-10265.679673
849.643005,-666.185348,-148.041188,-10418.898773
849.643325,74.020594,-1332.370696,-9729.412825
849.643645,148.041188,-888.247130,-11951.089769
849.643965,740.205942,-518.144159,-10265.679673
849.644285,-222.061783,-148.041188,-10265.679673
849.644604,444.123565,592.164754,-10801.946522
849.644924,518.144159,888.247130,-9882.631924
849.645244,592.164754,592.164754,-10725.336972
849.645564,740.205942,370.102971,-10189.070123
849.645884,-1332.370696,-518.144159,-9959.241474
849.646204,-2738.761985,-444.123565,-9959.241474
849.646524,-1554.432478,-1184.329507,-9806.022374
849.646843,-592.164754,-148.041188,-10112.460574
849.647163,1110.308913,-222.061783,-9882.631924
849.647483,740.205942,148.041188,-10418.898773
849.647803,888.247130,0.000000,-9882.631924
849.648123,888.247130,-740.205942,-9576.193725
849.648443,-148.041188,-592.164754,-9729.412825
849.648763,296.082377,0.000000,-9882.631924
849.649082,370.102971,-592.164754,-9806.022374
849.649402,814.226536,-1702.473667,-9499.584175
849.649722,1628.453072,-1702.473667,-9806.022374
849.650042,2368.659014,-1110.308913,-10189.070123
849.650362,1332.370696,592.164754,-10418.898773
849.650682,-592.164754,2368.659014,-9959.241474
849.651001,-592.164754,2220.617826,-10342.289223
849.651321,0.000000,814.226536,-10572.117872
849.651641,-1628.453072,-1776.494261,-9882.631924
849.651961,-740.205942,-2886.803174,-9959.241474
849.652281,1554.432478,-2516.700203,-10035.851024
849.652601,1702.473667,740.205942,-10495.508323
849.652921,1850.514855,3330.926739,-10955.165621
849.653240,962.267725,3108.864956,-10572.117872
849.653560,1110.308913,2738.761985,-10418.898773
849.653880,1702.473667,1628.453072,-10342.289223
849.654200,2516.700203,1406.391290,-10495.508323
849.654520,3478.967927,1258.350101,-10648.727422
849.654840,1332.370696,1702.473667,-10418.898773
849.655160,1036.288319,1036.288319,-10495.508323
849.655479,1184.329507,592.164754,-9806.022374
849.655799,962.267725,1110.308913,-10035.851024
849.656119,1184.329507,518.144159,-9882.631924
849.656439,1110.308913,1406.391290,-9959.241474
849.656759,0.000000,1702.473667,-10189.070123
849.657079,-1702.473667,1258.350101,-9576.193725
849.657398,-2294.638420,740.205942,-9269.755526
849.657718,-814.226536,0.000000,-9576.193725
849.658038,148.041188,222.061783,-9346.365076
849.658358,1184.329507,-518.144159,-9882.631924
849.658678,1258.350101,444.123565,-9652.803275
849.658998,740.205942,518.144159,-9959.241474
849.659318,-518.144159,1406.391290,-9576.193725
849.659637,-1258.350101,1184.329507,-9729.412825
849.659957,-1110.308913,740.205942,-9882.631924
849.660277,-1036.288319,518.144159,-10112.460574
849.660597,-444.123565,-296.082377,-9806.022374
849.660917,148.041188,-296.082377,-9882.631924
849.661237,1480.411884,0.000000,-10265.679673
849.661556,962.267725,1702.473667,-10189.070123
849.661876,518.144159,1628.453072,-10265.679673
849.662196,1036.288319,962.267725,-10112.460574
849.662516,370.102971,0.000000,-10189.070123
849.662836,-740.205942,-518.144159,-10265.679673
849.663156,-1258.350101,-444.123565,-10112.460574
849.663475,-1258.350101,-148.041188,-10265.679673
849.663795,222.061783,74.020594,-10572.117872
849.664115,518.144159,-518.144159,-10418.898773
849.664435,1332.370696,-1332.370696,-10189.070123
849.664755,1110.308913,-1776.494261,-9882.631924
849.665075,370.102971,-962.267725,-10342.289223
849.665395,-370.102971,-1480.411884,-10112.460574
849.665714,814.226536,148.041188,-10495.508323
849.666034,1184.329507,592.164754,-10189.070123
849.666354,1110.308913,296.082377,-10035.851024
849.666674,2516.700203,-1480.411884,-9806.022374
849.666994,3034.844362,-2368.659014,-10342.289223
849.667314,1776.494261,-3552.988522,-9806.022374
849.667633,1184.329507,-2886.803174,-9729.412825
849.667953,-370.102971,-1258.350101,-10112.460574
849.668273,-666.185348,74.020594,-9576.193725
849.668593,-1924.535449,0.000000,-10035.851024
849.668913,-148.041188,-444.123565,-9806.022374
849.669233,1258.350101,-1184.329507,-11721.261119
849.669552,2812.782580,-1998.556043,-10342.289223
849.669872,3701.029710,-1554.432478,-10189.070123
849.670192,1776.494261,444.123565,-10342.289223
849.670512,-1628.453072,962.267725,-10189.070123
849.670832,-740.205942,888.247130,-10495.508323
849.671152,518.144159,-518.144159,-10265.679673
849.671471,814.226536,-814.226536,-10112.460574
849.671791,-444.123565,-592.164754,-10495.508323
849.672111,0.000000,222.061783,-10801.946522
849.672431,-444.123565,1406.391290,-10725.336972
849.672751,-370.102971,1406.391290,-10418.898773
849.673071,-888.247130,0.000000,-10189.070123
849.673390,-666.185348,-370.102971,-10189.070123
849.673710,1110.308913,-370.102971,-10725.336972
849.674030,222.061783,1110.308913,-10495.508323
849.674350,0.000000,1480.411884,-10418.898773
849.674670,148.041188,1036.288319,-9652.803275
849.674990,1480.411884,518.144159,-9959.241474
849.675310,1332.370696,-148.041188,-9882.631924
849.675629,1332.370696,-1406.391290,-10035.851024
849.675949,222.061783,-518.144159,-9959.241474
849.676269,-1702.473667,1110.308913,-9652.803275
849.676589,-592.164754,2368.659014,-10112.460574
849.676909,148.041188,3182.885551,-10265.679673
849.677229,-444.123565,2442.679609,-9806.022374
849.677548,-592.164754,1554.432478,-9806.022374
849.677868,814.226536,666.185348,-10035.851024
849.678188,1258.350101,-222.061783,-9806.022374
849.678508,2516.700203,148.041188,-10035.851024
849.678828,2590.720797,740.205942,-9959.241474
849.679148,1258.350101,2072.576638,-9806.022374
849.679467,-296.082377,3182.885551,-9729.412825
849.679787,-444.123565,2516.700203,-9959.241474
849.680107,222.061783,1628.453072,-10342.289223
849.680427,-592.164754,-296.082377,-9729.412825
849.680747,1924.535449,-814.226536,-10112.460574
849.681067,3108.864956,1036.288319,-9959.241474
849.681386,1406.391290,2146.597232,-9959.241474
849.681706,666.185348,3256.906145,-10418.898773
849.682026,74.020594,3108.864956,-9729.412825
849.682346,222.061783,1554.432478,-10189.070123
849.682666,-148.041188,-666.185348,-9806.022374
849.682986,1480.411884,-1258.350101,-9882.631924
849.683305,3182.885551,-296.082377,-10418.898773
849.683625,2516.700203,2442.679609,-10035.851024
849.683945,370.102971,4219.173869,-10265.679673
849.684265,0.000000,3775.050304,-10572.117872
849.684585,518.144159,1628.453072,-10418.898773
849.684905,1110.308913,-74.020594,-10572.117872
849.685225,1258.350101,-1184.329507,-9806.022374
849.685544,0.000000,370.102971,-9882.631924
849.685864,-518.144159,1258.350101,-10035.851024
849.686184,370.102971,1110.308913,-10035.851024
849.686504,1628.453072,222.061783,-10035.851024
849.686824,2368.659014,-296.082377,-10112.460574
849.687144,666.185348,-296.082377,-9806.022374
849.687463,0.000000,-370.102971,-9652.803275
849.687783,888.247130,296.082377,-9729.412825
849.688103,518.144159,0.000000,-9959.241474
849.688423,-1110.308913,-1036.288319,-9499.584175
849.688743,-740.205942,-2368.659014,-9806.022374
849.689063,74.020594,-2812.782580,-9806.022374
849.689382,962.267725,-1258.350101,-10418.898773
849.689702,2146.597232,592.164754,-10035.851024
849.690022,1924.535449,1184.329507,-10418.898773
849.690342,888.247130,888.247130,-10112.460574
849.690662,-888.247130,-370.102971,-9116.536426
849.690982,-814.226536,-1924.535449,-10035.851024
849.691301,-1554.432478,-1850.514855,-9806.022374
849.691621,-518.144159,-1850.514855,-9806.022374
849.691941,962.267725,-888.247130,-10265.679673
849.692261,1998.556043,-222.061783,-10495.508323
849.692581,74.020594,592.164754,-10189.070123
849.692901,-2442.679609,888.247130,-10265.679673
849.693220,-1332.370696,370.102971,-10265.679673
849.693540,1406.391290,-888.247130,-10342.289223
849.693860,3034.844362,-1924.535449,-10342.289223
849.694180,2738.761985,-2442.679609,-10189.070123
849.694500,1924.535449,-962.267725,-10265.679673
849.694820,-148.041188,1184.329507,-10495.508323
849.695140,-814.226536,1850.514855,-10572.117872
849.695459,-1850.514855,1702.473667,-10418.898773
849.695779,-1776.494261,-370.102971,-10189.070123
849.696099,-1332.370696,-2368.659014,-10035.851024
849.696419,222.061783,-2516.700203,-10035.851024
849.696739,296.082377,-814.226536,-10112.460574
849.697059,-296.082377,814.226536,-10189.070123
849.697378,-1110.308913,1702.473667,-10189.070123
849.697698,-888.247130,1332.370696,-10035.851024
849.698018,-740.205942,0.000000,-9959.241474
849.698338,222.061783,-518.144159,-10112.460574
849.698658,1332.370696,74.020594,-9959.241474
849.698978,592.164754,888.247130,-9882.631924
849.699297,296.082377,1924.535449,-10189.070123
849.699617,1332.370696,1554.432478,-9959.241474
849.699937,2294.638420,1406.391290,-10265.679673
849.700257,2294.638420,-518.144159,-9882.631924
849.700577,2516.700203,740.205942,-9193.145976
849.700897,2368.659014,2072.576638,-10418.898773
849.701216,0.000000,3108.864956,-9806.022374
849.701536,-1406.391290,3552.988522,-9959.241474
849.701856,-1258.350101,1628.453072,-9576.193725
849.702176,1110.308913,-666.185348,-9346.365076
849.702496,2368.659014,-1554.432478,-10035.851024
849.702816,2886.803174,-148.041188,-9652.803275
849.703135,2516.700203,2368.659014,-10801.946522
849.703455,2146.597232,3552.988522,-11568.042020
849.703775,740.205942,3701.029710,-10648.727422
849.704095,962.267725,2146.597232,-9729.412825
849.704415,1332.370696,148.041188,-9959.241474
849.704735,2442.679609,-1258.350101,-9652.803275
849.705055,3552.988522,-518.144159,-9959.241474
849.705374,1702.473667,518.144159,-10342.289223
849.705694,-296.082377,1332.370696,-9729.412825
849.706014,-814.226536,1554.432478,-9959.241474
849.706334,-370.102971,-148.041188,-10648.727422
849.706654,370.102971,0.000000,-9576.193725
849.706974,0.000000,74.020594,-10648.727422
849.707293,74.020594,740.205942,-9882.631924
849.707613,740.205942,1406.391290,-9882.631924
849.707933,814.226536,1924.535449,-10418.898773
849.708253,444.123565,148.041188,-9806.022374
849.708573,1332.370696,-222.061783,-10342.289223
849.708893,740.205942,-962.267725,-9959.241474
849.709212,-814.226536,-814.226536,-9346.365076
849.709532,-666.185348,-222.061783,-9729.412825
849.709852,-1110.308913,1110.308913,-9959.241474
849.710172,-222.061783,1332.370696,-10265.679673
849.710492,370.102971,1480.411884,-9652.803275
849.710812,370.102971,-666.185348,-10112.460574
849.711131,1332.370696,-1258.350101,-9959.241474
849.711451,1480.411884,-1998.556043,-10189.070123
849.711771,1184.329507,-1776.494261,-9806.022374
849.712091,-962.267725,-222.061783,-9499.584175
849.712411,-2516.700203,444.123565,-9729.412825
849.712731,-2220.617826,1036.288319,-10112.460574
849.713050,296.082377,-444.123565,-10189.070123
849.713370,1036.288319,-1332.370696,-9959.241474
849.713690,1554.432478,-2220.617826,-10112.460574
849.714010,1554.432478,-2146.597232,-9576.193725
849.714330,1110.308913,-518.144159,-10189.070123
849.714650,74.020594,814.226536,-10189.070123
849.714970,-962.267725,1924.535449,-10342.289223
849.715289,-888.247130,666.185348,-10495.508323
849.715609,592.164754,-222.061783,-10112.460574
849.715929,1480.411884,-444.123565,-10648.727422
849.716249,2368.659014,-740.205942,-10495.508323
849.716569,740.205942,0.000000,-10495.508323
849.716889,-444.123565,296.082377,-10725.336972
849.717208,-1332.370696,0.000000,-10112.460574
849.717528,-1036.288319,1110.308913,-10648.727422
849.717848,666.185348,1184.329507,-10418.898773
849.718168,1406.391290,1332.370696,-10265.679673
849.718488,1332.370696,740.205942,-10725.336972
849.718808,888.247130,148.041188,-9806.022374
849.719127,-296.082377,222.061783,-9499.584175
849.719447,0.000000,-1480.411884,-9652.803275
849.719767,222.061783,-592.164754,-9806.022374
849.720087,148.041188,0.000000,-10035.851024
849.720407,1036.288319,296.082377,-10495.508323
849.720727,1258.350101,0.000000,-10035.851024
849.721046,0.000000,222.061783,-9882.631924
849.721366,-1184.329507,592.164754,-9882.631924
849.721686,-814.226536,1628.453072,-9652.803275
849.722006,1184.329507,2072.576638,-11797.870669
849.722326,1702.473667,666.185348,-10112.460574
849.722646,740.205942,-666.185348,-9576.193725
849.722965,-592.164754,-1554.432478,-9882.631924
849.723285,0.000000,-1480.411884,-9346.365076
849.723605,0.000000,1184.329507,-10418.898773
849.723925,370.102971,2368.659014,-10189.070123
849.724245,1924.535449,2960.823768,-10342.289223
849.724565,1554.432478,1924.535449,-10801.946522
849.724885,1110.308913,666.185348,-10035.851024
849.725204,962.267725,222.061783,-10648.727422
849.725524,592.164754,740.205942,-9959.241474
849.725844,1110.308913,1480.411884,-10342.289223
849.726164,1258.350101,1702.473667,-10189.070123
849.726484,1776.494261,1702.473667,-9959.241474
849.726804,888.247130,1036.288319,-10418.898773
849.727123,2368.659014,592.164754,-10342.289223
849.727443,2738.761985,1258.350101,-10878.556072
849.727763,2294.638420,1554.432478,-10189.070123
849.728083,222.061783,1924.535449,-9882.631924
849.728403,-444.123565,666.185348,-10189.070123
849.728723,0.000000,-1036.288319,-9652.803275
849.729042,-592.164754,-1628.453072,-9806.022374
849.729362,148.041188,-1702.473667,-9346.365076
849.729682,888.247130,370.102971,-9652.803275
849.730002,2220.617826,1998.556043,-10112.460574
849.730322,888.247130,2886.803174,-9806.022374
849.730642,1258.350101,1998.556043,-10189.070123
849.730961,2072.576638,-518.144159,-9882.631924
849.731281,1924.535449,-2590.720797,-9806.022374
849.731601,1406.391290,-2664.741391,-9499.584175
849.731921,74.020594,444.123565,-9806.022374
849.732241,-1776.494261,2886.803174,-10418.898773
849.732561,-2072.576638,4293.194464,-10035.851024
849.732880,-1554.432478,2590.720797,-10572.117872
849.733200,-1036.288319,222.061783,-9882.631924
849.733520,-666.185348,-1776.494261,-9806.022374
849.733840,148.041188,-2886.803174,-9806.022374
849.734160,222.061783,-2294.638420,-10035.851024
849.734480,740.205942,-444.123565,-10112.460574
849.734800,-814.226536,1480.411884,-9882.631924
849.735119,888.247130,1258.350101,-10955.165621
849.735439,1628.453072,1036.288319,-10495.508323
849.735759,74.020594,740.205942,-10725.336972
849.736079,148.041188,-296.082377,-10725.336972
849.736399,370.102971,0.000000,-10572.117872
849.736719,-814.226536,0.000000,-10189.070123
849.737038,-666.185348,-444.123565,-10035.851024
849.737358,592.164754,-1110.308913,-10112.460574
849.737678,1184.329507,-1258.350101,-10035.851024
849.737998,444.123565,0.000000,-9806.022374
849.738318,0.000000,1554.432478,-10112.460574
849.738638,74.020594,2442.679609,-10418.898773
849.738957,148.041188,2368.659014,-10035.851024
849.739277,0.000000,-222.061783,-9882.631924
849.739597,-222.061783,-1702.473667,-9729.412825
849.739917,0.000000,-1998.556043,-9576.193725
849.740237,-814.226536,-814.226536,-9882.631924
849.740557,74.020594,1480.411884,-9806.022374
849.740876,-666.185348,2072.576638,-9882.631924
849.741196,-296.082377,1776.494261,-9882.631924
849.741516,148.041188,222.061783,-9806.022374
849.741836,222.061783,-1036.288319,-8963.317327
849.742156,666.185348,-2072.576638,-9959.241474
849.742476,666.185348,-740.205942,-9652.803275
849.742795,1776.494261,0.000000,-10265.679673
849.743115,1406.391290,962.267725,-9806.022374
849.743435,1258.350101,1332.370696,-10035.851024
849.743755,814.226536,740.205942,-10265.679673
849.744075,666.185348,148.041188,-10265.679673
849.744395,-296.082377,-666.185348,-10112.460574
849.744715,0.000000,-592.164754,-9882.631924
849.745034,1036.288319,-666.185348,-10495.508323
849.745354,814.226536,74.020594,-10495.508323
849.745674,0.000000,518.144159,-10189.070123
849.745994,-518.144159,1184.329507,-11261.603821
849.746314,370.102971,1998.556043,-10572.117872
849.746634,1332.370696,1702.473667,-11031.775171
849.746953,3478.967927,1998.556043,-10418.898773
849.747273,2368.659014,1406.391290,-10878.556072
849.747593,1036.288319,888.247130,-10878.556072
849.747913,-888.247130,148.041188,-10189.070123
849.748233,-148.041188,-370.102971,-9806.022374
849.748553,1554.432478,592.164754,-9959.241474
849.748872,2072.576638,1184.329507,-9882.631924
849.749192,2664.741391,888.247130,-10035.851024
849.749512,2368.659014,518.144159,-10572.117872
849.749832,1332.370696,-296.082377,-9806.022374
849.750152,-1184.329507,-962.267725,-9652.803275
849.750472,-592.164754,-1776.494261,-9039.926876
849.750791,0.000000,-1332.370696,-9422.974625
849.751111,1110.308913,74.020594,-9959.241474
849.751431,1924.535449,1036.288319,-9959.241474
849.751751,1480.411884,1850.514855,-10265.679673
849.752071,666.185348,1184.329507,-9652.803275
849.752391,74.020594,370.102971,-9806.022374
849.752710,1184.329507,-592.164754,-9806.022374
849.753030,592.164754,-1184.329507,-10112.460574
849.753350,-814.226536,-2072.576638,-10035.851024
849.753670,-962.267725,-888.247130,-9806.022374
849.753990,518.144159,1406.391290,-10189.070123
849.754310,814.226536,2886.803174,-10265.679673
849.754630,370.102971,3034.844362,-10801.946522
849.754949,0.000000,888.247130,-10342.289223
849.755269,592.164754,-1110.308913,-10418.898773
849.755589,-74.020594,-1776.494261,-10189.070123
849.755909,-666.185348,-1628.453072,-10265.679673
849.756229,-740.205942,-148.041188,-10725.336972
849.756549,-962.267725,1628.453072,-9882.631924
849.756868,1110.308913,2738.761985,-10572.117872
849.757188,444.123565,1998.556043,-10878.556072
849.757508,740.205942,518.144159,-10112.460574
849.757828,1924.535449,-370.102971,-9959.241474
849.758148,3034.844362,-814.226536,-10265.679673
849.758468,1998.556043,-222.061783,-9882.631924
849.758787,-740.205942,814.226536,-10112.460574
849.759107,-1184.329507,148.041188,-9959.241474
849.759427,-370.102971,148.041188,-9806.022374
849.759747,666.185348,-222.061783,-10112.460574
849.760067,1036.288319,148.041188,-9882.631924
849.760387,1258.350101,592.164754,-9806.022374
849.760707,1480.411884,666.185348,-10189.070123
849.761027,0.000000,148.041188,-9806.022374
849.761347,-1480.411884,592.164754,-9729.412825
849.761667,-1776.494261,962.267725,-10189.070123
849.761987,-814.226536,814.226536,-9729.412825
849.762307,592.164754,1554.432478,-10112.460574
849.762626,1554.432478,518.144159,-10035.851024
849.762946,740.205942,0.000000,-9806.022374
849.763266,370.102971,-444.123565,-10648.727422
849.763586,592.164754,-1332.370696,-9806.022374
849.763906,370.102971,-518.144159,-10418.898773
849.764226,222.061783,0.000000,-9882.631924
849.764546,-444.123565,-222.061783,-9882.631924
849.764866,1184.329507,592.164754,-9959.241474
849.765186,1332.370696,1776.494261,-10418.898773
849.765506,666.185348,2146.597232,-10495.508323
849.765826,518.144159,1258.350101,-10112.460574
849.766146,518.144159,-148.041188,-10495.508323
849.766466,-296.082377,-1406.391290,-10265.679673
849.766786,-888.247130,-666.185348,-9806.022374
849.767106,-518.144159,0.000000,-10648.727422
849.767425,-666.185348,2516.700203,-9959.241474
849.767745,-370.102971,2886.803174,-10418.898773
849.768065,0.000000,2072.576638,-10801.946522
849.768385,1332.370696,222.061783,-10418.898773
849.768705,2812.782580,-1628.453072,-10112.460574
849.769025,2442.679609,-1258.350101,-9882.631924
849.769345,1776.494261,-296.082377,-10112.460574
849.769665,1184.329507,1110.308913,-10112.460574
849.769985,-518.144159,1628.453072,-10035.851024
849.770305,592.164754,518.144159,-9346.365076
849.770625,-222.061783,-222.061783,-10418.898773
849.770945,1480.411884,-1924.535449,-9576.193725
849.771265,2294.638420,-1554.432478,-9806.022374
849.771585,1776.494261,-222.061783,-10342.289223
849.771904,444.123565,888.247130,-10495.508323
849.772224,-592.164754,1110.308913,-9652.803275
849.772544,-296.082377,-296.082377,-10035.851024
849.772864,1110.308913,-1258.350101,-9806.022374
849.773184,2368.659014,-1184.329507,-9116.536426
849.773504,2220.617826,-518.144159,-9959.241474
849.773824,1554.432478,814.226536,-10418.898773
849.774144,518.144159,1110.308913,-10418.898773
849.774464,-814.226536,962.267725,-9959.241474
849.774784,-222.061783,0.000000,-10035.851024
849.775104,148.041188,-666.185348,-9959.241474
849.775424,740.205942,-962.267725,-10572.117872
849.775744,1850.514855,-518.144159,-10418.898773
849.776064,962.267725,814.226536,-10725.336972
849.776383,-1702.473667,2220.617826,-10265.679673
849.776703,-2368.659014,3034.844362,-10265.679673
849.777023,-592.164754,1850.514855,-10572.117872
849.777343,1776.494261,592.164754,-10265.679673
849.777663,1850.514855,-814.226536,-10342.289223
849.777983,1850.514855,-2294.638420,-9806.022374
849.778303,1628.453072,-1628.453072,-10189.070123
849.778623,148.041188,0.000000,-10112.460574
849.778943,74.020594,1628.453072,-9422.974625
849.779263,370.102971,2368.659014,-10418.898773
849.779583,74.020594,666.185348,-10189.070123
849.779903,0.000000,-1628.453072,-10342.289223
849.780223,1406.391290,-2516.700203,-9346.365076
849.780543,888.247130,-666.185348,-10418.898773
849.780862,0.000000,1036.288319,-9806.022374
849.781182,-1554.432478,1702.473667,-10265.679673
849.781502,-888.247130,370.102971,-10112.460574
849.781822,1406.391290,-1480.411884,-9652.803275
849.782142,2442.679609,-1036.288319,-10112.460574
849.782462,2442.679609,-518.144159,-10495.508323
849.782782,1998.556043,1406.391290,-10572.117872
849.783102,0.000000,2664.741391,-9959.241474
849.783422,-1110.308913,2886.803174,-9652.803275
849.783742,-666.185348,888.247130,-10189.070123
849.784062,740.205942,-2294.638420,-9729.412825
849.784382,888.247130,-3108.864956,-9882.631924
849.784702,740.205942,-1924.535449,-9806.022374
849.785022,-1480.411884,1110.308913,-9882.631924
849.785342,-2442.679609,3256.906145,-10189.070123
849.785661,-2368.659014,4071.132681,-9882.631924
849.785981,-1406.391290,1998.556043,-10265.679673
849.786301,1554.432478,-1036.288319,-10342.289223
849.786621,2146.597232,-2812.782580,-9959.241474
849.786941,1924.535449,-2738.761985,-10112.460574
849.787261,888.247130,-814.226536,-9959.241474
849.787581,-296.082377,2220.617826,-9882.631924
849.787901,-1776.494261,3182.885551,-10035.851024
849.788221,-1702.473667,2368.659014,-10572.117872
849.788541,666.185348,592.164754,-10342.289223
849.788861,1776.494261,814.226536,-11644.651570
849.789181,1998.556043,666.185348,-10648.727422
849.789501,666.185348,1258.350101,-10265.679673
849.789821,-1332.370696,2220.617826,-10112.460574
849.790140,-2368.659014,592.164754,-9806.022374
849.790460,-1554.432478,148.041188,-9882.631924
849.790780,-444.123565,-592.164754,-10112.460574
849.791100,592.164754,0.000000,-10035.851024
849.791420,2590.720797,1110.308913,-10495.508323
849.791740,3108.864956,2664.741391,-10035.851024
849.792060,2220.617826,2738.761985,-10035.851024
849.792380,1776.494261,1110.308913,-9652.803275
849.792700,2738.761985,222.061783,-9806.022374
849.793020,3330.926739,-592.164754,-9882.631924
849.793340,3256.906145,-370.102971,-9806.022374
849.793660,4071.132681,1332.370696,-10265.679673
849.793980,2368.659014,1332.370696,-10189.070123
849.794300,666.185348,1850.514855,-9806.022374
849.794619,74.020594,1924.535449,-10418.898773
849.794939,222.061783,592.164754,-10572.117872
849.795259,296.082377,148.041188,-10342.289223
849.795579,-148.041188,-148.041188,-10112.460574
849.795899,0.000000,370.102971,-9959.241474
849.796219,296.082377,740.205942,-9959.241474
849.796539,-444.123565,666.185348,-10265.679673
849.796859,-222.061783,-296.082377,-9806.022374
849.797179,1036.288319,-592.164754,-10418.898773
849.797499,1258.350101,0.000000,-10648.727422
849.797819,2368.659014,0.000000,-10112.460574
849.798139,2960.823768,1036.288319,-10648.727422
849.798459,2146.597232,2072.576638,-10572.117872
849.798779,-222.061783,1480.411884,-10801.946522
849.799098,-1258.350101,-592.164754,-10418.898773
849.799418,-1776.494261,-2146.597232,-9499.584175
849.799738,-1776.494261,-2738.761985,-9729.412825
849.800058,-888.247130,-1776.494261,-9422.974625
849.800378,518.144159,-814.226536,-10035.851024
849.800698,0.000000,888.247130,-9959.241474
849.801018,-1628.453072,2146.597232,-10189.070123
849.801338,-1776.494261,962.267725,-10189.070123
849.801658,-888.247130,0.000000,-9959.241474
849.801978,888.247130,-1776.494261,-9652.803275
849.802298,1332.370696,-1924.535449,-10112.460574
849.802618,1332.370696,-1184.329507,-10189.070123
849.802938,74.020594,0.000000,-10495.508323
849.803258,-1184.329507,1110.308913,-10342.289223
849.803578,-1332.370696,1702.473667,-10495.508323
849.803897,0.000000,0.000000,-10265.679673
849.804217,592.164754,-296.082377,-10112.460574
849.804537,1480.411884,-1480.411884,-9193.145976
849.804857,518.144159,-1184.329507,-10495.508323
849.805177,-148.041188,-74.020594,-10189.070123
849.805497,-666.185348,592.164754,-9959.241474
849.805817,74.020594,518.144159,-10035.851024
849.806137,888.247130,-296.082377,-9806.022374
849.806457,2220.617826,518.144159,-10418.898773
849.806777,3256.906145,444.123565,-10418.898773
849.807097,2960.823768,740.205942,-10648.727422
849.807417,1924.535449,1332.370696,-9499.584175
849.807737,-518.144159,-444.123565,-9806.022374
849.808057,-370.102971,-1184.329507,-9729.412825
849.808376,1258.350101,-1480.411884,-9882.631924
849.808696,2294.638420,-962.267725,-9882.631924
849.809016,1924.535449,74.020594,-10112.460574
849.809336,370.102971,1924.535449,-10035.851024
849.809656,0.000000,2886.803174,-10265.679673
849.809976,-592.164754,3330.926739,-9882.631924
849.810296,-222.061783,814.226536,-9959.241474
849.810616,-444.123565,-1110.308913,-9422.974625
849.810936,-444.123565,-1850.514855,-9806.022374
849.811256,1036.288319,-1850.514855,-9806.022374
849.811576,1628.453072,0.000000,-10189.070123
849.811896,1554.432478,1258.350101,-10035.851024
849.812216,518.144159,2442.679609,-10112.460574
849.812536,-148.041188,3034.844362,-10342.289223
849.812855,-222.061783,2146.597232,-9806.022374
849.813175,-296.082377,1480.411884,-9652.803275
849.813495,1332.370696,444.123565,-10342.289223
849.813815,888.247130,-444.123565,-10418.898773
849.814135,0.000000,-74.020594,-9959.241474
849.814455,-814.226536,962.267725,-8963.317327
849.814775,0.000000,1332.370696,-10112.460574
849.815095,1184.329507,1554.432478,-10265.679673
849.815415,1776.494261,1110.308913,-10648.727422
849.815735,1998.556043,1036.288319,-10648.727422
849.816055,1184.329507,740.205942,-10112.460574
849.816375,-148.041188,-296.082377,-10495.508323
849.816695,-888.247130,-370.102971,-9806.022374
849.817015,-444.123565,-148.041188,-10189.070123
849.817334,1480.411884,592.164754,-11031.775171
849.817654,1628.453072,1628.453072,-10725.336972
849.817974,1998.556043,1924.535449,-10725.336972
849.818294,1036.288319,2812.782580,-10265.679673
849.818614,-666.185348,3182.885551,-10189.070123
849.818934,-2516.700203,2442.679609,-9806.022374
849.819254,-592.164754,-592.164754,-9729.412825
849.819574,444.123565,-3552.988522,-9806.022374
849.819894,814.226536,-4293.194464,-9346.365076
849.820214,962.267725,-3849.070898,-9269.755526
849.820534,1258.350101,74.020594,-9499.584175
849.820854,1036.288319,3997.112087,-9882.631924
849.821174,370.102971,4293.194464,-10112.460574
849.821494,0.000000,2812.782580,-9882.631924
849.821814,222.061783,-444.123565,-10035.851024
849.822133,1924.535449,-3478.967927,-9116.536426
849.822453,1998.556043,-4515.256246,-10035.851024
849.822773,740.205942,-2738.761985,-9729.412825
849.823093,-296.082377,962.267725,-9959.241474
849.823413,148.041188,2146.597232,-10342.289223
849.823733,296.082377,1998.556043,-10725.336972
849.824053,-592.164754,1628.453072,-10495.508323
849.824373,0.000000,592.164754,-11031.775171
849.824693,296.082377,74.020594,-10418.898773
849.825013,1850.514855,-222.061783,-10878.556072
849.825333,-296.082377,-740.205942,-10035.851024
849.825653,-1332.370696,-1554.432478,-10112.460574
849.825973,-370.102971,-1258.350101,-11031.775171
849.826293,740.205942,-296.082377,-10725.336972
849.826612,666.185348,888.247130,-10342.289223
849.826932,962.267725,1998.556043,-10801.946522
849.827252,1258.350101,1776.494261,-11338.213370
849.827572,-148.041188,296.082377,-10572.117872
849.827892,-592.164754,-1332.370696,-9882.631924
849.828212,74.020594,-1776.494261,-9729.412825
849.828532,592.164754,-1776.494261,-10342.289223
849.828852,1110.308913,-1998.556043,-9806.022374
849.829172,518.144159,518.144159,-9806.022374
849.829492,-148.041188,1924.535449,-9806.022374
849.829812,-814.226536,2960.823768,-9806.022374
849.830132,814.226536,2146.597232,-9959.241474
849.830452,2368.659014,0.000000,-10035.851024
849.830772,888.247130,-1702.473667,-9806.022374
849.831091,814.226536,-3034.844362,-9729.412825
849.831411,1406.391290,-2960.823768,-9346.365076
849.831731,1480.411884,-296.082377,-9806.022374
849.832051,-518.144159,2294.638420,-9959.241474
849.832371,-444.123565,2960.823768,-10265.679673
849.832691,222.061783,2590.720797,-10265.679673
849.833011,1110.308913,1184.329507,-10418.898773
849.833331,2738.761985,-518.144159,-10265.679673
849.833651,1480.411884,-518.144159,-10418.898773
849.833971,0.000000,-370.102971,-10112.460574
849.834291,0.000000,0.000000,-9806.022374
849.834611,222.061783,0.000000,-9882.631924
849.834931,592.164754,74.020594,-9959.241474
849.835251,1480.411884,1850.514855,-10801.946522
849.835570,2294.638420,2960.823768,-10878.556072
849.835890,2812.782580,2960.823768,-10801.946522
849.836210,1628.453072,2146.597232,-10112.460574
849.836530,-296.082377,1554.432478,-9806.022374
849.836850,-962.267725,518.144159,-10189.070123
849.837170,148.041188,-296.082377,-9959.241474
849.837490,1924.535449,-814.226536,-9882.631924
849.837810,2960.823768,1036.288319,-10342.289223
849.838130,1406.391290,2220.617826,-10112.460574
849.838450,-666.185348,2960.823768,-10189.070123
849.838770,-814.226536,1258.350101,-9729.412825
849.839090,-1110.308913,814.226536,-9729.412825
849.839410,-1258.350101,-1036.288319,-9882.631924
849.839730,-888.247130,-1702.473667,-9499.584175
849.840050,1258.350101,-1184.329507,-9576.193725
849.840369,962.267725,592.164754,-9806.022374
849.840689,0.000000,1924.535449,-9652.803275
849.841009,370.102971,1258.350101,-10265.679673
849.841329,1480.411884,148.041188,-9729.412825
849.841649,2072.576638,-888.247130,-9806.022374
849.841969,1850.514855,-962.267725,-9576.193725
849.842289,1184.329507,-740.205942,-10648.727422
849.842609,-370.102971,-1184.329507,-9652.803275
849.842929,-1628.453072,-148.041188,-9882.631924
849.843249,-1258.350101,-518.144159,-9576.193725
849.843569,296.082377,74.020594,-9959.241474
849.843889,1702.473667,-296.082377,-10265.679673
849.844209,1554.432478,518.144159,-9882.631924
849.844529,740.205942,666.185348,-10572.117872
849.844848,-592.164754,-296.082377,-10495.508323
849.845168,-1184.329507,222.061783,-10112.460574
849.845488,-1776.494261,-296.082377,-10342.289223
849.845808,-666.185348,0.000000,-10189.070123
849.846128,740.205942,-592.164754,-10572.117872
849.846448,3108.864956,-370.102971,-10648.727422
849.846768,3108.864956,814.226536,-10801.946522
849.847088,1332.370696,1036.288319,-10801.946522
849.847408,-518.144159,1702.473667,-10342.289223
849.847728,148.041188,1110.308913,-10725.336972
849.848048,666.185348,370.102971,-10725.336972
849.848368,0.000000,-814.226536,-9959.241474
849.848688,74.020594,-1406.391290,-9499.584175
849.849008,-444.123565,-1184.329507,-9959.241474
849.849327,0.000000,0.000000,-10189.070123
849.849647,-296.082377,0.000000,-9806.022374
849.849967,444.123565,592.164754,-10112.460574
849.850287,74.020594,592.164754,-9959.241474
849.850607,-1036.288319,-518.144159,-9882.631924
849.850927,-148.041188,-1332.370696,-10035.851024
849.851247,592.164754,-1110.308913,-9959.241474
849.851567,814.226536,-888.247130,-9499.584175
849.851887,740.205942,222.061783,-9652.803275
849.852207,666.185348,-296.082377,-9729.412825
849.852527,1110.308913,0.000000,-9959.241474
849.852847,444.123565,444.123565,-9806.022374
849.853167,222.061783,666.185348,-10342.289223
849.853487,-148.041188,296.082377,-9806.022374
849.853807,-1924.535449,74.020594,-9959.241474
849.854126,-2368.659014,-740.205942,-9346.365076
849.854446,-1554.432478,148.041188,-9269.755526
849.854766,-740.205942,814.226536,-10342.289223
849.855086,962.267725,1332.370696,-10035.851024
849.855406,2368.659014,1480.411884,-10342.289223
849.855726,2442.679609,888.247130,-10495.508323
849.856046,1480.411884,888.247130,-10112.460574
849.856366,74.020594,740.205942,-9806.022374
849.856686,1036.288319,0.000000,-10265.679673
849.857006,2220.617826,666.185348,-9806.022374
849.857326,1998.556043,1110.308913,-12180.918418
849.857646,3701.029710,1184.329507,-10495.508323
849.857966,3627.009116,2590.720797,-10801.946522
849.858286,2516.700203,2812.782580,-10495.508323
849.858605,1110.308913,2590.720797,-9729.412825
849.858925,1036.288319,1924.535449,-10418.898773
849.859245,1184.329507,-222.061783,-10112.460574
849.859565,814.226536,-1406.391290,-10265.679673
849.859885,2146.597232,-1110.308913,-10035.851024
849.860205,1998.556043,1924.535449,-10265.679673
849.860525,962.267725,3478.967927,-10648.727422
849.860845,1702.473667,4515.256246,-10418.898773
849.861165,1702.473667,3478.967927,-10801.946522
849.861485,444.123565,592.164754,-11184.994271
849.861805,-814.226536,-962.267725,-9806.022374
849.862125,-1332.370696,-2146.597232,-9806.022374
849.862445,-444.123565,-814.226536,-9346.365076
849.862765,740.205942,74.020594,-9806.022374
849.863085,1258.350101,1406.391290,-10112.460574
849.863405,518.144159,1258.350101,-9806.022374
849.863725,-296.082377,1184.329507,-9652.803275
849.864045,-740.205942,444.123565,-9422.974625
849.864365,296.082377,148.041188,-10418.898773
849.864685,148.041188,-962.267725,-8963.317327
849.865005,-1184.329507,-740.205942,-9576.193725
849.865326,-666.185348,-1332.370696,-9422.974625
849.865646,814.226536,-814.226536,-9652.803275
849.865966,814.226536,518.144159,-9806.022374
849.866286,148.041188,1332.370696,-9806.022374
849.866606,74.020594,2072.576638,-10342.289223
849.866926,0.000000,1110.308913,-10189.070123
849.867246,-1036.288319,222.061783,-10112.460574
849.867566,-1850.514855,-2072.576638,-10035.851024
849.867886,-1480.411884,-2220.617826,-10265.679673
849.868206,-296.082377,-1702.473667,-10648.727422
849.868526,296.082377,222.061783,-10265.679673
849.868846,-296.082377,2368.659014,-11338.213370
849.869166,-296.082377,2738.761985,-10878.556072
849.869486,0.000000,1628.453072,-10495.508323
849.869806,1406.391290,-518.144159,-10648.727422
849.870126,1184.329507,-1184.329507,-10189.070123
849.870446,148.041188,-2294.638420,-10035.851024
849.870767,444.123565,-2220.617826,-9882.631924
849.871087,1036.288319,-814.226536,-10189.070123
849.871407,962.267725,-148.041188,-10112.460574
849.871727,-296.082377,444.123565,-9806.022374
849.872047,-370.102971,740.205942,-10112.460574
849.872367,-222.061783,-592.164754,-9806.022374
849.872687,-1184.329507,-2146.597232,-9193.145976
849.873007,148.041188,-2072.576638,-8963.317327
849.873327,814.226536,-2368.659014,-9729.412825
849.873647,888.247130,-1554.432478,-9499.584175
849.873967,0.000000,74.020594,-9422.974625
849.874287,518.144159,1110.308913,-9652.803275
849.874607,-222.061783,888.247130,-9422.974625
849.874927,-222.061783,222.061783,-10035.851024
849.875247,518.144159,-1554.432478,-9652.803275
849.875567,1036.288319,-1184.329507,-10112.460574
849.875887,666.185348,-444.123565,-9576.193725
849.876208,518.144159,0.000000,-9959.241474
849.876528,370.102971,0.000000,-10265.679673
849.876848,148.041188,74.020594,-10342.289223
849.877168,74.020594,1628.453072,-10342.289223
849.877488,1332.370696,1998.556043,-10572.117872
849.877808,1628.453072,1702.473667,-10342.289223
849.878128,1480.411884,1850.514855,-10648.727422
849.878448,666.185348,296.082377,-10418.898773
849.878768,2072.576638,222.061783,-10495.508323
849.879088,2294.638420,-370.102971,-10572.117872
849.879408,1924.535449,1924.535449,-10878.556072
849.879728,1554.432478,2738.761985,-10495.508323
849.880048,1702.473667,4589.276840,-11338.213370
849.880368,0.000000,4293.194464,-10342.289223
849.880688,-518.144159,2590.720797,-10265.679673
849.881008,814.226536,740.205942,-10112.460574
849.881328,2220.617826,-370.102971,-9806.022374
849.881649,1850.514855,0.000000,-10572.117872
849.881969,1702.473667,296.082377,-9959.241474
849.882289,962.267725,1406.391290,-9576.193725
849.882609,296.082377,1998.556043,-9499.584175
849.882929,666.185348,1924.535449,-9959.241474
849.883249,814.226536,444.123565,-9346.365076
849.883569,74.020594,-296.082377,-9422.974625
849.883889,370.102971,148.041188,-9499.584175
849.884209,2146.597232,518.144159,-9652.803275
849.884529,1924.535449,-1332.370696,-9193.145976
849.884849,-740.205942,-444.123565,-8810.098227
849.885169,-962.267725,-1406.391290,-9116.536426
849.885489,-370.102971,-740.205942,-9499.584175
849.885809,-370.102971,-444.123565,-9882.631924
849.886129,-370.102971,666.185348,-9652.803275
849.886449,-148.041188,1628.453072,-10342.289223
849.886769,-518.144159,1184.329507,-10035.851024
849.887090,74.020594,296.082377,-10189.070123
849.887410,518.144159,-592.164754,-10495.508323
849.887730,1110.308913,-296.082377,-10112.460574
849.888050,-296.082377,-444.123565,-10725.336972
849.888370,-962.267725,222.061783,-10342.289223
849.888690,-888.247130,1628.453072,-11184.994271
849.889010,-1036.288319,1406.391290,-11031.775171
849.889330,-592.164754,1184.329507,-10725.336972
849.889650,0.000000,-592.164754,-10955.165621
849.889970,1406.391290,-1480.411884,-10801.946522
849.890290,1776.494261,-2146.597232,-11184.994271
849.890610,962.267725,-592.164754,-10648.727422
849.890930,296.082377,1702.473667,-10955.165621
849.891250,1332.370696,2738.761985,-10725.336972
849.891570,888.247130,2738.761985,-10418.898773
849.891890,814.226536,-370.102971,-10342.289223
849.892211,1332.370696,-1850.514855,-10342.289223
849.892531,0.000000,-2812.782580,-9576.193725
849.892851,0.000000,-3108.864956,-9652.803275
849.893171,444.123565,-2220.617826,-9652.803275
849.893491,592.164754,-296.082377,-9652.803275
849.893811,370.102971,1036.288319,-9576.193725
849.894131,592.164754,444.123565,-9652.803275
849.894451,1258.350101,-666.185348,-9499.584175
849.894771,592.164754,-666.185348,-9729.412825
849.895091,592.164754,-666.185348,-9729.412825
849.895411,1036.288319,74.020594,-9806.022374
849.895731,1110.308913,-222.061783,-9806.022374
849.896051,-370.102971,-296.082377,-9576.193725
849.896371,-444.123565,-814.226536,-9882.631924
849.896691,-222.061783,-1184.329507,-9652.803275
849.897011,740.205942,814.226536,-10265.679673
849.897331,1776.494261,666.185348,-9346.365076
849.897652,1850.514855,888.247130,-10189.070123
849.897972,0.000000,814.226536,-10035.851024
849.898292,-666.185348,962.267725,-10495.508323
849.898612,1258.350101,666.185348,-9806.022374
849.898932,1110.308913,-296.082377,-10725.336972
849.899252,-370.102971,-148.041188,-10265.679673
849.899572,74.020594,888.247130,-10725.336972
849.899892,0.000000,2960.823768,-10878.556072
849.900212,-148.041188,2590.720797,-10725.336972
849.900532,-888.247130,2072.576638,-10189.070123
849.900852,-1036.288319,222.061783,-10418.898773
849.901172,518.144159,-1332.370696,-10265.679673
849.901492,1184.329507,-1184.329507,-9806.022374
849.901812,1850.514855,222.061783,-9959.241474
849.902132,1776.494261,2220.617826,-10418.898773
849.902452,1406.391290,3478.967927,-10189.070123
849.902772,0.000000,2664.741391,-9806.022374
849.903093,666.185348,962.267725,-10112.460574
849.903413,592.164754,-1184.329507,-9116.536426
849.903733,962.267725,-962.267725,-9652.803275
849.904053,1332.370696,444.123565,-10112.460574
849.904373,1036.288319,1184.329507,-9499.584175
849.904693,-740.205942,666.185348,-9576.193725
849.905013,74.020594,-370.102971,-9269.755526
849.905333,1110.308913,-666.185348,-10035.851024
849.905653,888.247130,-1776.494261,-9882.631924
849.905973,888.247130,888.247130,-9499.584175
849.906293,888.247130,1628.453072,-10035.851024
849.906613,1480.411884,2590.720797,-9959.241474
849.906933,148.041188,2294.638420,-9959.241474
849.907253,-1036.288319,3182.885551,-10189.070123
849.907573,740.205942,2220.617826,-10112.460574
849.907893,3330.926739,-370.102971,-10265.679673
849.908213,2738.761985,0.000000,-9806.022374
849.908534,2516.700203,0.000000,-10495.508323
849.908854,370.102971,0.000000,-9729.412825
849.909174,-888.247130,-444.123565,-10035.851024
849.909494,-1184.329507,-740.205942,-9806.022374
849.909814,-296.082377,-962.267725,-10035.851024
849.910134,-518.144159,-444.123565,-10112.460574
849.910454,1406.391290,666.185348,-10418.898773
849.910774,2590.720797,1332.370696,-10801.946522
849.911094,1850.514855,1776.494261,-10572.117872
849.911414,-1628.453072,1036.288319,-10265.679673
849.911734,-2220.617826,444.123565,-9882.631924
849.912054,-814.226536,-1036.288319,-10495.508323
849.912374,148.041188,-2368.659014,-10189.070123
849.912694,962.267725,-1110.308913,-10112.460574
849.913014,296.082377,-148.041188,-10189.070123
849.913334,666.185348,814.226536,-10035.851024
849.913654,222.061783,1258.350101,-10495.508323
849.913975,370.102971,592.164754,-9959.241474
849.914295,-370.102971,-740.205942,-9806.022374
849.914615,74.020594,-1406.391290,-10189.070123
849.914935,1406.391290,-962.267725,-9806.022374
849.915255,1036.288319,-74.020594,-10572.117872
849.915575,-370.102971,-740.205942,-10035.851024
849.915895,-740.205942,814.226536,-10035.851024
849.916215,-740.205942,740.205942,-10189.070123
849.916535,1480.411884,962.267725,-10495.508323
849.916855,370.102971,0.000000,-10418.898773
849.917175,-666.185348,-2072.576638,-10725.336972
849.917495,-370.102971,-1480.411884,-11031.775171
849.917815,-2220.617826,-1184.329507,-9499.584175
849.918135,-2368.659014,370.102971,-10342.289223
849.918455,-962.267725,1554.432478,-10418.898773
849.918775,444.123565,1924.535449,-10112.460574
849.919095,3108.864956,1406.391290,-10189.070123
849.919416,4885.359217,518.144159,-10495.508323
849.919736,3404.947333,444.123565,-10342.289223
849.920056,0.000000,-1036.288319,-9729.412825
849.920376,-3404.947333,74.020594,-9576.193725
849.920696,-2294.638420,296.082377,-10189.070123
849.921016,-962.267725,148.041188,-9576.193725
849.921336,148.041188,740.205942,-10572.117872
849.921656,888.247130,1110.308913,-10495.508323
849.921976,1998.556043,2072.576638,-10495.508323
849.922296,1406.391290,1332.370696,-9806.022374
849.922616,1184.329507,592.164754,-9806.022374
849.922936,1480.411884,1184.329507,-10112.460574
849.923256,2516.700203,0.000000,-9882.631924
849.923576,2812.782580,0.000000,-10418.898773
849.923896,1332.370696,444.123565,-9729.412825
849.924216,814.226536,3108.864956,-10955.165621
849.924536,370.102971,2886.803174,-9193.145976
849.924857,518.144159,2368.659014,-10035.851024
849.925177,814.226536,1184.329507,-10035.851024
849.925497,1036.288319,222.061783,-9882.631924
849.925817,1184.329507,-1184.329507,-9193.145976
849.926137,1776.494261,-1258.350101,-9959.241474
849.926457,-148.041188,888.247130,-9806.022374
849.926777,-296.082377,2368.659014,-10342.289223
849.927097,370.102971,2146.597232,-9882.631924
849.927417,2664.741391,1258.350101,-10801.946522
849.927737,2812.782580,814.226536,-10035.851024
849.928057,3256.906145,1480.411884,-10265.679673
849.928377,3256.906145,1258.350101,-10342.289223
849.928697,1924.535449,1036.288319,-10495.508323
849.929017,222.061783,0.000000,-9882.631924
849.929337,-740.205942,-1850.514855,-8886.707777
849.929657,370.102971,-2886.803174,-9729.412825
849.929977,2368.659014,-2368.659014,-9039.926876
849.930298,1776.494261,1184.329507,-10342.289223
849.930618,666.185348,2664.741391,-10648.727422
849.930938,148.041188,2368.659014,-10418.898773
849.931258,-2368.659014,518.144159,-9806.022374
849.931578,-1702.473667,-2146.597232,-9499.584175
849.931898,-1332.370696,-2886.803174,-9652.803275
849.932218,-370.102971,-2368.659014,-9806.022374
849.932538,-370.102971,-1480.411884,-9729.412825
849.932858,962.267725,-222.061783,-10572.117872
849.933178,888.247130,-518.144159,-9959.241474
849.933498,740.205942,-518.144159,-10112.460574
849.933818,962.267725,444.123565,-10265.679673
849.934138,74.020594,888.247130,-10725.336972
849.934458,-666.185348,-148.041188,-9576.193725
849.934778,-1110.308913,-1110.308913,-10035.851024
849.935098,-1554.432478,-1110.308913,-10265.679673
849.935418,-1036.288319,-1850.514855,-10189.070123
849.935739,-962.267725,370.102971,-11261.603821
849.936059,-1628.453072,740.205942,-10418.898773
849.936379,-148.041188,-666.185348,-10572.117872
849.936699,666.185348,-1554.432478,-10495.508323
849.937019,-148.041188,-2368.659014,-10189.070123
849.937339,0.000000,0.000000,-10648.727422
849.937659,-740.205942,518.144159,-10035.851024
849.937979,-1924.535449,1184.329507,-9959.241474
849.938299,-1258.350101,444.123565,-10572.117872
849.938619,0.000000,-444.123565,-11031.775171
849.938939,1258.350101,-2072.576638,-10112.460574
849.939259,1628.453072,-2368.659014,-9499.584175
849.939579,962.267725,-518.144159,-10112.460574
849.939899,-148.041188,1184.329507,-9652.803275
849.940219,148.041188,1702.473667,-9729.412825
849.940539,0.000000,1036.288319,-9959.241474
849.940859,1258.350101,1184.329507,-10035.851024
849.941180,2368.659014,518.144159,-10112.460574
849.941500,2960.823768,1036.288319,-9959.241474
849.941820,2294.638420,74.020594,-10495.508323
849.942140,1036.288319,518.144159,-10035.851024
849.942460,-1036.288319,962.267725,-9346.365076
849.942780,-296.082377,1258.350101,-11108.384721
849.943100,1184.329507,962.267725,-9806.022374
849.943420,1628.453072,814.226536,-10112.460574
849.943740,2516.700203,1406.391290,-10189.070123
849.944060,2368.659014,1332.370696,-10342.289223
849.944380,2368.659014,1554.432478,-10418.898773
849.944700,148.041188,74.020594,-9729.412825
849.945020,0.000000,-518.144159,-10342.289223
849.945340,0.000000,444.123565,-9729.412825
849.945660,1110.308913,2072.576638,-10648.727422
849.945980,2664.741391,1924.535449,-10725.336972
849.946301,3997.112087,2368.659014,-10572.117872
849.946621,1702.473667,1924.535449,-10189.070123
849.946941,0.000000,1776.494261,-9806.022374
849.947261,814.226536,1924.535449,-11568.042020
849.947581,1406.391290,148.041188,-9959.241474
849.947901,1998.556043,444.123565,-10035.851024
849.948221,1332.370696,74.020594,-9806.022374
849.948541,962.267725,1332.370696,-9576.193725
849.948861,-592.164754,2072.576638,-10418.898773
849.949181,-740.205942,1776.494261,-9882.631924
849.949501,296.082377,1702.473667,-10189.070123
849.949821,1184.329507,592.164754,-9346.365076
849.950141,1258.350101,0.000000,-10035.851024
849.950461,370.102971,370.102971,-10112.460574
849.950781,0.000000,1258.350101,-10112.460574
849.951101,-814.226536,1924.535449,-10112.460574
849.951421,-592.164754,1332.370696,-9806.022374
849.951742,74.020594,0.000000,-10035.851024
849.952062,888.247130,444.123565,-9959.241474
849.952382,1480.411884,148.041188,-10112.460574
849.952702,2664.741391,370.102971,-10572.117872
849.953022,74.020594,-592.164754,-9882.631924
849.953342,-1406.391290,222.061783,-10342.289223
849.953662,-2146.597232,296.082377,-9806.022374
849.953982,-592.164754,444.123565,-10418.898773
849.954302,0.000000,-592.164754,-9806.022374
849.954622,-222.061783,-148.041188,-10189.070123
849.954942,1480.411884,0.000000,-10418.898773
849.955262,2220.617826,0.000000,-10495.508323
849.955582,370.102971,1184.329507,-10955.165621
849.955902,-1998.556043,222.061783,-10342.289223
849.956222,-2072.576638,-962.267725,-10112.460574
849.956542,-1184.329507,-2590.720797,-9576.193725
849.956862,592.164754,-2294.638420,-10265.679673
849.957183,1702.473667,-740.205942,-10801.946522
849.957503,1998.556043,-740.205942,-9806.022374
849.957823,666.185348,1036.288319,-9652.803275
849.958143,-296.082377,1184.329507,-9959.241474
849.958463,814.226536,0.000000,-8656.879127
849.958783,1406.391290,-740.205942,-9499.584175
849.959103,888.247130,-888.247130,-9806.022374
849.959423,1480.411884,-2146.597232,-9882.631924
849.959743,0.000000,-1554.432478,-9652.803275
849.960063,0.000000,-1776.494261,-9806.022374
849.960383,148.041188,-1776.494261,-9576.193725
849.960703,74.020594,74.020594,-10572.117872
849.961023,74.020594,222.061783,-10189.070123
849.961343,148.041188,518.144159,-10189.070123
849.961663,962.267725,444.123565,-10648.727422
849.961983,444.123565,-148.041188,-10342.289223
849.962304,-1480.411884,148.041188,-10418.898773
849.962624,0.000000,0.000000,-10725.336972
849.962944,74.020594,1554.432478,-10725.336972
849.963264,1184.329507,1480.411884,-11414.822920
849.963584,1184.329507,1406.391290,-10648.727422
849.963904,1332.370696,1998.556043,-11108.384721
849.964224,0.000000,1702.473667,-10725.336972
849.964544,-296.082377,1776.494261,-10265.679673
849.964864,148.041188,666.185348,-10342.289223
849.965184,740.205942,0.000000,-10112.460574
849.965504,1110.308913,0.000000,-10112.460574
849.965824,1480.411884,148.041188,-10265.679673
849.966144,1628.453072,962.267725,-9959.241474
849.966465,592.164754,1702.473667,-9729.412825
849.966785,296.082377,2442.679609,-9576.193725
849.967105,2220.617826,1554.432478,-9729.412825
849.967425,2146.597232,592.164754,-9346.365076
849.967745,1184.329507,0.000000,-9422.974625
849.968065,592.164754,-814.226536,-9422.974625
849.968385,1110.308913,888.247130,-9576.193725
849.968705,1110.308913,1332.370696,-9346.365076
849.969025,148.041188,1184.329507,-9116.536426
849.969345,1110.308913,592.164754,-9806.022374
849.969665,1406.391290,592.164754,-9576.193725
849.969985,0.000000,1332.370696,-10418.898773
849.970305,222.061783,962.267725,-10112.460574
849.970626,1036.288319,814.226536,-9882.631924
849.970946,1036.288319,74.020594,-9882.631924
849.971266,1480.411884,0.000000,-8656.879127
849.971586,1924.535449,296.082377,-9959.241474
849.971906,814.226536,666.185348,-9806.022374
849.972226,0.000000,1998.556043,-10572.117872
849.972546,296.082377,1554.432478,-11031.775171
849.972866,1406.391290,444.123565,-10265.679673
849.973186,-444.123565,-518.144159,-10342.289223
849.973506,-1998.556043,-962.267725,-10265.679673
849.973826,-962.267725,-296.082377,-10955.165621
849.974146,666.185348,-148.041188,-10035.851024
849.974466,1850.514855,592.164754,-10265.679673
849.974787,962.267725,518.144159,-10801.946522
849.975107,-888.247130,148.041188,-10572.117872
849.975427,-2146.597232,148.041188,-10495.508323
849.975747,-1480.411884,370.102971,-10342.289223
849.976067,518.144159,0.000000,-9882.631924
849.976387,1702.473667,-1480.411884,-9806.022374
849.976707,2294.638420,-1850.514855,-9652.803275
849.977027,1998.556043,-2146.597232,-10112.460574
849.977347,1184.329507,-1332.370696,-9576.193725
849.977667,-518.144159,-444.123565,-9729.412825
849.977987,-888.247130,0.000000,-9499.584175
849.978307,740.205942,296.082377,-9806.022374
849.978627,1776.494261,0.000000,-10265.679673
849.978947,1184.329507,74.020594,-10112.460574
849.979268,1406.391290,0.000000,-9959.241474
849.979588,370.102971,-222.061783,-10418.898773
849.979908,0.000000,-296.082377,-9959.241474
849.980228,-592.164754,-962.267725,-9499.584175
849.980548,0.000000,-1258.350101,-9806.022374
849.980868,0.000000,-1554.432478,-9806.022374
849.981188,296.082377,-740.205942,-9882.631924
849.981508,1628.453072,-222.061783,-10342.289223
849.981828,1258.350101,296.082377,-9882.631924
849.982148,74.020594,148.041188,-10035.851024
849.982468,-296.082377,-296.082377,-9959.241474
849.982788,592.164754,-222.061783,-9806.022374
849.983108,1998.556043,-370.102971,-10418.898773
849.983429,1628.453072,148.041188,-10648.727422
849.983749,-518.144159,1036.288319,-10955.165621
849.984069,-1850.514855,888.247130,-10495.508323
849.984389,-3256.906145,1776.494261,-10265.679673
849.984709,-2442.679609,-518.144159,-9806.022374
849.985029,-740.205942,518.144159,-10189.070123
849.985349,888.247130,-296.082377,-10955.165621
849.985669,1036.288319,296.082377,-10112.460574
849.985989,962.267725,666.185348,-10725.336972
849.986309,-592.164754,740.205942,-9116.536426
849.986629,-1258.350101,1332.370696,-9422.974625
849.986949,0.000000,1850.514855,-9959.241474
849.987269,962.267725,74.020594,-9729.412825
849.987590,2220.617826,444.123565,-10265.679673
849.987910,1480.411884,-444.123565,-9576.193725
849.988230,1110.308913,888.247130,-10572.117872
849.988550,740.205942,2368.659014,-9882.631924
849.988870,-592.164754,2368.659014,-10035.851024
849.989190,-2146.597232,3627.009116,-10035.851024
849.989510,-1036.288319,1702.473667,-9806.022374
849.989830,0.000000,518.144159,-10265.679673
849.990150,1998.556043,-444.123565,-9806.022374
849.990470,4367.215058,1110.308913,-10572.117872
849.990790,5033.400406,2368.659014,-10495.508323
849.991110,2886.803174,2220.617826,-10189.070123
849.991430,1110.308913,2516.700203,-10265.679673
849.991751,888.247130,2590.720797,-10035.851024
849.992071,1850.514855,3997.112087,-10878.556072
849.992391,2590.720797,1480.411884,-10112.460574
849.992711,1332.370696,1184.329507,-9806.022374
849.993031,-1332.370696,-1850.514855,-9499.584175
849.993351,-1406.391290,-2516.700203,-9422.974625
849.993671,444.123565,-3182.885551,-9269.755526
849.993991,1702.473667,444.123565,-9806.022374
849.994311,370.102971,3256.906145,-10265.679673
849.994631,0.000000,2886.803174,-10725.336972
849.994951,74.020594,3256.906145,-10189.070123
849.995271,0.000000,3552.988522,-10418.898773
849.995591,-1184.329507,888.247130,-9806.022374
849.995912,74.020594,-1258.350101,-9959.241474
849.996232,1332.370696,-2442.679609,-9806.022374
849.996552,1406.391290,-2368.659014,-10112.460574
849.996872,1184.329507,-1702.473667,-10342.289223
849.997192,-888.247130,888.247130,-9806.022374
849.997512,-1480.411884,2368.659014,-10112.460574
849.997832,-666.185348,2368.659014,-9806.022374
849.998152,1554.432478,296.082377,-10572.117872
849.998472,1924.535449,-1554.432478,-9959.241474
849.998792,1554.432478,-1628.453072,-10495.508323
849.999112,1998.556043,-592.164754,-10801.946522
849.999432,2220.617826,0.000000,-10189.070123
849.999752,-370.102971,0.000000,-10342.289223
850.000072,-888.247130,518.144159,-9806.022374
850.000393,-592.164754,0.000000,-10342.289223
850.000713,1406.391290,-1850.514855,-10112.460574
850.001033,1702.473667,-1184.329507,-10648.727422
850.001353,1480.411884,-2220.617826,-9039.926876
850.001673,0.000000,0.000000,-10112.460574
850.001993,-1776.494261,-296.082377,-10112.460574
850.002313,-1184.329507,-370.102971,-9729.412825
850.002633,370.102971,1776.494261,-10725.336972
850.002953,888.247130,666.185348,-10112.460574
850.003273,1036.288319,-814.226536,-10342.289223
850.003593,888.247130,-2368.659014,-9959.241474
850.003913,-592.164754,-1628.453072,-9806.022374
850.004233,-1110.308913,-740.205942,-10495.508323
850.004554,-740.205942,-2368.659014,-9499.584175
850.004874,-1110.308913,-3256.906145,-9652.803275
850.005194,-740.205942,-2368.659014,-9652.803275
850.005514,-296.082377,-1258.350101,-9499.584175
850.005834,592.164754,1184.329507,-10265.679673
850.006154,74.020594,1998.556043,-9959.241474
850.006474,-814.226536,2590.720797,-10265.679673
850.006794,-1258.350101,222.061783,-10342.289223
850.007114,666.185348,-1702.473667,-9652.803275
850.007434,1480.411884,-3182.885551,-9959.241474
850.007754,148.041188,-2368.659014,-10035.851024
850.008074,148.041188,74.020594,-10572.117872
850.008394,-1258.350101,1924.535449,-9806.022374
850.008715,-1184.329507,2664.741391,-9959.241474
850.009035,222.061783,1776.494261,-10725.336972
850.009355,1850.514855,444.123565,-10189.070123
850.009675,2220.617826,-666.185348,-10189.070123
850.009995,3404.947333,-222.061783,-10342.289223
850.010315,1554.432478,888.247130,-10878.556072
850.010635,666.185348,1554.432478,-9346.365076
850.010955,-888.247130,1850.514855,-10112.460574
850.011275,888.247130,1258.350101,-9806.022374
850.011595,2812.782580,888.247130,-10342.289223
850.011915,2368.659014,888.247130,-10572.117872
850.012235,1628.453072,592.164754,-10189.070123
850.012555,1480.411884,1924.535449,-10572.117872
850.012876,0.000000,2072.576638,-9959.241474
850.013196,-1850.514855,2442.679609,-9806.022374
850.013516,-740.205942,1776.494261,-10342.289223
850.013836,222.061783,666.185348,-9806.022374
850.014156,3108.864956,-222.061783,-11414.822920
850.014476,3108.864956,-296.082377,-9959.241474
850.014796,2294.638420,1702.473667,-10112.460574
850.015116,1480.411884,3108.864956,-10035.851024
850.015436,0.000000,3330.926739,-9729.412825
850.015756,592.164754,2738.761985,-10955.165621
850.016076,962.267725,-888.247130,-9806.022374
850.016396,666.185348,-1850.514855,-9806.022374
850.016716,1554.432478,-370.102971,-9422.974625
850.017037,1554.432478,2590.720797,-10265.679673
850.017357,0.000000,3627.009116,-10112.460574
850.017677,-888.247130,2368.659014,-10418.898773
850.017997,-222.061783,814.226536,-9959.241474
850.018317,0.000000,370.102971,-9652.803275
850.018637,74.020594,-1036.288319,-10112.460574
850.018957,370.102971,-592.164754,-9806.022374
850.019277,-222.061783,222.061783,-10112.460574
850.019597,296.082377,1258.350101,-9882.631924
850.019917,222.061783,1924.535449,-10495.508323
850.020237,814.226536,444.123565,-10112.460574
850.020557,1110.308913,0.000000,-9882.631924
850.020877,740.205942,-370.102971,-10112.460574
850.021197,1332.370696,0.000000,-10418.898773
850.021518,814.226536,-1110.308913,-9959.241474
850.021838,-518.144159,-518.144159,-9882.631924
850.022158,-1258.350101,222.061783,-9576.193725
850.022478,222.061783,814.226536,-10418.898773
850.022798,1480.411884,0.000000,-10189.070123
850.023118,1332.370696,-666.185348,-10189.070123
850.023438,814.226536,-1554.432478,-9959.241474
850.023758,666.185348,-740.205942,-9806.022374
850.024078,-1110.308913,-740.205942,-10265.679673
850.024398,-2368.659014,-1184.329507,-9806.022374
850.024718,-1628.453072,-1332.370696,-9806.022374
850.025038,74.020594,-1702.473667,-10112.460574
850.025358,2368.659014,-2146.597232,-10035.851024
850.025679,2812.782580,-814.226536,-10342.289223
850.025999,518.144159,0.000000,-10342.289223
850.026319,-1184.329507,1110.308913,-10112.460574
850.026639,-1184.329507,740.205942,-10418.898773
850.026959,222.061783,-2146.597232,-9806.022374
850.027279,370.102971,-4145.153275,-9806.022374
850.027599,962.267725,-4071.132681,-10189.070123
850.027919,2072.576638,-2220.617826,-10801.946522
850.028239,1184.329507,1184.329507,-10801.946522
850.028559,-888.247130,3552.988522,-10955.165621
850.028879,-1702.473667,3923.091493,-10725.336972
850.029199,-296.082377,1332.370696,-10418.898773
850.029519,1110.308913,-1776.494261,-10189.070123
850.029840,444.123565,-3404.947333,-9576.193725
850.030160,74.020594,-2368.659014,-10648.727422
850.030480,-444.123565,222.061783,-9959.241474
850.030800,-814.226536,2812.782580,-10342.289223
850.031120,148.041188,2294.638420,-9806.022374
850.031440,296.082377,3182.885551,-10342.289223
850.031760,2072.576638,1554.432478,-10265.679673
850.032080,2368.659014,-222.061783,-10035.851024
850.032400,2294.638420,-1036.288319,-10035.851024
850.032720,2220.617826,-296.082377,-10418.898773
850.033040,74.020594,74.020594,-9346.365076
850.033360,1480.411884,-962.267725,-8886.707777
850.033680,3923.091493,-518.144159,-9499.584175
850.034001,4589.276840,814.226536,-9346.365076
850.034321,2886.803174,1924.535449,-10189.070123
850.034641,962.267725,3330.926739,-10801.946522
850.034961,-1110.308913,1998.556043,-9499.584175
850.035281,-2886.803174,1480.411884,-9729.412825
850.035601,-3182.885551,-296.082377,-8733.488677
850.035921,-222.061783,-1850.514855,-9346.365076
850.036241,2220.617826,-888.247130,-10342.289223
850.036561,3182.885551,962.267725,-10725.336972
850.036881,2368.659014,3552.988522,-10878.556072
850.037201,1110.308913,3034.844362,-10112.460574
850.037521,-518.144159,3923.091493,-10418.898773
850.037841,-592.164754,2738.761985,-10725.336972
850.038162,-740.205942,592.164754,-10189.070123
850.038482,-370.102971,-592.164754,-9499.584175
850.038802,-148.041188,-1258.350101,-9806.022374
850.039122,-74.020594,-518.144159,-9882.631924
850.039442,-444.123565,962.267725,-10035.851024
850.039762,-1258.350101,3034.844362,-10265.679673
850.040082,-148.041188,3034.844362,-10342.289223
850.040402,296.082377,1924.535449,-10112.460574
850.040722,0.000000,296.082377,-10112.460574
850.041042,666.185348,-1110.308913,-10112.460574
850.041362,1036.288319,-518.144159,-9806.022374
850.041682,1036.288319,74.020594,-9806.022374
850.042002,-222.061783,962.267725,-9959.241474
850.042323,-444.123565,740.205942,-10265.679673
850.042643,888.247130,0.000000,-9959.241474
850.042963,1332.370696,296.082377,-10035.851024
850.043283,1850.514855,74.020594,-10342.289223
850.043603,962.267725,444.123565,-10265.679673
850.043923,-666.185348,296.082377,-9806.022374
850.044243,-1554.432478,-222.061783,-9652.803275
850.044563,-814.226536,-962.267725,-9806.022374
850.044883,444.123565,-1702.473667,-9882.631924
850.045203,1406.391290,-1702.473667,-9806.022374
850.045523,1332.370696,-222.061783,-10189.070123
850.045843,3256.906145,148.041188,-10572.117872
850.046163,2072.576638,1628.453072,-10572.117872
850.046483,0.000000,2146.597232,-10189.070123
850.046804,-962.267725,1258.350101,-10648.727422
850.047124,-148.041188,-296.082377,-9959.241474
850.047444,888.247130,-1480.411884,-10495.508323
850.047764,2812.782580,-1480.411884,-10878.556072
850.048084,2516.700203,-814.226536,-10572.117872
850.048404,1258.350101,962.267725,-11491.432470
850.048724,-370.102971,1036.288319,-10572.117872
850.049044,-1332.370696,1110.308913,-10342.289223
850.049364,-1702.473667,-888.247130,-10189.070123
850.049684,-222.061783,-1554.432478,-10265.679673
850.050004,814.226536,-1998.556043,-10572.117872
850.050324,1554.432478,-1258.350101,-10342.289223
850.050644,0.000000,-370.102971,-10342.289223
850.050965,-296.082377,0.000000,-10035.851024
850.051285,148.041188,-222.061783,-10265.679673
850.051605,666.185348,-666.185348,-10035.851024
850.051925,592.164754,0.000000,-10189.070123
850.052245,666.185348,444.123565,-10418.898773
850.052565,0.000000,962.267725,-9959.241474
850.052885,-222.061783,1110.308913,-10035.851024
850.053205,370.102971,222.061783,-10112.460574
850.053525,296.082377,-962.267725,-9806.022374
850.053845,0.000000,-2072.576638,-9652.803275
850.054165,296.082377,-814.226536,-10112.460574
850.054485,-148.041188,962.267725,-10342.289223
850.054805,518.144159,2442.679609,-10189.070123
850.055126,222.061783,3627.009116,-10495.508323
850.055446,-518.144159,2664.741391,-10189.070123
850.055766,148.041188,1036.288319,-10189.070123
850.056086,1480.411884,-1258.350101,-10112.460574
850.056406,2294.638420,-1924.535449,-10342.289223
850.056726,3627.009116,-740.205942,-10648.727422
850.057046,3404.947333,962.267725,-10495.508323
850.057366,1628.453072,3182.885551,-10648.727422
850.057686,222.061783,4515.256246,-10572.117872
850.058006,-666.185348,5255.462188,-10878.556072
850.058326,-518.144159,3256.906145,-10035.851024
850.058646,1628.453072,962.267725,-10572.117872
850.058966,2368.659014,-888.247130,-10189.070123
850.059287,1776.494261,-1924.535449,-9652.803275
850.059607,0.000000,-1332.370696,-9729.412825
850.059927,0.000000,74.020594,-9652.803275
850.060247,444.123565,2072.576638,-9882.631924
850.060567,74.020594,2886.803174,-9882.631924
850.060887,592.164754,1480.411884,-10112.460574
850.061207,1850.514855,0.000000,-9499.584175
850.061527,962.267725,-666.185348,-9422.974625
850.061847,148.041188,-814.226536,-9652.803275
850.062167,1184.329507,-1406.391290,-9422.974625
850.062487,1184.329507,-1702.473667,-9576.193725
850.062807,222.061783,-888.247130,-9499.584175
850.063127,-1110.308913,518.144159,-9959.241474
850.063448,-148.041188,1554.432478,-9959.241474
850.063768,740.205942,1924.535449,-9806.022374
850.064088,666.185348,1036.288319,-10035.851024
850.064408,0.000000,74.020594,-10342.289223
850.064728,-370.102971,-1554.432478,-9959.241474
850.065048,0.000000,-1332.370696,-9882.631924
850.065368,888.247130,-888.247130,-9806.022374
850.065688,814.226536,814.226536,-10725.336972
850.066008,-296.082377,1850.514855,-10495.508323
850.066328,-740.205942,2146.597232,-10955.165621
850.066649,296.082377,1628.453072,-10648.727422
850.066969,888.247130,370.102971,-10801.946522
850.067289,1406.391290,-148.041188,-10572.117872
850.067609,2146.597232,-444.123565,-10418.898773
850.067929,1850.514855,-370.102971,-10725.336972
850.068249,1036.288319,-296.082377,-10572.117872
850.068569,-962.267725,222.061783,-10112.460574
850.068889,-1924.535449,740.205942,-10112.460574
850.069209,-814.226536,222.061783,-10189.070123
850.069529,0.000000,0.000000,-11184.994271
850.069850,1036.288319,-814.226536,-10418.898773
850.070170,814.226536,-1554.432478,-9959.241474
850.070490,-222.061783,-1184.329507,-9806.022374
850.070810,222.061783,-148.041188,-9806.022374
850.071130,148.041188,74.020594,-10725.336972
850.071450,-814.226536,-1184.329507,-9806.022374
850.071770,-1184.329507,-1332.370696,-9729.412825
850.072090,444.123565,-1628.453072,-9806.022374
850.072410,1480.411884,-444.123565,-9806.022374
850.072730,740.205942,-222.061783,-9806.022374
850.073050,-222.061783,-592.164754,-9959.241474
850.073371,296.082377,-1258.350101,-10035.851024
850.073691,222.061783,-2220.617826,-9882.631924
850.074011,-666.185348,-1554.432478,-10112.460574
850.074331,-444.123565,-518.144159,-10572.117872
850.074651,-222.061783,370.102971,-10265.679673
850.074971,814.226536,1406.391290,-10495.508323
850.075291,666.185348,1998.556043,-10112.460574
850.075611,0.000000,1184.329507,-11108.384721
850.075931,0.000000,-296.082377,-10495.508323
850.076251,888.247130,296.082377,-10572.117872
850.076572,1332.370696,1332.370696,-10572.117872
850.076892,962.267725,2738.761985,-9422.974625
850.077212,814.226536,3701.029710,-10495.508323
850.077532,740.205942,2442.679609,-10725.336972
850.077852,1184.329507,1702.473667,-10418.898773
850.078172,1110.308913,370.102971,-9806.022374
850.078492,1998.556043,-592.164754,-9882.631924
850.078812,2294.638420,222.061783,-9959.241474
850.079132,2812.782580,592.164754,-9806.022374
850.079452,1554.432478,1850.514855,-9806.022374
850.079773,814.226536,2294.638420,-9806.022374
850.080093,148.041188,740.205942,-9346.365076
850.080413,222.061783,222.061783,-9576.193725
850.080733,1036.288319,592.164754,-9882.631924
850.081053,1776.494261,0.000000,-10112.460574
850.081373,1406.391290,-296.082377,-9499.584175
850.081693,592.164754,148.041188,-9422.974625
850.082013,518.144159,370.102971,-9806.022374
850.082333,1406.391290,1110.308913,-10035.851024
850.082653,1184.329507,888.247130,-9729.412825
850.082974,2146.597232,888.247130,-9652.803275
850.083294,2442.679609,518.144159,-9959.241474
850.083614,2220.617826,0.000000,-9806.022374
850.083934,0.000000,666.185348,-9499.584175
850.084254,-1924.535449,296.082377,-9806.022374
850.084574,-1924.535449,1850.514855,-10342.289223
850.084894,-888.247130,2368.659014,-9959.241474
850.085214,1036.288319,2146.597232,-10648.727422
850.085534,370.102971,1628.453072,-10189.070123
850.085854,-222.061783,888.247130,-10342.289223
850.086175,-1258.350101,666.185348,-10342.289223
850.086495,-1110.308913,370.102971,-10648.727422
850.086815,74.020594,148.041188,-9729.412825
850.087135,518.144159,1406.391290,-10189.070123
850.087455,2146.597232,1850.514855,-10418.898773
850.087775,3256.906145,2664.741391,-10801.946522
850.088095,3108.864956,2812.782580,-11184.994271
850.088415,1184.329507,2886.803174,-9959.241474
850.088735,1184.329507,1406.391290,-10189.070123
850.089055,1554.432478,222.061783,-9882.631924
850.089376,370.102971,-518.144159,-9652.803275
850.089696,-740.205942,222.061783,-10112.460574
850.090016,592.164754,444.123565,-9959.241474
850.090336,1924.535449,814.226536,-9806.022374
850.090656,222.061783,1628.453072,-9576.193725
850.090976,-666.185348,1036.288319,-9652.803275
850.091296,1332.370696,1258.350101,-9882.631924
850.091616,3034.844362,1480.411884,-9959.241474
850.091936,3330.926739,1628.453072,-10112.460574
850.092256,2220.617826,1110.308913,-9882.631924
850.092577,1850.514855,740.205942,-9576.193725
850.092897,1998.556043,1184.329507,-10265.679673
850.093217,3034.844362,1480.411884,-10112.460574
850.093537,3034.844362,1924.535449,-10418.898773
850.093857,592.164754,1406.391290,-9959.241474
850.094177,740.205942,1776.494261,-10189.070123
850.094497,2664.741391,2220.617826,-10495.508323
850.094817,3034.844362,2664.741391,-10342.289223
850.095137,0.000000,2590.720797,-10801.946522
850.095457,-740.205942,1480.411884,-10112.460574
850.095777,1110.308913,740.205942,-10648.727422
850.096098,3849.070898,1110.308913,-10418.898773
850.096418,2664.741391,1628.453072,-10495.508323
850.096738,1036.288319,2368.659014,-10189.070123
850.097058,2072.576638,2812.782580,-10265.679673
850.097378,3923.091493,3330.926739,-10801.946522
850.097698,3997.112087,3997.112087,-10801.946522
850.098018,2294.638420,2442.679609,-9959.241474
