#time,accel_x,accel_y,accel_z
876.505750,518.144159,888.247130,-10035.851024
876.506071,740.205942,370.102971,-10112.460574
876.506391,592.164754,0.000000,-10035.851024
876.506711,370.102971,-296.082377,-9806.022374
876.507031,518.144159,-444.123565,-10112.460574
876.507351,74.020594,148.041188,-9959.241474
876.507671,370.102971,740.205942,-10112.460574
876.507992,444.123565,888.247130,-9882.631924
876.508312,740.205942,518.144159,-10035.851024
876.508632,666.185348,148.041188,-9959.241474
876.508952,814.226536,0.000000,-10035.851024
876.509272,962.267725,0.000000,-9959.241474
876.509593,222.061783,370.102971,-11568.042020
876.509913,0.000000,296.082377,-9806.022374
876.510233,0.000000,74.020594,-10112.460574
876.510553,444.123565,148.041188,-10189.070123
876.510873,0.000000,148.041188,-10035.851024
876.511193,148.041188,0.000000,-10495.508323
876.511514,1110.308913,444.123565,-10265.679673
876.511834,1184.329507,370.102971,-10189.070123
876.512154,444.123565,444.123565,-10112.460574
876.512474,370.102971,74.020594,-10342.289223
876.512794,222.061783,0.000000,-10418.898773
876.513115,444.123565,-444.123565,-10112.460574
876.513435,0.000000,-592.164754,-10189.070123
876.513755,-740.205942,-518.144159,-9959.241474
876.514075,-962.267725,-814.226536,-9959.241474
876.514395,-296.082377,-518.144159,-10112.460574
876.514716,-444.123565,0.000000,-10265.679673
876.515036,-1036.288319,0.000000,-10189.070123
876.515356,-444.123565,-518.144159,-9652.803275
876.515676,296.082377,-962.267725,-10112.460574
876.515996,-148.041188,-1258.350101,-10189.070123
876.516316,-962.267725,-1628.453072,-9806.022374
876.516637,-814.226536,-1258.350101,-10418.898773
876.516957,-444.123565,-1480.411884,-9959.241474
876.517277,-740.205942,-1628.453072,-9882.631924
876.517597,-2072.576638,-1702.473667,-9882.631924
876.517917,-2368.659014,-1924.535449,-9806.022374
876.518238,-1480.411884,-1998.556043,-10035.851024
876.518558,-592.164754,-1332.370696,-9729.412825
876.518878,-1184.329507,-1406.391290,-10112.460574
876.519198,-1628.453072,-1924.535449,-10495.508323
876.519518,-1110.308913,-2146.597232,-9652.803275
876.519838,-370.102971,-1924.535449,-10189.070123
876.520159,-592.164754,-1702.473667,-10112.460574
876.520479,-2220.617826,-1998.556043,-10418.898773
876.520799,-2960.823768,-2442.679609,-9959.241474
876.521119,-2812.782580,-2516.700203,-10189.070123
876.521439,-2294.638420,-2812.782580,-9806.022374
876.521760,-2368.659014,-2960.823768,-10189.070123
876.522080,-2960.823768,-3478.967927,-10189.070123
876.522400,-1924.535449,-2812.782580,-9729.412825
876.522720,-222.061783,-2368.659014,-9882.631924
876.523040,740.205942,-1184.329507,-10495.508323
876.523361,0.000000,-592.164754,-10112.460574
876.523681,-1628.453072,-296.082377,-10572.117872
876.524001,-2368.659014,-814.226536,-10572.117872
876.524321,-3256.906145,-2146.597232,-10342.289223
876.524641,-4515.256246,-2960.823768,-10035.851024
876.524961,-5329.482782,-4145.153275,-9806.022374
876.525282,-3775.050304,-4737.318029,-9576.193725
876.525602,-1628.453072,-4589.276840,-9806.022374
876.525922,0.000000,-3108.864956,-9806.022374
876.526242,740.205942,-1036.288319,-10495.508323
876.526562,1110.308913,1036.288319,-10342.289223
876.526883,1702.473667,1924.535449,-10648.727422
876.527203,2220.617826,2146.597232,-10418.898773
876.527523,888.247130,518.144159,-10725.336972
876.527843,-666.185348,-1998.556043,-10189.070123
876.528163,-2442.679609,-3404.947333,-9806.022374
876.528483,-3849.070898,-3330.926739,-9499.584175
876.528804,-5181.441594,-3775.050304,-9499.584175
876.529124,-4959.379811,-4441.235652,-9039.926876
876.529444,-2664.741391,-5477.523971,-8886.707777
876.529764,444.123565,-5625.565159,-9422.974625
876.530084,2294.638420,-3701.029710,-9959.241474
876.530405,2960.823768,-888.247130,-9959.241474
876.530725,3701.029710,2146.597232,-10418.898773
876.531045,4441.235652,3552.988522,-10342.289223
876.531365,2960.823768,3108.864956,-11261.603821
876.531685,-1036.288319,666.185348,-10648.727422
876.532005,-4589.276840,-2516.700203,-10035.851024
876.532326,-6291.750507,-5107.421000,-9422.974625
876.532646,-5033.400406,-7031.956449,-9576.193725
876.532966,-4071.132681,-6661.853478,-9882.631924
876.533286,-3404.947333,-4885.359217,-9576.193725
876.533606,-2220.617826,-1998.556043,-9806.022374
876.533927,74.020594,888.247130,-10572.117872
876.534247,1332.370696,3034.844362,-10801.946522
876.534567,1628.453072,4071.132681,-11261.603821
876.534887,1924.535449,3256.906145,-10955.165621
876.535207,1332.370696,740.205942,-10495.508323
876.535528,74.020594,-1998.556043,-10495.508323
876.535848,-3256.906145,-2886.803174,-10189.070123
876.536168,-5107.421000,-2368.659014,-9806.022374
876.536488,-5625.565159,-1924.535449,-10189.070123
876.536808,-6291.750507,-3330.926739,-9806.022374
876.537128,-7550.100608,-4737.318029,-9116.536426
876.537449,-6069.688724,-5699.585753,-8580.269578
876.537769,-2072.576638,-4885.359217,-9346.365076
876.538089,2072.576638,-2368.659014,-9346.365076
876.538409,3478.967927,592.164754,-10342.289223
876.538729,2368.659014,3034.844362,-10418.898773
876.539050,1776.494261,4071.132681,-10189.070123
876.539370,1776.494261,3256.906145,-10801.946522
876.539690,1628.453072,-148.041188,-10112.460574
876.540010,-592.164754,-3330.926739,-10112.460574
876.540330,-3997.112087,-5847.626942,-9882.631924
876.540650,-6365.771101,-6587.832884,-9193.145976
876.540971,-7920.203579,-4737.318029,-9039.926876
876.541291,-7031.956449,-3775.050304,-9039.926876
876.541611,-3923.091493,-3997.112087,-9193.145976
876.541931,74.020594,-4145.153275,-9806.022374
876.542251,2960.823768,-2812.782580,-10418.898773
876.542572,3923.091493,-592.164754,-10572.117872
876.542892,3849.070898,1480.411884,-10878.556072
876.543212,3330.926739,3034.844362,-10801.946522
876.543532,3627.009116,3849.070898,-11261.603821
876.543852,592.164754,2664.741391,-11568.042020
876.544172,-3478.967927,0.000000,-10955.165621
876.544493,-6069.688724,-4367.215058,-10495.508323
876.544813,-7254.018232,-7254.018232,-9806.022374
876.545133,-5995.668130,-8586.388927,-7890.783629
876.545453,-4737.318029,-9178.553681,-9499.584175
876.545773,-4293.194464,-5995.668130,-9576.193725
876.546094,-2442.679609,-2442.679609,-9882.631924
876.546414,444.123565,1184.329507,-10265.679673
876.546734,4737.318029,3849.070898,-9959.241474
876.547054,6069.688724,4367.215058,-11491.432470
876.547374,3182.885551,2442.679609,-11031.775171
876.547695,814.226536,-2220.617826,-10035.851024
876.548015,-1776.494261,-4737.318029,-8810.098227
876.548335,-2960.823768,-5625.565159,-9576.193725
876.548655,-5625.565159,-5403.503377,-9806.022374
876.548975,-8956.491898,-5255.462188,-9346.365076
876.549295,-8586.388927,-5255.462188,-9422.974625
876.549616,-5477.523971,-4811.338623,-9806.022374
876.549936,-1036.288319,-4737.318029,-9576.193725
876.550256,0.000000,-2812.782580,-9882.631924
876.550576,222.061783,-2072.576638,-9729.412825
876.550896,1480.411884,222.061783,-8963.317327
876.551217,4145.153275,296.082377,-10342.289223
876.551537,3701.029710,740.205942,-10418.898773
876.551857,1480.411884,-1110.308913,-10648.727422
876.552177,-1036.288319,-2220.617826,-10189.070123
876.552497,-2516.700203,-2294.638420,-10495.508323
876.552817,-4737.318029,-1702.473667,-10801.946522
876.553138,-6661.853478,-2368.659014,-10342.289223
876.553458,-6291.750507,-3997.112087,-9729.412825
876.553778,-4441.235652,-5107.421000,-9116.536426
876.554098,-2368.659014,-5181.441594,-9959.241474
876.554418,-222.061783,-2960.823768,-9959.241474
876.554739,1924.535449,-666.185348,-10725.336972
876.555059,4219.173869,1850.514855,-11108.384721
876.555379,3034.844362,1924.535449,-11108.384721
876.555699,814.226536,1480.411884,-10801.946522
876.556019,962.267725,74.020594,-10955.165621
876.556340,296.082377,-370.102971,-10725.336972
876.556660,-1184.329507,-1480.411884,-10112.460574
876.556980,-2664.741391,-3182.885551,-9882.631924
876.557300,-4293.194464,-2664.741391,-9806.022374
876.557620,-5995.668130,-5107.421000,-9882.631924
876.557940,-5773.606348,-5551.544565,-8580.269578
876.558261,-3849.070898,-4219.173869,-8810.098227
876.558581,-1184.329507,-2960.823768,-8963.317327
876.558901,2146.597232,-1628.453072,-9576.193725
876.559221,5181.441594,-222.061783,-9959.241474
876.559541,3034.844362,1998.556043,-10265.679673
876.559862,74.020594,2960.823768,-10418.898773
876.560182,-740.205942,2368.659014,-10189.070123
876.560502,-296.082377,-148.041188,-10418.898773
876.560822,-2220.617826,-1998.556043,-8197.221829
876.561142,-4811.338623,-4515.256246,-9806.022374
876.561462,-4737.318029,-4663.297435,-9576.193725
876.561783,-2886.803174,-3404.947333,-10189.070123
876.562103,-2516.700203,-1850.514855,-9882.631924
876.562423,-962.267725,-518.144159,-9346.365076
876.562743,-296.082377,-518.144159,-10265.679673
876.563063,1628.453072,0.000000,-10572.117872
876.563383,2146.597232,2294.638420,-10955.165621
876.563703,1036.288319,4219.173869,-11184.994271
876.564023,1406.391290,4663.297435,-11031.775171
876.564343,-592.164754,2812.782580,-10572.117872
876.564663,-1184.329507,-222.061783,-10495.508323
876.564983,-1702.473667,-2738.761985,-9882.631924
876.565303,-2294.638420,-4811.338623,-9882.631924
876.565623,-1110.308913,-4293.194464,-9729.412825
876.565943,-2738.761985,-3256.906145,-9806.022374
876.566263,-3552.988522,-814.226536,-9729.412825
876.566583,-2146.597232,962.267725,-9422.974625
876.566903,962.267725,1406.391290,-9806.022374
876.567223,4663.297435,962.267725,-10572.117872
876.567543,3552.988522,1110.308913,-10418.898773
876.567863,2294.638420,666.185348,-10725.336972
876.568183,1332.370696,296.082377,-10112.460574
876.568503,1110.308913,-444.123565,-9652.803275
876.568823,-1480.411884,-2368.659014,-9346.365076
876.569143,-2442.679609,-3849.070898,-9882.631924
876.569463,-2886.803174,-2960.823768,-9652.803275
876.569784,-1924.535449,-1184.329507,-9806.022374
876.570104,-1184.329507,666.185348,-9346.365076
876.570424,-1628.453072,0.000000,-10112.460574
876.570744,814.226536,-2072.576638,-10035.851024
876.571064,2886.803174,-2368.659014,-9499.584175
876.571384,1850.514855,-740.205942,-10189.070123
876.571704,518.144159,1258.350101,-10265.679673
876.572024,444.123565,4071.132681,-10725.336972
876.572344,888.247130,2960.823768,-10801.946522
876.572664,2442.679609,1850.514855,-10189.070123
876.572984,2368.659014,0.000000,-10648.727422
876.573304,-444.123565,-1554.432478,-10955.165621
876.573624,-3034.844362,-2294.638420,-9959.241474
876.573944,-3256.906145,-1998.556043,-10035.851024
876.574264,-2368.659014,-1776.494261,-9729.412825
876.574584,-888.247130,-2368.659014,-9729.412825
876.574904,1480.411884,-370.102971,-10418.898773
876.575224,2368.659014,962.267725,-10725.336972
876.575544,3775.050304,1036.288319,-10648.727422
876.575864,4071.132681,1998.556043,-10342.289223
876.576184,3108.864956,1702.473667,-10342.289223
876.576504,1850.514855,2072.576638,-10342.289223
876.576824,1776.494261,1406.391290,-10725.336972
876.577144,592.164754,1258.350101,-11031.775171
876.577464,-1850.514855,0.000000,-9499.584175
876.577784,-4589.276840,-2738.761985,-9193.145976
876.578104,-3182.885551,-4071.132681,-8656.879127
876.578424,0.000000,-4293.194464,-9422.974625
876.578744,1776.494261,-2812.782580,-9959.241474
876.579064,2220.617826,-2220.617826,-9652.803275
876.579384,1924.535449,444.123565,-11031.775171
876.579704,2812.782580,3552.988522,-10342.289223
876.580024,3478.967927,4367.215058,-10572.117872
876.580344,3256.906145,3478.967927,-9576.193725
876.580664,1184.329507,1184.329507,-10801.946522
876.580985,296.082377,-1480.411884,-10189.070123
876.581305,-1554.432478,-1184.329507,-9729.412825
876.581625,-2220.617826,-148.041188,-9882.631924
876.581945,-1554.432478,1184.329507,-10112.460574
876.582265,-1924.535449,-2442.679609,-9959.241474
876.582585,-1332.370696,-4589.276840,-9806.022374
876.582905,-888.247130,-2368.659014,-9959.241474
876.583225,1110.308913,1480.411884,-10342.289223
876.583545,3256.906145,3552.988522,-10418.898773
876.583865,4811.338623,4515.256246,-11261.603821
876.584185,4145.153275,2220.617826,-10955.165621
876.584505,2072.576638,74.020594,-11031.775171
876.584825,518.144159,-1036.288319,-10572.117872
876.585145,-814.226536,74.020594,-10265.679673
876.585465,-1110.308913,1554.432478,-10112.460574
876.585785,-2220.617826,1258.350101,-10878.556072
876.586105,-814.226536,-2442.679609,-9499.584175
876.586425,-1036.288319,-2812.782580,-10648.727422
876.586745,-1480.411884,-1184.329507,-10342.289223
876.587065,-1110.308913,-2294.638420,-9806.022374
876.587385,444.123565,-1110.308913,-9959.241474
876.587705,2368.659014,1998.556043,-9806.022374
876.588025,3108.864956,1998.556043,-10418.898773
876.588345,2368.659014,1480.411884,-10878.556072
876.588665,1110.308913,2368.659014,-10418.898773
876.588985,-962.267725,3478.967927,-10572.117872
876.589305,-1332.370696,2442.679609,-9499.584175
876.589625,-518.144159,0.000000,-9346.365076
876.589945,-1406.391290,-2886.803174,-9116.536426
876.590265,-2812.782580,-4589.276840,-9806.022374
876.590585,-3108.864956,-3923.091493,-9576.193725
876.590905,-3034.844362,-888.247130,-9806.022374
876.591225,-518.144159,1554.432478,-9806.022374
876.591545,1924.535449,3478.967927,-10112.460574
876.591865,3182.885551,3256.906145,-10265.679673
876.592186,2960.823768,1480.411884,-10495.508323
876.592506,2590.720797,370.102971,-9806.022374
876.592826,2368.659014,0.000000,-9576.193725
876.593146,3330.926739,296.082377,-10189.070123
876.593466,2516.700203,1480.411884,-10342.289223
876.593786,0.000000,-1258.350101,-9959.241474
876.594106,-1850.514855,-2812.782580,-9499.584175
876.594426,-3034.844362,-1258.350101,-9806.022374
876.594746,-1702.473667,1036.288319,-10112.460574
876.595066,740.205942,3256.906145,-9882.631924
876.595386,3627.009116,2516.700203,-10189.070123
876.595706,4737.318029,296.082377,-10342.289223
876.596026,3552.988522,-888.247130,-11031.775171
876.596346,3182.885551,1036.288319,-10801.946522
876.596666,3034.844362,4145.153275,-11031.775171
876.596986,2368.659014,4367.215058,-10725.336972
876.597306,2072.576638,3775.050304,-10418.898773
876.597626,444.123565,1110.308913,-10495.508323
876.597946,-814.226536,-1258.350101,-10112.460574
876.598266,-370.102971,-4293.194464,-10035.851024
876.598586,74.020594,-3108.864956,-9729.412825
876.598906,1036.288319,592.164754,-9882.631924
876.599226,2146.597232,222.061783,-10112.460574
876.599546,2368.659014,1850.514855,-10035.851024
876.599866,2220.617826,2294.638420,-10342.289223
876.600186,1110.308913,1776.494261,-10342.289223
876.600506,2072.576638,1628.453072,-10189.070123
876.600826,3849.070898,0.000000,-10035.851024
876.601146,2590.720797,0.000000,-9806.022374
876.601466,-296.082377,-1036.288319,-9729.412825
876.601786,-2886.803174,-2516.700203,-9652.803275
876.602106,-3182.885551,-2294.638420,-9039.926876
876.602426,-1850.514855,0.000000,-9652.803275
876.602746,-518.144159,1924.535449,-9959.241474
876.603066,814.226536,1776.494261,-9652.803275
876.603387,296.082377,-518.144159,-10112.460574
876.603707,444.123565,-2220.617826,-9422.974625
876.604027,592.164754,-1998.556043,-9499.584175
876.604347,1036.288319,-148.041188,-10572.117872
876.604667,2368.659014,2368.659014,-10035.851024
876.604987,74.020594,3256.906145,-10342.289223
876.605307,-814.226536,2146.597232,-10878.556072
876.605627,-1406.391290,74.020594,-10265.679673
876.605947,-2960.823768,-3034.844362,-10418.898773
876.606267,-2590.720797,-1924.535449,-9959.241474
876.606587,-1850.514855,-666.185348,-9959.241474
876.606907,370.102971,-1036.288319,-10189.070123
876.607227,518.144159,-1850.514855,-10572.117872
876.607547,-814.226536,-1850.514855,-10342.289223
876.607867,-2220.617826,74.020594,-10112.460574
876.608187,444.123565,1406.391290,-10955.165621
876.608507,2368.659014,2960.823768,-10572.117872
876.608827,888.247130,3108.864956,-10725.336972
876.609147,-814.226536,148.041188,-10035.851024
876.609467,-1554.432478,-2886.803174,-9806.022374
876.609787,-592.164754,-2220.617826,-9729.412825
876.610107,74.020594,-1924.535449,-9729.412825
876.610427,1406.391290,-1184.329507,-9806.022374
876.610747,-444.123565,-1480.411884,-9422.974625
876.611067,-1036.288319,-370.102971,-10112.460574
876.611387,-518.144159,0.000000,-9806.022374
876.611707,296.082377,222.061783,-9806.022374
876.612027,4293.194464,2146.597232,-10342.289223
876.612347,5107.421000,2294.638420,-9882.631924
876.612667,2960.823768,1998.556043,-10801.946522
876.612987,370.102971,296.082377,-9959.241474
876.613307,148.041188,-1406.391290,-9882.631924
876.613627,1258.350101,-1554.432478,-9882.631924
876.613947,666.185348,-444.123565,-9729.412825
876.614267,740.205942,962.267725,-10418.898773
876.614588,814.226536,444.123565,-10342.289223
876.614908,1480.411884,740.205942,-10418.898773
876.615228,-296.082377,1036.288319,-9959.241474
876.615548,1924.535449,962.267725,-10342.289223
876.615868,2516.700203,222.061783,-9806.022374
876.616188,1702.473667,222.061783,-10112.460574
876.616508,0.000000,0.000000,-9959.241474
876.616828,666.185348,222.061783,-9959.241474
876.617148,1406.391290,-592.164754,-9806.022374
876.617468,814.226536,-592.164754,-9959.241474
876.617788,740.205942,74.020594,-9959.241474
876.618108,222.061783,1184.329507,-10342.289223
876.618428,-1332.370696,1036.288319,-9806.022374
876.618748,-740.205942,1184.329507,-10112.460574
876.619068,74.020594,1702.473667,-10495.508323
876.619388,1110.308913,-296.082377,-11108.384721
876.619708,3182.885551,-518.144159,-10035.851024
876.620028,592.164754,296.082377,-9806.022374
876.620348,592.164754,1036.288319,-10265.679673
876.620668,1998.556043,2072.576638,-10035.851024
876.620988,2368.659014,2886.803174,-10342.289223
876.621308,2294.638420,3627.009116,-10955.165621
876.621628,-296.082377,2886.803174,-10342.289223
876.621948,-1776.494261,814.226536,-9806.022374
876.622268,-1628.453072,74.020594,-9729.412825
876.622588,-1850.514855,888.247130,-10112.460574
876.622908,-1258.350101,2072.576638,-9729.412825
876.623228,-518.144159,592.164754,-10418.898773
876.623548,1850.514855,-296.082377,-9729.412825
876.623868,2664.741391,-1924.535449,-9806.022374
876.624188,740.205942,-962.267725,-9806.022374
876.624508,-1406.391290,-1258.350101,-9806.022374
876.624828,-2072.576638,-444.123565,-9806.022374
876.625148,-222.061783,-296.082377,-10265.679673
876.625468,1406.391290,444.123565,-10495.508323
876.625789,2368.659014,74.020594,-10648.727422
876.626109,370.102971,0.000000,-10648.727422
876.626429,-370.102971,0.000000,-10725.336972
876.626749,-148.041188,962.267725,-10342.289223
876.627069,0.000000,1332.370696,-10418.898773
876.627389,-296.082377,2368.659014,-10265.679673
876.627709,1036.288319,1628.453072,-10112.460574
876.628029,2590.720797,296.082377,-10189.070123
876.628349,3923.091493,-1036.288319,-9806.022374
876.628669,2146.597232,444.123565,-9499.584175
876.628989,962.267725,962.267725,-9806.022374
876.629309,1406.391290,2960.823768,-10878.556072
876.629629,1480.411884,888.247130,-10418.898773
876.629949,370.102971,148.041188,-9499.584175
876.630269,-962.267725,-1184.329507,-9652.803275
876.630589,-1554.432478,518.144159,-8963.317327
876.630909,1332.370696,1628.453072,-10878.556072
876.631229,3256.906145,1332.370696,-9729.412825
876.631549,2960.823768,-222.061783,-10189.070123
876.631869,1998.556043,-1258.350101,-10112.460574
876.632189,0.000000,-666.185348,-9269.755526
876.632509,-666.185348,1036.288319,-9499.584175
876.632829,-740.205942,3256.906145,-10112.460574
876.633149,518.144159,3775.050304,-10418.898773
876.633469,1850.514855,814.226536,-10495.508323
876.633789,592.164754,-1406.391290,-10189.070123
876.634109,-370.102971,-1332.370696,-9806.022374
876.634429,-1628.453072,-518.144159,-10572.117872
876.634749,-222.061783,0.000000,-10112.460574
876.635069,1332.370696,222.061783,-9729.412825
876.635389,814.226536,222.061783,-10418.898773
876.635709,-296.082377,-1184.329507,-10265.679673
876.636029,-444.123565,-592.164754,-10572.117872
876.636349,-518.144159,592.164754,-9959.241474
876.636669,0.000000,2664.741391,-10495.508323
876.636990,592.164754,1184.329507,-10189.070123
876.637310,222.061783,-1332.370696,-10189.070123
876.637630,-592.164754,-1332.370696,-9729.412825
876.637950,-1332.370696,-1480.411884,-9576.193725
876.638270,-518.144159,222.061783,-9806.022374
876.638590,-148.041188,1184.329507,-9806.022374
876.638910,222.061783,1036.288319,-9576.193725
876.639230,148.041188,-814.226536,-10112.460574
876.639550,370.102971,-1332.370696,-9269.755526
876.639870,592.164754,370.102971,-9806.022374
876.640190,592.164754,962.267725,-9882.631924
876.640510,3034.844362,1924.535449,-9959.241474
876.640830,2294.638420,814.226536,-10418.898773
876.641150,1036.288319,-296.082377,-9499.584175
876.641470,0.000000,370.102971,-10265.679673
876.641790,370.102971,-222.061783,-9882.631924
876.642110,888.247130,-1110.308913,-9959.241474
876.642430,740.205942,-592.164754,-9959.241474
876.642750,444.123565,-1554.432478,-9576.193725
876.643070,74.020594,-666.185348,-10342.289223
876.643390,-814.226536,444.123565,-10112.460574
876.643710,-962.267725,1332.370696,-10495.508323
876.644030,1110.308913,1184.329507,-10342.289223
876.644350,1332.370696,296.082377,-10112.460574
876.644670,888.247130,-518.144159,-10418.898773
876.644990,-222.061783,-1110.308913,-9193.145976
876.645310,-814.226536,-148.041188,-9959.241474
876.645630,296.082377,888.247130,-10112.460574
876.645950,1036.288319,2368.659014,-10189.070123
876.646270,518.144159,1332.370696,-10112.460574
876.646590,-148.041188,148.041188,-9652.803275
876.646910,-888.247130,-370.102971,-10035.851024
876.647230,518.144159,-444.123565,-9882.631924
876.647550,2220.617826,-296.082377,-9882.631924
876.647870,2146.597232,2072.576638,-10189.070123
876.648191,1998.556043,1554.432478,-9729.412825
876.648511,148.041188,1184.329507,-10418.898773
876.648831,-962.267725,1924.535449,-10035.851024
876.649151,0.000000,2072.576638,-10035.851024
876.649471,2368.659014,2294.638420,-10572.117872
876.649791,3701.029710,1258.350101,-9959.241474
876.650111,2368.659014,370.102971,-9806.022374
876.650431,296.082377,-1554.432478,-9729.412825
876.650751,222.061783,-1332.370696,-9346.365076
876.651071,-1036.288319,222.061783,-9576.193725
876.651391,-222.061783,1850.514855,-10035.851024
876.651711,1776.494261,2886.803174,-9959.241474
876.652031,3256.906145,1850.514855,-10342.289223
876.652351,2294.638420,444.123565,-9882.631924
876.652671,1258.350101,814.226536,-10265.679673
876.652991,0.000000,0.000000,-10265.679673
876.653311,222.061783,0.000000,-10035.851024
876.653631,2368.659014,-296.082377,-9806.022374
876.653951,2664.741391,-666.185348,-10112.460574
876.654271,666.185348,-148.041188,-10418.898773
876.654591,-222.061783,1184.329507,-10725.336972
876.654911,-1258.350101,2294.638420,-10495.508323
876.655231,814.226536,2738.761985,-10189.070123
876.655551,1258.350101,1998.556043,-10189.070123
876.655871,814.226536,-444.123565,-9959.241474
876.656191,-296.082377,-518.144159,-10418.898773
876.656511,-1850.514855,666.185348,-9806.022374
876.656831,74.020594,1110.308913,-10572.117872
876.657151,1776.494261,1036.288319,-9882.631924
876.657471,1776.494261,296.082377,-9806.022374
876.657791,1184.329507,-222.061783,-11108.384721
876.658111,-1036.288319,-148.041188,-10035.851024
876.658431,-666.185348,74.020594,-9959.241474
876.658751,666.185348,1036.288319,-10342.289223
876.659071,1628.453072,1332.370696,-9959.241474
876.659392,1110.308913,444.123565,-11338.213370
876.659712,-666.185348,-740.205942,-10112.460574
876.660032,-888.247130,-370.102971,-10801.946522
876.660352,-1850.514855,814.226536,-9882.631924
876.660672,-222.061783,1776.494261,-10035.851024
876.660992,-148.041188,1628.453072,-10189.070123
876.661312,-296.082377,-148.041188,-9959.241474
876.661632,296.082377,-2294.638420,-9652.803275
876.661952,-296.082377,-3404.947333,-9806.022374
876.662272,518.144159,-3108.864956,-9499.584175
876.662592,-666.185348,-222.061783,-9806.022374
876.662912,-592.164754,370.102971,-9729.412825
876.663232,1110.308913,74.020594,-9882.631924
876.663552,1850.514855,-1480.411884,-10725.336972
876.663872,1406.391290,-1036.288319,-10342.289223
876.664192,-888.247130,-1036.288319,-9806.022374
876.664512,-296.082377,2072.576638,-9882.631924
876.664832,518.144159,4145.153275,-10725.336972
876.665152,1184.329507,3701.029710,-10418.898773
876.665472,0.000000,814.226536,-10035.851024
876.665792,370.102971,-2886.803174,-9882.631924
876.666113,962.267725,-3701.029710,-9806.022374
876.666433,962.267725,-1480.411884,-9806.022374
876.666753,0.000000,370.102971,-10189.070123
876.667073,-1406.391290,1628.453072,-9959.241474
876.667393,-666.185348,1406.391290,-10112.460574
876.667713,740.205942,1480.411884,-10265.679673
876.668033,296.082377,2664.741391,-10878.556072
876.668353,74.020594,1850.514855,-10572.117872
876.668673,2516.700203,1406.391290,-10572.117872
876.668993,3552.988522,-1924.535449,-9806.022374
876.669314,3108.864956,-3330.926739,-9882.631924
876.669634,1110.308913,-1924.535449,-9959.241474
876.669954,-148.041188,1036.288319,-9806.022374
876.670274,0.000000,3552.988522,-10495.508323
876.670594,1850.514855,4441.235652,-9959.241474
876.670914,2442.679609,2516.700203,-9806.022374
876.671234,1998.556043,-814.226536,-10035.851024
876.671554,1702.473667,-2664.741391,-9882.631924
876.671874,296.082377,-1850.514855,-9729.412825
876.672195,444.123565,592.164754,-9039.926876
876.672515,1110.308913,2738.761985,-9806.022374
876.672835,1628.453072,2368.659014,-9959.241474
876.673155,1628.453072,1110.308913,-9652.803275
876.673475,1406.391290,-296.082377,-9576.193725
876.673795,962.267725,-518.144159,-9422.974625
876.674115,2220.617826,-740.205942,-9806.022374
876.674435,2590.720797,-222.061783,-9882.631924
876.674755,1036.288319,-740.205942,-9806.022374
876.675075,592.164754,-1258.350101,-10265.679673
876.675396,148.041188,-148.041188,-10189.070123
876.675716,-2590.720797,2738.761985,-9882.631924
876.676036,-1776.494261,4145.153275,-10418.898773
876.676356,666.185348,3775.050304,-10495.508323
876.676676,2072.576638,518.144159,-10418.898773
876.676996,2516.700203,-2442.679609,-10572.117872
876.677316,1184.329507,-3923.091493,-10112.460574
876.677636,0.000000,-1554.432478,-10112.460574
876.677956,-370.102971,1332.370696,-10112.460574
876.678277,0.000000,3552.988522,-10955.165621
876.678597,148.041188,3404.947333,-10342.289223
876.678917,-814.226536,1998.556043,-10418.898773
876.679237,-740.205942,222.061783,-9652.803275
876.679557,-444.123565,0.000000,-10035.851024
876.679877,888.247130,0.000000,-10495.508323
876.680197,1036.288319,-444.123565,-10342.289223
876.680517,0.000000,-1110.308913,-9806.022374
876.680837,-2294.638420,0.000000,-9806.022374
876.681157,-3256.906145,666.185348,-9806.022374
876.681478,-1998.556043,3256.906145,-9499.584175
876.681798,-1110.308913,3552.988522,-10801.946522
876.682118,814.226536,814.226536,-9729.412825
876.682438,-148.041188,-2368.659014,-9576.193725
876.682758,-814.226536,-4441.235652,-9806.022374
876.683078,888.247130,-3923.091493,-9576.193725
876.683398,-518.144159,-814.226536,-10265.679673
876.683718,-592.164754,2516.700203,-9652.803275
876.684038,-1332.370696,3627.009116,-10112.460574
876.684359,592.164754,2442.679609,-10112.460574
876.684679,0.000000,-222.061783,-9882.631924
876.684999,0.000000,-2072.576638,-9959.241474
876.685319,1184.329507,-2220.617826,-9576.193725
876.685639,2220.617826,-1850.514855,-10035.851024
876.685959,2590.720797,-814.226536,-9959.241474
876.686279,2368.659014,888.247130,-9806.022374
876.686599,-592.164754,1110.308913,-10342.289223
876.686919,-1924.535449,1850.514855,-10035.851024
876.687239,-888.247130,1480.411884,-10342.289223
876.687560,1110.308913,1850.514855,-10418.898773
876.687880,2590.720797,444.123565,-10112.460574
876.688200,2590.720797,-814.226536,-10035.851024
876.688520,1628.453072,-2516.700203,-10265.679673
876.688840,1036.288319,-2072.576638,-9806.022374
876.689160,1036.288319,1258.350101,-9499.584175
876.689480,814.226536,3552.988522,-10189.070123
876.689800,2294.638420,4367.215058,-9806.022374
876.690120,2516.700203,2442.679609,-10572.117872
876.690441,2220.617826,-1258.350101,-10189.070123
876.690761,1184.329507,-3775.050304,-9039.926876
876.691081,1628.453072,-2960.823768,-9576.193725
876.691401,1628.453072,-1258.350101,-9806.022374
876.691721,1998.556043,222.061783,-9959.241474
876.692041,1110.308913,2368.659014,-11874.480219
876.692361,-666.185348,2516.700203,-10572.117872
876.692681,-1184.329507,2738.761985,-10265.679673
876.693001,-1110.308913,1332.370696,-10265.679673
876.693321,2072.576638,-962.267725,-9882.631924
876.693642,2886.803174,-2146.597232,-10112.460574
876.693962,1184.329507,-2516.700203,-9959.241474
876.694282,-1628.453072,-3034.844362,-9576.193725
876.694602,-2368.659014,-1332.370696,-9269.755526
876.694922,-1924.535449,1036.288319,-9193.145976
876.695242,592.164754,2664.741391,-10112.460574
876.695562,1850.514855,3404.947333,-9882.631924
876.695882,-148.041188,1258.350101,-10495.508323
876.696202,740.205942,222.061783,-10342.289223
876.696523,1036.288319,-1628.453072,-9959.241474
876.696843,2368.659014,-1258.350101,-9882.631924
876.697163,2146.597232,-1702.473667,-9806.022374
876.697483,1480.411884,74.020594,-10342.289223
876.697803,-1332.370696,1332.370696,-9806.022374
876.698123,-3552.988522,1924.535449,-10342.289223
876.698443,-1776.494261,1554.432478,-10189.070123
876.698763,-1184.329507,518.144159,-10189.070123
876.699083,0.000000,-592.164754,-10418.898773
876.699403,1850.514855,-1480.411884,-10112.460574
876.699724,962.267725,-1554.432478,-10418.898773
876.700044,-1184.329507,-444.123565,-10035.851024
876.700364,222.061783,1332.370696,-10112.460574
876.700684,0.000000,1554.432478,-10418.898773
876.701004,666.185348,370.102971,-10035.851024
876.701324,592.164754,296.082377,-10035.851024
876.701644,-1332.370696,-370.102971,-10495.508323
876.701964,-1776.494261,-592.164754,-10035.851024
876.702284,370.102971,-1258.350101,-10035.851024
876.702605,1480.411884,74.020594,-10725.336972
876.702925,296.082377,1776.494261,-10495.508323
876.703245,-1332.370696,3330.926739,-10878.556072
876.703565,-2960.823768,3034.844362,-9959.241474
876.703885,-1776.494261,592.164754,-9959.241474
876.704205,666.185348,-1998.556043,-9729.412825
876.704525,2516.700203,-2368.659014,-9576.193725
876.704845,3182.885551,-2368.659014,-8503.660028
876.705165,2146.597232,-740.205942,-9806.022374
876.705485,1702.473667,666.185348,-10265.679673
876.705806,0.000000,2146.597232,-9806.022374
876.706126,-888.247130,962.267725,-8963.317327
876.706446,666.185348,1480.411884,-9959.241474
876.706766,1554.432478,-740.205942,-9806.022374
876.707086,2886.803174,-888.247130,-10112.460574
876.707406,2220.617826,-518.144159,-10342.289223
876.707726,2146.597232,1480.411884,-9806.022374
876.708046,2368.659014,2960.823768,-10418.898773
876.708366,2886.803174,2886.803174,-10572.117872
876.708687,2368.659014,1628.453072,-10418.898773
876.709007,1036.288319,814.226536,-10035.851024
876.709327,-222.061783,296.082377,-9959.241474
876.709647,-518.144159,-888.247130,-9499.584175
876.709967,518.144159,-592.164754,-9959.241474
876.710287,1480.411884,888.247130,-9882.631924
876.710607,296.082377,814.226536,-10265.679673
876.710927,740.205942,1406.391290,-10572.117872
876.711247,888.247130,296.082377,-10112.460574
876.711567,1332.370696,296.082377,-10112.460574
876.711888,444.123565,-1036.288319,-9576.193725
876.712208,592.164754,-592.164754,-9806.022374
876.712528,518.144159,-888.247130,-10189.070123
876.712848,1554.432478,-1406.391290,-10342.289223
876.713168,666.185348,-444.123565,-9882.631924
876.713488,-592.164754,1998.556043,-10418.898773
876.713808,0.000000,1628.453072,-10342.289223
876.714128,-444.123565,1110.308913,-9959.241474
876.714448,-888.247130,-666.185348,-10189.070123
876.714769,666.185348,-1480.411884,-10265.679673
876.715089,-592.164754,-2294.638420,-9959.241474
876.715409,296.082377,-666.185348,-10265.679673
876.715729,370.102971,2368.659014,-10342.289223
876.716049,666.185348,2220.617826,-10572.117872
876.716369,1702.473667,1332.370696,-10955.165621
876.716689,-888.247130,1258.350101,-10418.898773
876.717009,-1332.370696,-740.205942,-10265.679673
876.717329,-1110.308913,-1850.514855,-9882.631924
876.717649,-1628.453072,-1702.473667,-9729.412825
876.717970,222.061783,-2368.659014,-9806.022374
876.718290,592.164754,-1554.432478,-10189.070123
876.718610,740.205942,666.185348,-10801.946522
876.718930,740.205942,962.267725,-10955.165621
876.719250,-444.123565,1850.514855,-10648.727422
876.719570,-1110.308913,1406.391290,-10648.727422
876.719890,222.061783,1776.494261,-10572.117872
876.720210,-814.226536,1332.370696,-11108.384721
876.720530,-666.185348,-666.185348,-10265.679673
876.720851,-1850.514855,-2072.576638,-10265.679673
876.721171,-1406.391290,-2294.638420,-9806.022374
876.721491,-1480.411884,-1258.350101,-10035.851024
876.721811,-962.267725,-1110.308913,-9959.241474
876.722131,148.041188,-222.061783,-10648.727422
876.722451,370.102971,-444.123565,-9959.241474
876.722771,1332.370696,1036.288319,-10189.070123
876.723091,1036.288319,1554.432478,-9576.193725
876.723411,1998.556043,1554.432478,-8963.317327
876.723731,2664.741391,-592.164754,-9499.584175
876.724052,2294.638420,-1776.494261,-9806.022374
876.724372,74.020594,-2664.741391,-9729.412825
876.724692,-592.164754,-2072.576638,-9116.536426
876.725012,518.144159,-888.247130,-9269.755526
876.725332,1332.370696,1110.308913,-9806.022374
876.725652,2886.803174,1332.370696,-9499.584175
876.725972,2738.761985,2294.638420,-10495.508323
876.726292,444.123565,370.102971,-9882.631924
876.726612,1332.370696,148.041188,-10265.679673
876.726933,814.226536,-592.164754,-10035.851024
876.727253,2590.720797,1406.391290,-10265.679673
876.727573,1998.556043,592.164754,-9806.022374
876.727893,2664.741391,444.123565,-10648.727422
876.728213,1998.556043,0.000000,-10342.289223
876.728533,1702.473667,740.205942,-10418.898773
876.728853,1702.473667,2516.700203,-10342.289223
876.729173,1924.535449,3923.091493,-10801.946522
876.729493,2590.720797,2516.700203,-11184.994271
876.729813,1628.453072,888.247130,-10878.556072
876.730134,0.000000,-814.226536,-10418.898773
876.730454,740.205942,-814.226536,-8886.707777
876.730774,1258.350101,-370.102971,-10189.070123
876.731094,1998.556043,2368.659014,-9959.241474
876.731414,1258.350101,3108.864956,-11108.384721
876.731734,-592.164754,666.185348,-9729.412825
876.732054,296.082377,0.000000,-9729.412825
876.732374,-962.267725,-666.185348,-9806.022374
876.732694,-592.164754,0.000000,-9806.022374
876.733015,592.164754,0.000000,-9806.022374
876.733335,296.082377,518.144159,-9652.803275
876.733655,148.041188,518.144159,-9882.631924
876.733975,-444.123565,1406.391290,-9652.803275
876.734295,-1554.432478,1924.535449,-9729.412825
876.734615,-666.185348,1258.350101,-10035.851024
876.734935,888.247130,-222.061783,-9346.365076
876.735255,148.041188,-1628.453072,-9806.022374
876.735575,-740.205942,-1480.411884,-10112.460574
876.735895,-1184.329507,0.000000,-9806.022374
876.736216,-1628.453072,518.144159,-10112.460574
876.736536,370.102971,1628.453072,-10572.117872
876.736856,1554.432478,814.226536,-10342.289223
876.737176,1628.453072,-296.082377,-10495.508323
876.737496,-222.061783,-592.164754,-10418.898773
876.737816,-2960.823768,74.020594,-9882.631924
876.738136,-2368.659014,1776.494261,-10265.679673
876.738456,-1110.308913,888.247130,-10418.898773
876.738776,962.267725,-592.164754,-10648.727422
876.739097,1480.411884,-1480.411884,-10572.117872
876.739417,-518.144159,-962.267725,-10572.117872
876.739737,-592.164754,-1184.329507,-10035.851024
876.740057,296.082377,444.123565,-10035.851024
876.740377,222.061783,1924.535449,-10572.117872
876.740697,0.000000,1628.453072,-10878.556072
876.741017,814.226536,518.144159,-10418.898773
876.741337,444.123565,-296.082377,-10265.679673
876.741657,814.226536,-740.205942,-9806.022374
876.741977,1184.329507,0.000000,-10648.727422
876.742298,962.267725,888.247130,-10035.851024
876.742618,2516.700203,-74.020594,-10112.460574
876.742938,1184.329507,-148.041188,-9576.193725
876.743258,74.020594,444.123565,-10572.117872
876.743578,444.123565,592.164754,-9346.365076
876.743898,1332.370696,1554.432478,-10112.460574
876.744218,2072.576638,814.226536,-9806.022374
876.744538,4145.153275,-1184.329507,-9346.365076
876.744858,2516.700203,-740.205942,-10648.727422
876.745179,592.164754,1110.308913,-10265.679673
876.745499,0.000000,1332.370696,-9346.365076
876.745819,1480.411884,2072.576638,-10342.289223
876.746139,2664.741391,888.247130,-9806.022374
876.746459,2960.823768,-518.144159,-9959.241474
876.746779,1554.432478,-740.205942,-10418.898773
876.747099,888.247130,-1184.329507,-10035.851024
876.747419,-592.164754,-518.144159,-9806.022374
876.747739,-444.123565,1036.288319,-9959.241474
876.748059,1628.453072,1776.494261,-10189.070123
876.748380,2516.700203,518.144159,-10342.289223
876.748700,1332.370696,148.041188,-10648.727422
876.749020,444.123565,962.267725,-10495.508323
876.749340,-814.226536,2220.617826,-10035.851024
876.749660,-148.041188,1480.411884,-10495.508323
876.749980,3182.885551,592.164754,-10035.851024
876.750300,3701.029710,518.144159,-10725.336972
876.750620,1258.350101,0.000000,-10342.289223
876.750940,0.000000,1036.288319,-10648.727422
876.751261,-740.205942,1998.556043,-10725.336972
876.751581,-666.185348,2072.576638,-10035.851024
876.751901,0.000000,666.185348,-9959.241474
876.752221,222.061783,-592.164754,-10189.070123
876.752541,-296.082377,-1184.329507,-10342.289223
876.752861,-2442.679609,-1110.308913,-9576.193725
876.753181,-3627.009116,-222.061783,-9729.412825
876.753501,-1628.453072,370.102971,-9499.584175
876.753821,296.082377,296.082377,-10035.851024
876.754141,2146.597232,0.000000,-10035.851024
876.754462,888.247130,444.123565,-9882.631924
876.754782,0.000000,1184.329507,-9959.241474
876.755102,-370.102971,666.185348,-10112.460574
876.755422,-444.123565,0.000000,-9882.631924
876.755742,1110.308913,-1036.288319,-9806.022374
876.756062,1184.329507,-2072.576638,-9269.755526
876.756382,444.123565,-1924.535449,-9882.631924
876.756702,296.082377,-518.144159,-10112.460574
876.757022,-740.205942,-740.205942,-9806.022374
876.757343,370.102971,-1110.308913,-10112.460574
876.757663,1258.350101,-592.164754,-10342.289223
876.757983,148.041188,-222.061783,-10801.946522
876.758303,-962.267725,2368.659014,-11184.994271
876.758623,-2368.659014,3997.112087,-10801.946522
876.758943,-1850.514855,4441.235652,-10572.117872
876.759263,-296.082377,1776.494261,-10648.727422
876.759583,2294.638420,-592.164754,-10189.070123
876.759903,2146.597232,-2516.700203,-10112.460574
876.760223,444.123565,-2812.782580,-10418.898773
876.760544,1184.329507,-2812.782580,-9806.022374
876.760864,-666.185348,222.061783,-10189.070123
876.761184,-592.164754,1998.556043,-9806.022374
876.761504,888.247130,2590.720797,-9882.631924
876.761824,1554.432478,2442.679609,-10035.851024
876.762144,1702.473667,1184.329507,-10342.289223
876.762464,592.164754,-592.164754,-9882.631924
876.762784,814.226536,-2442.679609,-9346.365076
876.763104,1554.432478,-3404.947333,-9346.365076
876.763425,2368.659014,-3034.844362,-9422.974625
876.763745,1628.453072,-296.082377,-9882.631924
876.764065,-296.082377,1332.370696,-10112.460574
876.764385,-592.164754,2886.803174,-9959.241474
876.764705,0.000000,2812.782580,-10189.070123
876.765025,2220.617826,2146.597232,-9729.412825
876.765345,3775.050304,222.061783,-9806.022374
876.765666,4219.173869,-1850.514855,-10418.898773
876.765986,4515.256246,-1480.411884,-9959.241474
876.766306,1110.308913,-370.102971,-9806.022374
876.766626,-2442.679609,592.164754,-9959.241474
876.766946,-962.267725,888.247130,-9576.193725
876.767266,1998.556043,1480.411884,-10725.336972
876.767586,2590.720797,0.000000,-10495.508323
876.767907,444.123565,2368.659014,-10878.556072
876.768227,-1850.514855,2516.700203,-10572.117872
876.768547,-296.082377,2368.659014,-9806.022374
876.768867,2516.700203,1184.329507,-10955.165621
876.769187,1850.514855,-370.102971,-9959.241474
876.769507,0.000000,-962.267725,-10112.460574
876.769827,-74.020594,-518.144159,-10035.851024
876.770148,1480.411884,1480.411884,-10265.679673
876.770468,1480.411884,2590.720797,-10572.117872
876.770788,2146.597232,2886.803174,-9806.022374
876.771108,2442.679609,1258.350101,-9806.022374
876.771428,2590.720797,-148.041188,-10342.289223
876.771748,592.164754,-518.144159,-9882.631924
876.772068,-2368.659014,-444.123565,-9422.974625
876.772389,-1628.453072,740.205942,-10265.679673
876.772709,888.247130,888.247130,-10189.070123
876.773029,3182.885551,0.000000,-10035.851024
876.773349,2812.782580,1036.288319,-9652.803275
876.773669,1036.288319,-296.082377,-9882.631924
876.773989,-666.185348,814.226536,-9652.803275
876.774310,-148.041188,962.267725,-9576.193725
876.774630,814.226536,-222.061783,-9806.022374
876.774950,2368.659014,-1184.329507,-10342.289223
876.775270,666.185348,-2146.597232,-10112.460574
876.775590,-2146.597232,518.144159,-9806.022374
876.775910,-1776.494261,2590.720797,-10342.289223
876.776230,-1332.370696,2886.803174,-10495.508323
876.776551,-296.082377,666.185348,-10035.851024
876.776871,-518.144159,-592.164754,-10189.070123
876.777191,-2886.803174,-2072.576638,-10112.460574
876.777511,-3182.885551,-1628.453072,-9882.631924
876.777831,-3034.844362,0.000000,-10801.946522
876.778151,-1998.556043,814.226536,-10495.508323
876.778471,0.000000,148.041188,-10725.336972
876.778792,148.041188,148.041188,-10572.117872
876.779112,0.000000,888.247130,-11721.261119
876.779432,0.000000,2294.638420,-10878.556072
876.779752,-962.267725,3108.864956,-10265.679673
876.780072,-1184.329507,2072.576638,-10418.898773
876.780392,148.041188,0.000000,-9499.584175
876.780713,1406.391290,-2220.617826,-10189.070123
876.781033,2146.597232,-1998.556043,-10189.070123
876.781353,1628.453072,74.020594,-10265.679673
876.781673,-814.226536,2072.576638,-10495.508323
876.781993,-1258.350101,2220.617826,-9346.365076
876.782313,-962.267725,962.267725,-9193.145976
876.782633,444.123565,-444.123565,-9346.365076
876.782954,-1036.288319,-2072.576638,-9193.145976
876.783274,-1406.391290,-1702.473667,-9269.755526
876.783594,1258.350101,-814.226536,-9346.365076
876.783914,3701.029710,-444.123565,-9422.974625
876.784234,5107.421000,-444.123565,-9729.412825
876.784554,3552.988522,518.144159,-9422.974625
876.784874,1036.288319,1110.308913,-10189.070123
876.785195,1258.350101,1480.411884,-9269.755526
876.785515,2886.803174,1110.308913,-10035.851024
876.785835,2442.679609,0.000000,-10189.070123
876.786155,2516.700203,-2664.741391,-9346.365076
876.786475,1332.370696,-1924.535449,-10112.460574
876.786795,518.144159,-518.144159,-10035.851024
876.787115,296.082377,1850.514855,-10418.898773
876.787436,-370.102971,4145.153275,-11644.651570
876.787756,0.000000,2590.720797,-10648.727422
876.788076,-444.123565,-370.102971,-10112.460574
876.788396,1480.411884,-1850.514855,-10725.336972
876.788716,1406.391290,-3182.885551,-10112.460574
876.789036,1406.391290,-296.082377,-9576.193725
876.789357,1702.473667,1924.535449,-10801.946522
876.789677,1924.535449,2368.659014,-10648.727422
876.789997,2072.576638,1036.288319,-10495.508323
876.790317,1110.308913,-666.185348,-10495.508323
876.790637,370.102971,-1258.350101,-9193.145976
876.790957,-74.020594,0.000000,-9882.631924
876.791277,1406.391290,814.226536,-10035.851024
876.791598,2220.617826,370.102971,-9882.631924
876.791918,0.000000,-222.061783,-10112.460574
876.792238,-1924.535449,-1036.288319,-9806.022374
876.792558,-3627.009116,-1110.308913,-9269.755526
876.792878,-1628.453072,518.144159,-9499.584175
876.793198,1628.453072,1924.535449,-10418.898773
876.793518,3404.947333,1702.473667,-9959.241474
876.793839,3034.844362,296.082377,-10189.070123
876.794159,1776.494261,0.000000,-9806.022374
876.794479,-444.123565,148.041188,-9729.412825
876.794799,-1554.432478,1406.391290,-9959.241474
876.795119,-592.164754,2072.576638,-9882.631924
876.795439,370.102971,518.144159,-9882.631924
876.795759,0.000000,-592.164754,-9959.241474
876.796080,-1110.308913,-1554.432478,-10112.460574
876.796400,-3552.988522,-666.185348,-9959.241474
876.796720,-3034.844362,2368.659014,-10112.460574
876.797040,-888.247130,4219.173869,-10418.898773
876.797360,1110.308913,3330.926739,-10572.117872
876.797680,1998.556043,1036.288319,-10265.679673
876.798001,-592.164754,-2146.597232,-10418.898773
876.798321,0.000000,-3552.988522,-9652.803275
876.798641,74.020594,-2146.597232,-9806.022374
876.798961,74.020594,296.082377,-9959.241474
876.799281,814.226536,2146.597232,-9806.022374
876.799601,740.205942,2664.741391,-10342.289223
876.799921,1110.308913,2294.638420,-10342.289223
876.800242,592.164754,740.205942,-10112.460574
876.800562,-518.144159,444.123565,-10112.460574
876.800882,0.000000,-1628.453072,-9652.803275
876.801202,1406.391290,-1702.473667,-9729.412825
876.801522,1406.391290,-1554.432478,-10189.070123
876.801842,444.123565,-296.082377,-11184.994271
876.802162,888.247130,2146.597232,-10572.117872
876.802483,814.226536,3775.050304,-10725.336972
876.802803,2960.823768,3775.050304,-10418.898773
876.803123,3182.885551,1850.514855,-11184.994271
876.803443,2146.597232,0.000000,-11568.042020
876.803763,666.185348,-1332.370696,-10035.851024
876.804083,1184.329507,666.185348,-9959.241474
876.804403,1850.514855,2590.720797,-10648.727422
876.804724,3330.926739,2812.782580,-10725.336972
876.805044,2368.659014,1554.432478,-9882.631924
876.805364,1776.494261,0.000000,-10189.070123
876.805684,962.267725,-814.226536,-9806.022374
876.806004,222.061783,-740.205942,-9806.022374
876.806324,888.247130,0.000000,-10265.679673
876.806645,666.185348,74.020594,-9959.241474
876.806965,592.164754,888.247130,-9882.631924
876.807285,1184.329507,1406.391290,-10878.556072
876.807605,1036.288319,666.185348,-9806.022374
876.807925,1406.391290,370.102971,-10189.070123
876.808245,962.267725,-1036.288319,-9959.241474
876.808565,1332.370696,-1110.308913,-9729.412825
876.808886,2072.576638,-888.247130,-9806.022374
876.809206,1036.288319,-592.164754,-9806.022374
876.809526,74.020594,444.123565,-10112.460574
876.809846,-296.082377,1554.432478,-10342.289223
876.810166,-1776.494261,1998.556043,-10648.727422
876.810486,-962.267725,1036.288319,-9882.631924
876.810806,-1480.411884,-222.061783,-9959.241474
876.811127,-1258.350101,-1110.308913,-9959.241474
876.811447,-592.164754,-370.102971,-9959.241474
876.811767,-1480.411884,0.000000,-10418.898773
876.812087,814.226536,1258.350101,-10112.460574
876.812407,296.082377,1110.308913,-10572.117872
876.812727,740.205942,518.144159,-9959.241474
876.813048,-518.144159,-222.061783,-9729.412825
876.813368,-1036.288319,-592.164754,-10342.289223
876.813688,-1036.288319,-1110.308913,-9882.631924
876.814008,-666.185348,-1258.350101,-9806.022374
876.814328,0.000000,-1258.350101,-9882.631924
876.814648,-148.041188,74.020594,-9806.022374
876.814968,-1702.473667,222.061783,-10572.117872
876.815289,-2368.659014,962.267725,-9882.631924
876.815609,-1110.308913,1554.432478,-10495.508323
876.815929,0.000000,518.144159,-10648.727422
876.816249,592.164754,740.205942,-9499.584175
876.816569,74.020594,-1184.329507,-10342.289223
876.816889,888.247130,-1554.432478,-10112.460574
876.817209,814.226536,74.020594,-10112.460574
876.817530,518.144159,1332.370696,-10112.460574
876.817850,518.144159,1776.494261,-10112.460574
876.818170,1480.411884,1628.453072,-10112.460574
876.818490,1628.453072,1406.391290,-10189.070123
876.818810,1998.556043,1036.288319,-10342.289223
876.819130,592.164754,592.164754,-9806.022374
876.819450,518.144159,-888.247130,-9806.022374
876.819771,666.185348,-1036.288319,-9806.022374
876.820091,518.144159,-1110.308913,-9116.536426
876.820411,0.000000,-444.123565,-9806.022374
876.820731,962.267725,1036.288319,-9576.193725
876.821051,2442.679609,2072.576638,-10189.070123
876.821371,2664.741391,1924.535449,-10801.946522
876.821692,2590.720797,1702.473667,-9806.022374
876.822012,4663.297435,1036.288319,-10265.679673
876.822332,2960.823768,888.247130,-10418.898773
876.822652,1776.494261,-1332.370696,-9882.631924
876.822972,1110.308913,-888.247130,-9806.022374
876.823292,1036.288319,0.000000,-8963.317327
876.823612,1258.350101,962.267725,-10342.289223
876.823933,0.000000,2220.617826,-10189.070123
876.824253,-148.041188,1480.411884,-10418.898773
876.824573,-740.205942,740.205942,-9729.412825
876.824893,-1406.391290,-1184.329507,-9806.022374
876.825213,0.000000,-2072.576638,-9422.974625
876.825533,1036.288319,-2294.638420,-10035.851024
876.825853,1036.288319,-222.061783,-9882.631924
876.826174,740.205942,666.185348,-10572.117872
876.826494,0.000000,1036.288319,-9806.022374
876.826814,-148.041188,1850.514855,-9959.241474
876.827134,148.041188,1406.391290,-9959.241474
876.827454,1628.453072,518.144159,-10418.898773
876.827774,1924.535449,-962.267725,-10265.679673
876.828094,814.226536,-2368.659014,-9959.241474
876.828415,-1702.473667,-2590.720797,-9959.241474
876.828735,-2220.617826,-2220.617826,-10035.851024
876.829055,-1554.432478,-1628.453072,-9882.631924
876.829375,-1258.350101,740.205942,-10265.679673
876.829695,-962.267725,2590.720797,-10265.679673
876.830015,0.000000,2812.782580,-11108.384721
876.830336,1998.556043,1554.432478,-10801.946522
876.830656,0.000000,-370.102971,-10648.727422
876.830976,-740.205942,-1628.453072,-10265.679673
876.831296,-1554.432478,-2960.823768,-9806.022374
876.831616,296.082377,-2442.679609,-10572.117872
876.831936,1258.350101,-1184.329507,-10342.289223
876.832256,0.000000,1036.288319,-10035.851024
876.832577,1110.308913,1850.514855,-10495.508323
876.832897,1924.535449,1554.432478,-10265.679673
876.833217,2072.576638,1184.329507,-10035.851024
876.833537,1184.329507,-962.267725,-10035.851024
876.833857,296.082377,-2220.617826,-10112.460574
876.834177,0.000000,-1924.535449,-9499.584175
876.834497,-370.102971,-444.123565,-9882.631924
876.834818,370.102971,1036.288319,-9729.412825
876.835138,-1184.329507,2072.576638,-10342.289223
876.835458,-1184.329507,2886.803174,-10035.851024
876.835778,-1110.308913,2664.741391,-10265.679673
876.836098,-370.102971,2442.679609,-9652.803275
876.836418,-666.185348,0.000000,-9806.022374
876.836738,666.185348,-3182.885551,-9499.584175
876.837059,2072.576638,-4367.215058,-9039.926876
876.837379,2516.700203,-2220.617826,-9269.755526
876.837699,1628.453072,-592.164754,-9729.412825
876.838019,1332.370696,2220.617826,-9806.022374
876.838339,1258.350101,3182.885551,-10648.727422
876.838659,740.205942,3108.864956,-10265.679673
876.838980,-148.041188,2146.597232,-9422.974625
876.839300,-444.123565,296.082377,-10035.851024
876.839620,148.041188,-1924.535449,-10418.898773
876.839940,1702.473667,-2368.659014,-9729.412825
876.840260,1702.473667,-2368.659014,-9882.631924
876.840580,2368.659014,-444.123565,-9882.631924
876.840900,518.144159,1628.453072,-10112.460574
876.841221,1850.514855,5477.523971,-11338.213370
876.841541,1258.350101,5551.544565,-10878.556072
876.841861,1776.494261,2960.823768,-10572.117872
876.842181,3182.885551,-592.164754,-10418.898773
876.842501,2146.597232,-2738.761985,-9882.631924
876.842821,1480.411884,-2886.803174,-9882.631924
876.843141,666.185348,-592.164754,-10035.851024
876.843462,-370.102971,2516.700203,-10265.679673
876.843782,-814.226536,3849.070898,-10495.508323
876.844102,518.144159,2960.823768,-10265.679673
876.844422,3182.885551,1702.473667,-10265.679673
876.844742,2738.761985,0.000000,-9806.022374
876.845062,1702.473667,-740.205942,-9959.241474
876.845383,1036.288319,-1110.308913,-9576.193725
876.845703,888.247130,-888.247130,-9346.365076
876.846023,740.205942,444.123565,-9039.926876
876.846343,-444.123565,1110.308913,-9652.803275
876.846663,-518.144159,1702.473667,-9882.631924
876.846983,0.000000,1480.411884,-10035.851024
876.847303,74.020594,148.041188,-9652.803275
876.847624,0.000000,-444.123565,-10342.289223
876.847944,-888.247130,-1850.514855,-9806.022374
876.848264,-296.082377,-2220.617826,-9269.755526
876.848584,444.123565,-1406.391290,-10572.117872
876.848904,74.020594,1702.473667,-11261.603821
876.849224,-370.102971,2072.576638,-10189.070123
876.849544,-666.185348,1998.556043,-10495.508323
876.849865,0.000000,1406.391290,-10418.898773
876.850185,740.205942,-888.247130,-9882.631924
876.850505,1554.432478,0.000000,-11338.213370
876.850825,222.061783,-444.123565,-10418.898773
876.851145,-888.247130,0.000000,-10572.117872
876.851465,-1184.329507,74.020594,-10418.898773
876.851785,-962.267725,518.144159,-11491.432470
876.852106,-1998.556043,222.061783,-10189.070123
876.852426,-1406.391290,592.164754,-10418.898773
876.852746,0.000000,1924.535449,-10725.336972
876.853066,962.267725,962.267725,-10648.727422
876.853386,-148.041188,814.226536,-10035.851024
876.853706,-296.082377,-1184.329507,-10112.460574
876.854027,-74.020594,-1776.494261,-9422.974625
876.854347,222.061783,-2368.659014,-9652.803275
876.854667,-74.020594,-74.020594,-9959.241474
876.854987,296.082377,1406.391290,-9806.022374
876.855307,1850.514855,2738.761985,-10035.851024
876.855627,2220.617826,2590.720797,-10035.851024
876.855947,2960.823768,666.185348,-10035.851024
876.856268,3775.050304,-1406.391290,-9806.022374
876.856588,3108.864956,-1924.535449,-9576.193725
876.856908,1554.432478,-2368.659014,-9422.974625
876.857228,370.102971,-1850.514855,-9806.022374
876.857548,1554.432478,-2220.617826,-9269.755526
876.857868,2072.576638,-814.226536,-9576.193725
876.858188,1850.514855,1406.391290,-10648.727422
876.858509,444.123565,2960.823768,-10265.679673
876.858829,666.185348,2812.782580,-10189.070123
876.859149,1332.370696,2146.597232,-10342.289223
876.859469,1184.329507,-148.041188,-9806.022374
876.859789,1628.453072,-2368.659014,-10112.460574
876.860109,1480.411884,-3552.988522,-10035.851024
876.860429,1998.556043,-2368.659014,-10035.851024
876.860750,1554.432478,444.123565,-10265.679673
876.861070,592.164754,3923.091493,-10955.165621
876.861390,666.185348,4515.256246,-10878.556072
876.861710,0.000000,3775.050304,-11184.994271
876.862030,-1628.453072,444.123565,-10495.508323
876.862350,-2664.741391,-2220.617826,-9806.022374
876.862671,-1406.391290,-2220.617826,-9806.022374
876.862991,296.082377,-1258.350101,-10189.070123
876.863311,1184.329507,-370.102971,-10265.679673
876.863631,962.267725,1110.308913,-10648.727422
876.863951,666.185348,1554.432478,-10648.727422
876.864271,-666.185348,1702.473667,-10035.851024
876.864591,0.000000,2516.700203,-10572.117872
876.864911,1406.391290,1184.329507,-10035.851024
876.865231,1554.432478,-666.185348,-10189.070123
876.865551,814.226536,-1998.556043,-9882.631924
876.865871,0.000000,-3552.988522,-9576.193725
876.866191,-1110.308913,-3552.988522,-9346.365076
876.866511,-1332.370696,740.205942,-9959.241474
876.866831,148.041188,2812.782580,-10648.727422
876.867151,-148.041188,3108.864956,-9959.241474
876.867471,1258.350101,1998.556043,-10342.289223
876.867791,-370.102971,-444.123565,-10035.851024
876.868111,-740.205942,-2368.659014,-9422.974625
876.868431,-296.082377,-2368.659014,-10189.070123
876.868751,888.247130,-2368.659014,-9882.631924
876.869071,1998.556043,-1036.288319,-10265.679673
876.869391,1258.350101,-592.164754,-10112.460574
876.869711,0.000000,1480.411884,-10265.679673
876.870031,-1036.288319,3108.864956,-10265.679673
876.870351,74.020594,4145.153275,-11797.870669
876.870671,-222.061783,2368.659014,-10495.508323
876.870991,-888.247130,-444.123565,-10112.460574
876.871311,0.000000,-2442.679609,-10265.679673
876.871631,518.144159,-3108.864956,-10189.070123
876.871951,1184.329507,-1924.535449,-9882.631924
876.872271,222.061783,1184.329507,-10189.070123
876.872591,370.102971,3330.926739,-10648.727422
876.872911,148.041188,4145.153275,-10495.508323
876.873231,74.020594,2294.638420,-10725.336972
876.873551,-1036.288319,518.144159,-10265.679673
876.873871,-370.102971,-1184.329507,-9882.631924
876.874191,1998.556043,-1850.514855,-10342.289223
876.874511,2664.741391,-888.247130,-9806.022374
876.874831,2812.782580,148.041188,-9806.022374
876.875151,1406.391290,1332.370696,-10189.070123
876.875471,148.041188,1332.370696,-9959.241474
876.875791,0.000000,1258.350101,-10035.851024
876.876111,1110.308913,814.226536,-10112.460574
876.876431,2664.741391,592.164754,-9806.022374
876.876751,1628.453072,-666.185348,-9959.241474
876.877071,592.164754,-1628.453072,-9959.241474
876.877391,1258.350101,-888.247130,-9346.365076
876.877711,1554.432478,666.185348,-10418.898773
876.878031,1332.370696,1998.556043,-10342.289223
876.878351,1406.391290,2294.638420,-10189.070123
876.878671,1554.432478,1184.329507,-9959.241474
876.878991,888.247130,148.041188,-10648.727422
876.879311,222.061783,-148.041188,-9959.241474
876.879631,-444.123565,-888.247130,-9729.412825
876.879951,1110.308913,-962.267725,-9882.631924
876.880271,1406.391290,-148.041188,-9652.803275
876.880591,296.082377,888.247130,-9806.022374
876.880911,-666.185348,1406.391290,-10725.336972
876.881231,592.164754,1406.391290,-9806.022374
876.881551,370.102971,1036.288319,-10495.508323
876.881871,1702.473667,666.185348,-10495.508323
876.882191,1998.556043,-222.061783,-9652.803275
876.882511,1998.556043,-740.205942,-10725.336972
876.882831,1406.391290,0.000000,-10648.727422
876.883151,370.102971,592.164754,-10265.679673
876.883471,-740.205942,2072.576638,-10572.117872
876.883791,-518.144159,2812.782580,-10112.460574
876.884111,592.164754,2294.638420,-10265.679673
876.884431,666.185348,888.247130,-10648.727422
876.884751,444.123565,-888.247130,-9806.022374
876.885071,-148.041188,-1480.411884,-10035.851024
876.885391,296.082377,-1036.288319,-10189.070123
876.885711,1258.350101,-962.267725,-10112.460574
876.886031,814.226536,-518.144159,-9116.536426
876.886351,0.000000,0.000000,-10342.289223
876.886671,-1628.453072,592.164754,-9882.631924
876.886991,-2442.679609,888.247130,-9806.022374
876.887311,-1406.391290,1184.329507,-10265.679673
876.887631,962.267725,148.041188,-10801.946522
876.887951,1480.411884,-1776.494261,-9959.241474
876.888271,148.041188,-1850.514855,-9652.803275
876.888591,-1332.370696,-1258.350101,-9959.241474
876.888911,-2146.597232,0.000000,-9729.412825
876.889231,-962.267725,1258.350101,-10189.070123
876.889551,666.185348,1036.288319,-9959.241474
876.889871,1924.535449,518.144159,-9959.241474
876.890191,222.061783,148.041188,-9652.803275
876.890511,-296.082377,74.020594,-10189.070123
876.890831,-1332.370696,1554.432478,-9729.412825
876.891151,-1036.288319,2664.741391,-10342.289223
876.891471,-888.247130,1332.370696,-9652.803275
876.891791,0.000000,0.000000,-9882.631924
876.892111,296.082377,-1406.391290,-10265.679673
876.892431,666.185348,-1628.453072,-9499.584175
876.892751,296.082377,-444.123565,-9882.631924
876.893071,0.000000,740.205942,-10189.070123
876.893391,1332.370696,1702.473667,-9806.022374
876.893711,1332.370696,2072.576638,-10725.336972
876.894031,1628.453072,1258.350101,-10648.727422
876.894351,1258.350101,888.247130,-10265.679673
876.894671,1480.411884,-444.123565,-9806.022374
876.894991,2294.638420,-1480.411884,-10495.508323
876.895311,2590.720797,-1480.411884,-10342.289223
876.895631,2294.638420,-518.144159,-10495.508323
876.895951,-222.061783,1998.556043,-10572.117872
876.896271,-1036.288319,2368.659014,-10265.679673
876.896591,-1036.288319,2886.803174,-10572.117872
876.896911,962.267725,1702.473667,-9959.241474
876.897231,1776.494261,-1258.350101,-10112.460574
876.897551,1702.473667,-1628.453072,-9269.755526
876.897871,1110.308913,-2442.679609,-10035.851024
876.898191,1702.473667,-2442.679609,-9882.631924
876.898511,2368.659014,1184.329507,-9806.022374
876.898831,666.185348,3404.947333,-10342.289223
876.899151,1036.288319,3997.112087,-9652.803275
876.899471,1332.370696,3478.967927,-10495.508323
876.899791,1850.514855,2072.576638,-10342.289223
876.900111,1406.391290,-1776.494261,-9576.193725
876.900431,888.247130,-3404.947333,-9729.412825
876.900751,962.267725,-3701.029710,-9576.193725
876.901071,518.144159,-2294.638420,-9499.584175
876.901391,1110.308913,2072.576638,-10342.289223
876.901711,518.144159,4367.215058,-10572.117872
876.902031,-666.185348,4367.215058,-10342.289223
876.902351,370.102971,2072.576638,-10342.289223
876.902671,2220.617826,-1332.370696,-9959.241474
876.902991,1110.308913,-3923.091493,-9882.631924
876.903311,666.185348,-3478.967927,-9882.631924
876.903631,222.061783,-444.123565,-10801.946522
876.903951,-296.082377,1554.432478,-10035.851024
876.904271,-444.123565,3256.906145,-11031.775171
876.904591,-814.226536,4071.132681,-10265.679673
876.904911,-296.082377,1480.411884,-10495.508323
876.905231,1406.391290,962.267725,-10725.336972
876.905551,222.061783,-1258.350101,-10801.946522
876.905871,-666.185348,-2294.638420,-10495.508323
876.906191,0.000000,-1184.329507,-9959.241474
876.906511,666.185348,-444.123565,-10035.851024
876.906831,222.061783,518.144159,-9806.022374
876.907151,-666.185348,2146.597232,-10495.508323
876.907471,-1776.494261,2886.803174,-10648.727422
876.907791,-888.247130,2220.617826,-10189.070123
876.908111,592.164754,370.102971,-9959.241474
876.908431,296.082377,-1850.514855,-9652.803275
876.908751,666.185348,-2294.638420,-9806.022374
876.909071,-444.123565,-1850.514855,-10342.289223
876.909391,-1406.391290,-1258.350101,-9499.584175
876.909711,-1480.411884,1406.391290,-9422.974625
876.910031,-1332.370696,3849.070898,-10112.460574
876.910351,666.185348,3404.947333,-10801.946522
876.910671,1554.432478,518.144159,-10342.289223
876.910991,1776.494261,-1184.329507,-10112.460574
876.911311,222.061783,-2368.659014,-8886.707777
876.911631,0.000000,-1480.411884,-9806.022374
876.911951,962.267725,-888.247130,-9806.022374
876.912271,592.164754,-592.164754,-10112.460574
876.912591,1110.308913,518.144159,-10035.851024
876.912911,0.000000,2072.576638,-10189.070123
876.913231,370.102971,1554.432478,-10495.508323
876.913551,0.000000,2886.803174,-10265.679673
876.913871,1554.432478,1184.329507,-10418.898773
876.914191,3034.844362,-1554.432478,-10189.070123
876.914511,3627.009116,-2294.638420,-9652.803275
876.914831,1702.473667,-2812.782580,-9959.241474
876.915151,-148.041188,0.000000,-10265.679673
876.915471,-296.082377,1850.514855,-10418.898773
876.915791,1036.288319,3108.864956,-10725.336972
876.916111,1776.494261,2294.638420,-10265.679673
876.916431,1406.391290,592.164754,-10189.070123
876.916751,0.000000,-814.226536,-10725.336972
876.917071,-148.041188,-1036.288319,-9652.803275
876.917391,-518.144159,-370.102971,-10265.679673
876.917711,1480.411884,-814.226536,-9882.631924
876.918031,2590.720797,-1702.473667,-9806.022374
876.918351,2368.659014,-1036.288319,-10035.851024
876.918671,1628.453072,-222.061783,-10189.070123
876.918991,444.123565,1554.432478,-9959.241474
876.919311,962.267725,3256.906145,-9959.241474
876.919631,1184.329507,2368.659014,-10572.117872
876.919951,1480.411884,592.164754,-9806.022374
876.920271,1184.329507,-1554.432478,-10572.117872
876.920591,296.082377,-3627.009116,-9959.241474
876.920911,740.205942,-2294.638420,-9499.584175
876.921231,-888.247130,222.061783,-10189.070123
876.921551,-1776.494261,2960.823768,-8503.660028
876.921871,-666.185348,3478.967927,-9806.022374
876.922191,-1110.308913,3849.070898,-10342.289223
876.922511,-1184.329507,666.185348,-9959.241474
876.922831,-148.041188,-1258.350101,-9959.241474
876.923151,1924.535449,-2738.761985,-9499.584175
876.923471,1924.535449,-2886.803174,-10189.070123
876.923791,1184.329507,-2442.679609,-9576.193725
876.924111,296.082377,-592.164754,-10955.165621
876.924431,296.082377,2590.720797,-9576.193725
876.924751,0.000000,3849.070898,-10725.336972
876.925071,296.082377,3775.050304,-11031.775171
876.925391,592.164754,1702.473667,-10418.898773
876.925711,1110.308913,-2886.803174,-9806.022374
876.926031,-444.123565,-3552.988522,-10418.898773
876.926351,-1480.411884,-2442.679609,-10035.851024
876.926671,-2368.659014,-962.267725,-10265.679673
876.926991,-962.267725,1702.473667,-9959.241474
876.927311,-370.102971,2368.659014,-10801.946522
876.927631,1110.308913,2664.741391,-10265.679673
876.927951,-1258.350101,2368.659014,-10878.556072
876.928271,-2442.679609,1184.329507,-10725.336972
876.928591,-1998.556043,518.144159,-9576.193725
876.928911,444.123565,888.247130,-10495.508323
876.929231,2886.803174,-1110.308913,-9959.241474
876.929551,2590.720797,-1184.329507,-9652.803275
876.929871,814.226536,0.000000,-10112.460574
876.930191,-444.123565,1628.453072,-10189.070123
876.930511,444.123565,3997.112087,-10035.851024
876.930831,-148.041188,3849.070898,-10265.679673
876.931151,1036.288319,1776.494261,-9193.145976
876.931471,962.267725,-740.205942,-9882.631924
876.931791,-148.041188,-2960.823768,-10035.851024
876.932111,-1110.308913,-3627.009116,-9346.365076
876.932431,2072.576638,-1702.473667,-9806.022374
876.932751,2664.741391,1110.308913,-10189.070123
876.933071,2516.700203,3849.070898,-9729.412825
876.933391,1406.391290,3923.091493,-10725.336972
876.933711,1036.288319,2294.638420,-10878.556072
876.934031,1406.391290,148.041188,-9729.412825
876.934351,1258.350101,-296.082377,-10495.508323
876.934671,3182.885551,-1702.473667,-9576.193725
876.934991,2886.803174,-1406.391290,-9882.631924
876.935311,1924.535449,814.226536,-9959.241474
876.935631,1480.411884,3330.926739,-10648.727422
876.935951,1480.411884,4663.297435,-10801.946522
876.936271,1776.494261,3923.091493,-11031.775171
876.936591,2442.679609,2368.659014,-10495.508323
876.936911,1998.556043,962.267725,-10265.679673
876.937231,1332.370696,-814.226536,-10342.289223
876.937551,0.000000,-370.102971,-9959.241474
876.937871,-1036.288319,-888.247130,-9882.631924
876.938191,-592.164754,444.123565,-9806.022374
876.938511,-518.144159,2442.679609,-10035.851024
876.938831,-222.061783,3034.844362,-9729.412825
876.939151,1332.370696,3627.009116,-10878.556072
876.939471,74.020594,1702.473667,-10189.070123
876.939791,-444.123565,-1258.350101,-9729.412825
876.940111,592.164754,-2516.700203,-9729.412825
876.940431,592.164754,-3256.906145,-9576.193725
876.940751,592.164754,-2664.741391,-8963.317327
876.941071,1480.411884,-518.144159,-10035.851024
876.941391,1332.370696,1332.370696,-9959.241474
876.941711,-148.041188,2516.700203,-9729.412825
876.942031,-814.226536,1850.514855,-10495.508323
876.942351,370.102971,-296.082377,-10035.851024
876.942671,1332.370696,-2146.597232,-9729.412825
876.942991,0.000000,-1406.391290,-9882.631924
876.943311,-1998.556043,-1110.308913,-10112.460574
876.943631,-2146.597232,-592.164754,-10035.851024
876.943951,-1258.350101,74.020594,-10572.117872
876.944271,-296.082377,0.000000,-9729.412825
876.944591,592.164754,-740.205942,-10112.460574
876.944911,74.020594,-296.082377,-10725.336972
876.945231,-888.247130,0.000000,-10342.289223
876.945551,-370.102971,1110.308913,-10265.679673
876.945871,222.061783,1480.411884,-10189.070123
876.946191,518.144159,296.082377,-10495.508323
876.946511,0.000000,-1406.391290,-9882.631924
876.946831,-1628.453072,-1554.432478,-10342.289223
876.947151,-2072.576638,-592.164754,-9959.241474
876.947471,148.041188,444.123565,-10725.336972
876.947791,1406.391290,1258.350101,-10265.679673
876.948111,2960.823768,666.185348,-10342.289223
876.948431,2368.659014,518.144159,-10725.336972
876.948751,666.185348,1480.411884,-11031.775171
876.949071,-2590.720797,1258.350101,-9652.803275
876.949391,-4219.173869,1332.370696,-10189.070123
876.949711,-1998.556043,592.164754,-9652.803275
876.950031,1628.453072,-1480.411884,-9346.365076
876.950351,3182.885551,-814.226536,-10112.460574
876.950671,2220.617826,888.247130,-10035.851024
876.950991,814.226536,2146.597232,-10495.508323
876.951311,-444.123565,2368.659014,-10035.851024
876.951631,74.020594,148.041188,-8427.050478
876.951951,814.226536,-1776.494261,-9499.584175
876.952271,1184.329507,-1998.556043,-9959.241474
876.952591,814.226536,-148.041188,-9959.241474
876.952911,1406.391290,1406.391290,-9959.241474
876.953231,1406.391290,2812.782580,-9959.241474
876.953551,2886.803174,2220.617826,-10189.070123
876.953871,2886.803174,-1184.329507,-9499.584175
876.954191,1036.288319,-2146.597232,-10189.070123
876.954511,-222.061783,-1258.350101,-10572.117872
876.954831,518.144159,222.061783,-9806.022374
876.955151,1332.370696,1258.350101,-10495.508323
876.955471,2368.659014,814.226536,-9959.241474
876.955791,2442.679609,814.226536,-10189.070123
876.956111,1924.535449,666.185348,-10648.727422
876.956431,1850.514855,222.061783,-10878.556072
876.956751,888.247130,962.267725,-10725.336972
876.957071,888.247130,1406.391290,-10418.898773
876.957390,370.102971,1998.556043,-10189.070123
876.957710,-370.102971,814.226536,-10342.289223
876.958030,-814.226536,1776.494261,-10801.946522
876.958350,-1406.391290,1924.535449,-10265.679673
876.958670,814.226536,1554.432478,-10418.898773
876.958990,2516.700203,1110.308913,-10265.679673
876.959310,888.247130,-592.164754,-9576.193725
876.959630,-1036.288319,-1480.411884,-9422.974625
876.959950,-1332.370696,-962.267725,-9269.755526
876.960270,-814.226536,74.020594,-9422.974625
876.960590,1258.350101,1554.432478,-9116.536426
876.960910,1184.329507,1628.453072,-9882.631924
876.961230,2368.659014,-592.164754,-9499.584175
876.961550,2442.679609,-1258.350101,-8197.221829
876.961870,1628.453072,-1998.556043,-9882.631924
876.962190,-592.164754,-1036.288319,-9652.803275
876.962510,-1702.473667,518.144159,-9576.193725
876.962830,-1184.329507,1628.453072,-10112.460574
876.963150,148.041188,222.061783,-9806.022374
876.963470,0.000000,-1036.288319,-9882.631924
876.963790,-2294.638420,-444.123565,-10342.289223
876.964110,-2590.720797,148.041188,-10112.460574
876.964430,-1776.494261,148.041188,-10648.727422
876.964750,-1924.535449,370.102971,-10801.946522
876.965070,-2368.659014,-740.205942,-9729.412825
876.965390,-814.226536,-1110.308913,-9959.241474
876.965710,1406.391290,666.185348,-11108.384721
876.966030,2960.823768,1628.453072,-11108.384721
876.966350,3404.947333,4367.215058,-11031.775171
876.966670,3256.906145,3997.112087,-11108.384721
876.966990,1776.494261,1258.350101,-10878.556072
876.967310,1184.329507,-222.061783,-10725.336972
876.967630,-1702.473667,-1702.473667,-10112.460574
876.967950,-1850.514855,-962.267725,-10265.679673
876.968270,-666.185348,814.226536,-10189.070123
876.968590,1998.556043,2516.700203,-10725.336972
876.968909,2368.659014,1332.370696,-9882.631924
876.969229,444.123565,740.205942,-10418.898773
876.969549,-1924.535449,666.185348,-10265.679673
876.969869,370.102971,0.000000,-10112.460574
876.970189,1776.494261,0.000000,-9959.241474
876.970509,2220.617826,0.000000,-10189.070123
876.970829,1998.556043,-1184.329507,-9422.974625
876.971149,1776.494261,-1332.370696,-9729.412825
876.971469,2590.720797,-962.267725,-10265.679673
876.971789,2442.679609,1406.391290,-10342.289223
876.972109,1110.308913,1480.411884,-9959.241474
876.972428,888.247130,1554.432478,-9806.022374
876.972748,518.144159,1184.329507,-9806.022374
876.973068,2368.659014,-1184.329507,-10878.556072
876.973388,1776.494261,-814.226536,-9729.412825
876.973708,962.267725,-962.267725,-10112.460574
876.974028,592.164754,518.144159,-9499.584175
876.974348,888.247130,1702.473667,-9422.974625
876.974668,1554.432478,1702.473667,-10035.851024
876.974988,1702.473667,1036.288319,-10265.679673
876.975308,444.123565,222.061783,-10342.289223
876.975627,-444.123565,-222.061783,-9806.022374
876.975947,-444.123565,-370.102971,-9959.241474
876.976267,0.000000,-1258.350101,-9652.803275
876.976587,888.247130,-1184.329507,-9652.803275
876.976907,740.205942,-962.267725,-10112.460574
876.977227,-444.123565,0.000000,-9039.926876
876.977547,-370.102971,1480.411884,-9729.412825
876.977867,-222.061783,2664.741391,-10648.727422
876.978187,1110.308913,1480.411884,-10801.946522
876.978507,888.247130,-444.123565,-9729.412825
876.978827,-1258.350101,-1258.350101,-10189.070123
876.979146,-1480.411884,-2294.638420,-10189.070123
876.979466,74.020594,-1480.411884,-9576.193725
876.979786,-888.247130,888.247130,-10878.556072
876.980106,-1332.370696,2368.659014,-10418.898773
876.980426,-1850.514855,1998.556043,-10648.727422
876.980746,-222.061783,-222.061783,-10725.336972
876.981066,592.164754,-1554.432478,-10035.851024
876.981386,-222.061783,-1258.350101,-9576.193725
876.981706,518.144159,-444.123565,-10495.508323
876.982026,1258.350101,-1480.411884,-9806.022374
876.982345,1110.308913,370.102971,-10112.460574
876.982665,0.000000,1628.453072,-10495.508323
876.982985,-1110.308913,1036.288319,-10035.851024
876.983305,-888.247130,0.000000,-9729.412825
876.983625,444.123565,-444.123565,-10342.289223
876.983945,148.041188,-1776.494261,-9576.193725
876.984265,222.061783,-1924.535449,-9806.022374
876.984585,1406.391290,-1776.494261,-9806.022374
876.984905,1702.473667,-962.267725,-9269.755526
876.985225,74.020594,592.164754,-10189.070123
876.985545,1184.329507,1036.288319,-10189.070123
876.985864,1628.453072,740.205942,-9806.022374
876.986184,1110.308913,222.061783,-10112.460574
876.986504,1702.473667,1258.350101,-10342.289223
876.986824,592.164754,740.205942,-10189.070123
876.987144,-148.041188,1332.370696,-10189.070123
876.987464,-296.082377,444.123565,-10112.460574
876.987784,1628.453072,666.185348,-9806.022374
876.988104,444.123565,1776.494261,-10342.289223
876.988424,-1480.411884,0.000000,-10112.460574
876.988744,-592.164754,1110.308913,-9652.803275
876.989064,888.247130,1258.350101,-9269.755526
876.989383,3923.091493,1258.350101,-10955.165621
876.989703,3552.988522,148.041188,-9193.145976
876.990023,2738.761985,-296.082377,-12257.527968
876.990343,2294.638420,0.000000,-9576.193725
876.990663,3701.029710,2664.741391,-9882.631924
876.990983,2146.597232,3627.009116,-11031.775171
876.991303,1184.329507,1554.432478,-10112.460574
876.991623,2072.576638,-148.041188,-9882.631924
876.991943,1036.288319,-2516.700203,-10035.851024
876.992263,0.000000,-1480.411884,-9806.022374
876.992582,-962.267725,0.000000,-9806.022374
876.992902,666.185348,2220.617826,-10418.898773
876.993222,1036.288319,3256.906145,-10725.336972
876.993542,518.144159,1924.535449,-10495.508323
876.993862,0.000000,1332.370696,-10418.898773
876.994182,-444.123565,74.020594,-10878.556072
876.994502,1924.535449,888.247130,-9882.631924
876.994822,2886.803174,2368.659014,-11414.822920
876.995142,2516.700203,2072.576638,-9959.241474
876.995462,1924.535449,1480.411884,-10418.898773
876.995782,370.102971,444.123565,-10955.165621
876.996101,-1332.370696,148.041188,-9729.412825
876.996421,-888.247130,370.102971,-9806.022374
876.996741,-740.205942,296.082377,-10112.460574
876.997061,-1406.391290,740.205942,-9039.926876
876.997381,-666.185348,148.041188,-9806.022374
876.997701,592.164754,1036.288319,-9882.631924
876.998021,-518.144159,148.041188,-9652.803275
876.998341,-888.247130,222.061783,-9652.803275
876.998661,-962.267725,370.102971,-9652.803275
876.998981,148.041188,-1110.308913,-9499.584175
876.999300,444.123565,-1998.556043,-9499.584175
876.999620,0.000000,-1776.494261,-9499.584175
876.999940,-1776.494261,222.061783,-10112.460574
877.000260,-518.144159,1184.329507,-10189.070123
877.000580,592.164754,1110.308913,-10495.508323
877.000900,814.226536,-888.247130,-9729.412825
877.001220,74.020594,-1924.535449,-9959.241474
877.001540,-592.164754,-2738.761985,-9806.022374
877.001860,-740.205942,-1628.453072,-10035.851024
877.002180,-962.267725,0.000000,-10342.289223
877.002500,-296.082377,814.226536,-11031.775171
877.002819,-74.020594,962.267725,-9729.412825
877.003139,-222.061783,518.144159,-10265.679673
877.003459,296.082377,-1332.370696,-10418.898773
877.003779,370.102971,-2072.576638,-10112.460574
877.004099,296.082377,0.000000,-10112.460574
877.004419,814.226536,-370.102971,-10572.117872
877.004739,1332.370696,-814.226536,-9652.803275
877.005059,592.164754,-296.082377,-10418.898773
877.005379,148.041188,-148.041188,-10418.898773
877.005699,-592.164754,-1332.370696,-9806.022374
877.006019,-296.082377,148.041188,-9959.241474
877.006338,1036.288319,1036.288319,-10955.165621
877.006658,1110.308913,-296.082377,-9806.022374
877.006978,1406.391290,-1554.432478,-9959.241474
877.007298,-1184.329507,-1258.350101,-9806.022374
877.007618,296.082377,888.247130,-9882.631924
877.007938,2368.659014,1554.432478,-10801.946522
877.008258,3552.988522,370.102971,-9729.412825
877.008578,4663.297435,0.000000,-10035.851024
877.008898,1258.350101,0.000000,-10035.851024
877.009218,0.000000,74.020594,-10725.336972
877.009537,2072.576638,1110.308913,-10189.070123
877.009857,1702.473667,666.185348,-9882.631924
877.010177,1480.411884,592.164754,-9882.631924
877.010497,1406.391290,148.041188,-9729.412825
877.010817,518.144159,74.020594,-9882.631924
877.011137,444.123565,2146.597232,-10112.460574
877.011457,222.061783,814.226536,-8886.707777
877.011777,1628.453072,0.000000,-10725.336972
877.012097,2220.617826,-962.267725,-9806.022374
877.012417,2590.720797,666.185348,-10418.898773
877.012737,518.144159,1480.411884,-9576.193725
877.013056,-444.123565,1332.370696,-10265.679673
877.013376,-222.061783,2886.803174,-10418.898773
877.013696,222.061783,2294.638420,-10035.851024
877.014016,1702.473667,2220.617826,-10189.070123
877.014336,1850.514855,1998.556043,-9422.974625
877.014656,1480.411884,592.164754,-10878.556072
877.014976,-740.205942,-1776.494261,-9116.536426
877.015296,-518.144159,-370.102971,-9882.631924
877.015616,-1258.350101,1184.329507,-10035.851024
877.015936,74.020594,518.144159,-9959.241474
877.016255,148.041188,740.205942,-9806.022374
877.016575,-1702.473667,1554.432478,-10265.679673
877.016895,-1554.432478,2442.679609,-9959.241474
877.017215,-518.144159,1776.494261,-10342.289223
877.017535,1924.535449,74.020594,-10648.727422
877.017855,962.267725,-1406.391290,-9499.584175
877.018175,1110.308913,-740.205942,-10189.070123
877.018495,1036.288319,962.267725,-10112.460574
877.018815,-666.185348,888.247130,-9806.022374
877.019135,-1110.308913,1850.514855,-10495.508323
877.019455,-592.164754,518.144159,-10265.679673
877.019774,518.144159,962.267725,-9652.803275
877.020094,592.164754,518.144159,-9959.241474
877.020414,814.226536,-222.061783,-10189.070123
877.020734,592.164754,-222.061783,-10112.460574
877.021054,148.041188,-296.082377,-10418.898773
877.021374,-740.205942,0.000000,-9806.022374
877.021694,-814.226536,-222.061783,-9882.631924
877.022014,-444.123565,-666.185348,-10265.679673
877.022334,370.102971,1554.432478,-10648.727422
877.022654,-370.102971,1184.329507,-10648.727422
877.022974,740.205942,1850.514855,-10342.289223
877.023293,0.000000,222.061783,-10572.117872
877.023613,1036.288319,-1036.288319,-10189.070123
877.023933,1258.350101,-2146.597232,-10189.070123
877.024253,888.247130,-1480.411884,-11721.261119
877.024573,592.164754,-1110.308913,-9576.193725
877.024893,1110.308913,888.247130,-10189.070123
877.025213,2294.638420,2738.761985,-10725.336972
877.025533,1184.329507,2146.597232,-10189.070123
877.025853,296.082377,1702.473667,-10878.556072
877.026173,-962.267725,222.061783,-10112.460574
877.026492,0.000000,-962.267725,-9806.022374
877.026812,2294.638420,-1702.473667,-10189.070123
877.027132,2590.720797,-2294.638420,-9729.412825
877.027452,666.185348,-1258.350101,-9652.803275
877.027772,-740.205942,-370.102971,-10035.851024
877.028092,-1406.391290,1258.350101,-9652.803275
877.028412,0.000000,1628.453072,-9959.241474
877.028732,1406.391290,1702.473667,-9882.631924
877.029052,2812.782580,0.000000,-10189.070123
877.029372,3108.864956,-1850.514855,-9882.631924
877.029692,2294.638420,-2146.597232,-9959.241474
877.030011,814.226536,-1036.288319,-10265.679673
877.030331,-1036.288319,666.185348,-9422.974625
877.030651,74.020594,2146.597232,-10112.460574
877.030971,592.164754,1184.329507,-10112.460574
877.031291,0.000000,518.144159,-9499.584175
877.031611,-1036.288319,-888.247130,-10112.460574
877.031931,-814.226536,-1554.432478,-10189.070123
877.032251,962.267725,-1258.350101,-9193.145976
877.032571,2664.741391,-1036.288319,-10572.117872
877.032891,1554.432478,-888.247130,-10035.851024
877.033210,-592.164754,-740.205942,-10189.070123
877.033530,-1924.535449,888.247130,-10495.508323
877.033850,-666.185348,2368.659014,-10648.727422
877.034170,592.164754,3108.864956,-10189.070123
877.034490,740.205942,2294.638420,-11261.603821
877.034810,2294.638420,814.226536,-10725.336972
877.035130,2664.741391,-1184.329507,-10648.727422
877.035450,888.247130,-592.164754,-9806.022374
877.035770,-1628.453072,222.061783,-9882.631924
877.036090,-444.123565,1554.432478,-10189.070123
877.036410,0.000000,1110.308913,-10648.727422
877.036729,2146.597232,-444.123565,-9806.022374
877.037049,1776.494261,148.041188,-9039.926876
877.037369,740.205942,370.102971,-10572.117872
877.037689,0.000000,1480.411884,-9882.631924
877.038009,-518.144159,888.247130,-9806.022374
877.038329,592.164754,1036.288319,-9576.193725
877.038649,0.000000,-2220.617826,-9116.536426
877.038969,-1184.329507,-1110.308913,-9576.193725
877.039289,-2812.782580,0.000000,-9882.631924
877.039609,-962.267725,1406.391290,-9729.412825
877.039929,2220.617826,2812.782580,-10189.070123
877.040248,2442.679609,740.205942,-10189.070123
877.040568,2072.576638,-222.061783,-9652.803275
877.040888,666.185348,740.205942,-10418.898773
877.041208,-962.267725,962.267725,-9882.631924
877.041528,-296.082377,1702.473667,-9806.022374
877.041848,-1628.453072,1332.370696,-10265.679673
877.042168,-1406.391290,-296.082377,-9882.631924
877.042488,-666.185348,-1480.411884,-9652.803275
877.042808,-1110.308913,-1036.288319,-10035.851024
877.043128,-592.164754,1258.350101,-10572.117872
877.043447,-296.082377,2072.576638,-9959.241474
877.043767,1110.308913,2812.782580,-11031.775171
877.044087,2220.617826,518.144159,-9806.022374
877.044407,1998.556043,-222.061783,-9959.241474
877.044727,518.144159,-888.247130,-9959.241474
877.045047,444.123565,0.000000,-10035.851024
877.045367,814.226536,1480.411884,-9806.022374
877.045687,1554.432478,2368.659014,-10648.727422
877.046007,2960.823768,1554.432478,-10112.460574
877.046327,2442.679609,370.102971,-10189.070123
877.046647,1258.350101,-444.123565,-10495.508323
877.046966,-1258.350101,888.247130,-9882.631924
877.047286,-296.082377,2146.597232,-10035.851024
877.047606,296.082377,1036.288319,-10418.898773
877.047926,1554.432478,-222.061783,-9652.803275
877.048246,1258.350101,-1480.411884,-10418.898773
877.048566,1258.350101,0.000000,-9882.631924
877.048886,2220.617826,1924.535449,-10112.460574
877.049206,2738.761985,3478.967927,-10955.165621
877.049526,1110.308913,2738.761985,-10342.289223
877.049846,148.041188,814.226536,-10495.508323
877.050165,148.041188,-1406.391290,-9576.193725
877.050485,1036.288319,-1110.308913,-10112.460574
877.050805,518.144159,296.082377,-9729.412825
877.051125,1776.494261,1554.432478,-10189.070123
877.051445,2812.782580,1332.370696,-10112.460574
877.051765,2368.659014,740.205942,-9806.022374
877.052085,1998.556043,962.267725,-10189.070123
877.052405,-666.185348,592.164754,-10035.851024
877.052725,296.082377,74.020594,-10112.460574
877.053045,-962.267725,740.205942,-9882.631924
877.053365,-1480.411884,1110.308913,-9959.241474
877.053684,666.185348,-962.267725,-9346.365076
877.054004,2516.700203,-1480.411884,-10112.460574
877.054324,2516.700203,-1850.514855,-10418.898773
877.054644,1036.288319,148.041188,-10189.070123
877.054964,-666.185348,2590.720797,-9882.631924
877.055284,-222.061783,1332.370696,-10265.679673
877.055604,-296.082377,-592.164754,-9193.145976
877.055924,-814.226536,-2072.576638,-10189.070123
877.056244,-1702.473667,-2738.761985,-10265.679673
877.056564,148.041188,-1110.308913,-9422.974625
877.056884,518.144159,888.247130,-10418.898773
877.057203,1480.411884,1110.308913,-10878.556072
877.057523,370.102971,148.041188,-9882.631924
877.057843,-2368.659014,-962.267725,-9882.631924
877.058163,-2368.659014,-740.205942,-10725.336972
877.058483,-1480.411884,-1850.514855,-9652.803275
877.058803,-1628.453072,-1184.329507,-10418.898773
877.059123,-1258.350101,-2146.597232,-9729.412825
877.059443,-444.123565,-1702.473667,-9959.241474
877.059763,-592.164754,-1332.370696,-10035.851024
877.060083,-148.041188,-1110.308913,-10342.289223
877.060402,-296.082377,-370.102971,-10648.727422
877.060722,0.000000,1036.288319,-10418.898773
877.061042,0.000000,814.226536,-10572.117872
877.061362,-370.102971,-2590.720797,-9729.412825
877.061682,74.020594,-1702.473667,-10648.727422
877.062002,0.000000,-2368.659014,-9806.022374
877.062322,1036.288319,74.020594,-10112.460574
877.062642,222.061783,2516.700203,-9882.631924
877.062962,0.000000,1332.370696,-10342.289223
877.063282,518.144159,0.000000,-10112.460574
877.063602,1332.370696,296.082377,-10418.898773
877.063921,1406.391290,-814.226536,-10342.289223
877.064241,-148.041188,-1702.473667,-9346.365076
877.064561,1332.370696,592.164754,-10265.679673
877.064881,2442.679609,592.164754,-9959.241474
877.065201,5551.544565,1480.411884,-9882.631924
877.065521,4145.153275,2886.803174,-10112.460574
877.065841,2960.823768,2664.741391,-10878.556072
877.066161,1258.350101,2368.659014,-10342.289223
877.066481,888.247130,1776.494261,-10495.508323
877.066801,0.000000,222.061783,-9882.631924
877.067120,0.000000,592.164754,-9806.022374
877.067440,1628.453072,592.164754,-9882.631924
877.067760,3404.947333,222.061783,-10495.508323
877.068080,3182.885551,148.041188,-9959.241474
877.068400,2072.576638,2072.576638,-10495.508323
877.068720,1628.453072,1110.308913,-9806.022374
877.069040,2294.638420,962.267725,-9499.584175
877.069360,1998.556043,1998.556043,-10878.556072
877.069680,0.000000,1480.411884,-9806.022374
877.070000,-1110.308913,814.226536,-9806.022374
877.070320,-888.247130,2368.659014,-10572.117872
877.070640,148.041188,1036.288319,-10035.851024
877.070960,296.082377,518.144159,-10112.460574
877.071280,-1110.308913,888.247130,-10189.070123
877.071600,-1998.556043,1776.494261,-9652.803275
877.071920,-592.164754,2220.617826,-9959.241474
877.072240,814.226536,1554.432478,-10495.508323
877.072560,1258.350101,0.000000,-10342.289223
877.072880,-296.082377,0.000000,-9652.803275
877.073200,-1332.370696,1480.411884,-10342.289223
877.073520,-666.185348,1998.556043,-9499.584175
877.073840,-296.082377,2960.823768,-10648.727422
877.074159,-1628.453072,1406.391290,-9422.974625
877.074479,0.000000,-222.061783,-9499.584175
877.074799,518.144159,-2664.741391,-9039.926876
877.075119,2812.782580,-1702.473667,-10495.508323
877.075439,-222.061783,-1110.308913,-9116.536426
877.075759,-1184.329507,296.082377,-9959.241474
877.076079,-2516.700203,1184.329507,-10112.460574
877.076399,-2072.576638,518.144159,-9729.412825
877.076719,-962.267725,444.123565,-10572.117872
877.077039,-1332.370696,-1036.288319,-9806.022374
877.077359,666.185348,-296.082377,-10495.508323
877.077679,666.185348,888.247130,-11031.775171
877.077999,962.267725,222.061783,-10572.117872
877.078319,518.144159,-1628.453072,-9882.631924
877.078639,666.185348,296.082377,-10572.117872
877.078959,0.000000,1702.473667,-10648.727422
877.079279,1258.350101,2368.659014,-10878.556072
877.079599,1924.535449,1998.556043,-11338.213370
877.079919,1480.411884,-296.082377,-10648.727422
877.080239,666.185348,-2516.700203,-9269.755526
877.080559,74.020594,-3034.844362,-10112.460574
877.080879,-888.247130,-148.041188,-10801.946522
877.081199,148.041188,1332.370696,-10035.851024
877.081518,1850.514855,1628.453072,-10725.336972
877.081838,2368.659014,0.000000,-10418.898773
877.082158,2220.617826,-222.061783,-9959.241474
877.082478,888.247130,222.061783,-10265.679673
877.082798,1332.370696,1924.535449,-9959.241474
877.083118,1998.556043,2812.782580,-10112.460574
877.083438,1998.556043,592.164754,-10495.508323
877.083758,2960.823768,-1406.391290,-9652.803275
877.084078,2442.679609,-3627.009116,-9346.365076
877.084398,814.226536,-962.267725,-10189.070123
877.084718,-1036.288319,1850.514855,-10572.117872
877.085038,-1406.391290,4219.173869,-9806.022374
877.085358,-296.082377,3552.988522,-10342.289223
877.085678,1406.391290,0.000000,-10112.460574
877.085998,1628.453072,-2960.823768,-9806.022374
877.086318,370.102971,-4071.132681,-9959.241474
877.086638,592.164754,-666.185348,-9576.193725
877.086958,1258.350101,1036.288319,-10112.460574
877.087278,2294.638420,2812.782580,-11108.384721
877.087598,370.102971,1110.308913,-9806.022374
877.087918,-1332.370696,-148.041188,-9729.412825
877.088238,-592.164754,-962.267725,-10418.898773
877.088558,444.123565,-444.123565,-9652.803275
877.088878,666.185348,-148.041188,-10035.851024
877.089197,1480.411884,-814.226536,-10112.460574
877.089517,1110.308913,-888.247130,-10035.851024
877.089837,444.123565,-2294.638420,-9039.926876
877.090157,-1258.350101,0.000000,-10342.289223
877.090477,-2812.782580,1702.473667,-9576.193725
877.090797,-2294.638420,3256.906145,-9806.022374
877.091117,-962.267725,2590.720797,-9576.193725
877.091437,1554.432478,-518.144159,-9806.022374
877.091757,888.247130,-2294.638420,-9959.241474
877.092077,-1184.329507,-2294.638420,-10112.460574
877.092397,-1332.370696,-592.164754,-9116.536426
877.092717,-370.102971,888.247130,-9806.022374
877.093037,1924.535449,1258.350101,-10189.070123
877.093357,4589.276840,740.205942,-9729.412825
877.093677,5699.585753,-222.061783,-10495.508323
877.093997,4293.194464,148.041188,-11031.775171
877.094317,592.164754,888.247130,-9882.631924
877.094637,-2294.638420,1184.329507,-10572.117872
877.094957,-2294.638420,-222.061783,-10265.679673
877.095277,-962.267725,-1184.329507,-9729.412825
877.095597,-666.185348,-1554.432478,-10189.070123
877.095917,-1628.453072,518.144159,-10648.727422
877.096237,-666.185348,1110.308913,-10189.070123
877.096556,740.205942,962.267725,-11184.994271
877.096876,1258.350101,592.164754,-10418.898773
877.097196,666.185348,-1702.473667,-10112.460574
877.097516,0.000000,-888.247130,-10572.117872
877.097836,-1184.329507,-296.082377,-10418.898773
877.098156,-2072.576638,1480.411884,-9806.022374
877.098476,-666.185348,740.205942,-10342.289223
877.098796,1628.453072,518.144159,-10418.898773
877.099116,3182.885551,-1480.411884,-10265.679673
877.099436,2516.700203,296.082377,-10112.460574
877.099756,0.000000,1258.350101,-9806.022374
877.100076,222.061783,3182.885551,-10112.460574
877.100396,-1480.411884,3034.844362,-9959.241474
877.100716,-888.247130,222.061783,-10342.289223
877.101036,-1258.350101,-1184.329507,-8733.488677
877.101356,-1184.329507,-1850.514855,-9576.193725
877.101676,-740.205942,-814.226536,-9576.193725
877.101996,1184.329507,1998.556043,-9269.755526
877.102316,1406.391290,3478.967927,-10035.851024
877.102636,2220.617826,2072.576638,-9729.412825
877.102956,2442.679609,-740.205942,-9193.145976
877.103276,74.020594,-444.123565,-9729.412825
877.103596,444.123565,-444.123565,-9499.584175
877.103916,1554.432478,148.041188,-9806.022374
877.104235,3552.988522,1332.370696,-10035.851024
877.104555,4441.235652,1036.288319,-9959.241474
877.104875,3478.967927,1998.556043,-10418.898773
877.105195,888.247130,1406.391290,-10878.556072
877.105515,-1036.288319,2072.576638,-10189.070123
877.105835,-1110.308913,2146.597232,-10418.898773
877.106155,518.144159,1554.432478,-10648.727422
877.106475,1924.535449,-518.144159,-9729.412825
877.106795,592.164754,-1554.432478,-10189.070123
877.107115,296.082377,-1036.288319,-10342.289223
877.107435,888.247130,296.082377,-10265.679673
877.107755,2368.659014,2590.720797,-10801.946522
877.108075,2442.679609,3108.864956,-10725.336972
877.108395,962.267725,2516.700203,-10265.679673
877.108715,-296.082377,-370.102971,-9729.412825
877.109035,-1184.329507,-370.102971,-10725.336972
877.109355,-1480.411884,148.041188,-9652.803275
877.109675,444.123565,1924.535449,-9499.584175
877.109995,2664.741391,1702.473667,-10112.460574
877.110315,3182.885551,1110.308913,-10035.851024
877.110635,1184.329507,370.102971,-9959.241474
877.110955,-1036.288319,-740.205942,-10265.679673
877.111275,-2220.617826,-148.041188,-9576.193725
877.111595,-1480.411884,666.185348,-9729.412825
877.111914,962.267725,-222.061783,-10265.679673
877.112234,2072.576638,-1406.391290,-9499.584175
877.112554,1332.370696,-1406.391290,-10572.117872
877.112874,-444.123565,370.102971,-10189.070123
877.113194,-1036.288319,1776.494261,-9729.412825
877.113514,370.102971,2294.638420,-11031.775171
877.113834,1554.432478,518.144159,-10035.851024
877.114154,148.041188,-1776.494261,-9422.974625
877.114474,-1702.473667,-2368.659014,-10189.070123
877.114794,-2442.679609,-2368.659014,-10648.727422
877.115114,-2590.720797,-814.226536,-9652.803275
877.115434,-1850.514855,1924.535449,-10342.289223
877.115754,370.102971,2072.576638,-10342.289223
877.116074,1480.411884,592.164754,-9959.241474
877.116394,2368.659014,0.000000,-10495.508323
877.116714,1776.494261,-1850.514855,-10572.117872
877.117034,444.123565,-1406.391290,-9576.193725
877.117354,0.000000,-1332.370696,-10342.289223
877.117674,222.061783,-3182.885551,-9269.755526
877.117994,0.000000,-2886.803174,-9576.193725
877.118314,-1554.432478,-888.247130,-9806.022374
877.118634,-666.185348,1184.329507,-10725.336972
877.118954,-296.082377,2294.638420,-9959.241474
877.119273,74.020594,3182.885551,-11414.822920
877.119593,296.082377,1036.288319,-9576.193725
877.119913,740.205942,-1628.453072,-9959.241474
877.120233,1036.288319,-2294.638420,-10495.508323
877.120553,2220.617826,-2812.782580,-10189.070123
877.120873,2146.597232,444.123565,-10035.851024
877.121193,2146.597232,2368.659014,-10725.336972
877.121513,2072.576638,2146.597232,-10189.070123
877.121833,1702.473667,1702.473667,-10495.508323
877.122153,592.164754,888.247130,-10955.165621
877.122473,0.000000,0.000000,-10572.117872
877.122793,-1480.411884,222.061783,-9806.022374
877.123113,0.000000,148.041188,-10725.336972
877.123433,1850.514855,-1480.411884,-9729.412825
877.123753,1776.494261,-1258.350101,-9806.022374
877.124073,1628.453072,-1184.329507,-10572.117872
877.124393,1036.288319,1258.350101,-9499.584175
877.124713,814.226536,3552.988522,-10572.117872
877.125033,1702.473667,3775.050304,-10572.117872
877.125353,3997.112087,1258.350101,-9193.145976
877.125673,2442.679609,-148.041188,-9806.022374
877.125993,888.247130,-1184.329507,-9959.241474
877.126313,370.102971,-1110.308913,-9499.584175
877.126633,-814.226536,814.226536,-9269.755526
877.126952,1850.514855,2812.782580,-9193.145976
877.127272,2220.617826,2294.638420,-10035.851024
877.127592,962.267725,2072.576638,-9959.241474
877.127912,-1184.329507,370.102971,-10035.851024
877.128232,-444.123565,-666.185348,-9193.145976
877.128552,1776.494261,592.164754,-10418.898773
877.128872,1480.411884,1184.329507,-10189.070123
877.129192,814.226536,962.267725,-9959.241474
877.129512,666.185348,148.041188,-10112.460574
877.129832,1110.308913,1110.308913,-9959.241474
877.130152,592.164754,1480.411884,-10035.851024
877.130472,0.000000,1332.370696,-10265.679673
877.130792,1110.308913,1184.329507,-9959.241474
877.131112,1776.494261,222.061783,-10035.851024
877.131432,2738.761985,-2294.638420,-10342.289223
877.131752,962.267725,-2738.761985,-10035.851024
877.132072,-1480.411884,-1924.535449,-9499.584175
877.132392,-2738.761985,1406.391290,-10265.679673
877.132712,-1332.370696,3627.009116,-10112.460574
877.133032,0.000000,2368.659014,-10112.460574
877.133352,666.185348,666.185348,-10189.070123
877.133672,1110.308913,-1332.370696,-10342.289223
877.133992,962.267725,-1924.535449,-10495.508323
877.134312,-222.061783,-1406.391290,-10265.679673
877.134631,-2146.597232,-740.205942,-10112.460574
877.134951,-2220.617826,-1702.473667,-9422.974625
877.135271,-1480.411884,-1628.453072,-8580.269578
877.135591,-2220.617826,-1924.535449,-10035.851024
877.135911,-2442.679609,1036.288319,-9576.193725
877.136231,-2220.617826,2664.741391,-10878.556072
877.136551,1850.514855,1628.453072,-10648.727422
877.136871,3997.112087,-148.041188,-10572.117872
877.137191,2368.659014,-2590.720797,-10495.508323
877.137511,518.144159,-3330.926739,-9806.022374
877.137831,-814.226536,-814.226536,-9959.241474
877.138151,-1110.308913,2664.741391,-11874.480219
877.138471,-296.082377,3330.926739,-11108.384721
877.138791,1036.288319,2886.803174,-9882.631924
877.139111,666.185348,1332.370696,-11414.822920
877.139431,296.082377,-370.102971,-9959.241474
877.139751,-148.041188,370.102971,-10418.898773
877.140071,-518.144159,814.226536,-10495.508323
877.140391,740.205942,370.102971,-10035.851024
877.140711,2146.597232,-740.205942,-9729.412825
877.141031,3256.906145,-814.226536,-10725.336972
877.141351,1998.556043,74.020594,-9652.803275
877.141671,74.020594,2294.638420,-10342.289223
877.141990,-444.123565,3552.988522,-10495.508323
877.142310,1332.370696,2368.659014,-9576.193725
877.142630,2516.700203,222.061783,-10035.851024
877.142950,2368.659014,-1924.535449,-10189.070123
877.143270,1184.329507,-2664.741391,-9422.974625
877.143590,-148.041188,-518.144159,-9806.022374
877.143910,0.000000,444.123565,-9193.145976
877.144230,1406.391290,518.144159,-9652.803275
877.144550,1628.453072,370.102971,-9806.022374
877.144870,1554.432478,518.144159,-10035.851024
877.145190,1924.535449,74.020594,-9193.145976
877.145510,2516.700203,888.247130,-10035.851024
877.145830,1924.535449,592.164754,-10418.898773
877.146150,1628.453072,666.185348,-9882.631924
877.146470,518.144159,74.020594,-9959.241474
877.146790,-592.164754,1036.288319,-9959.241474
877.147110,-518.144159,740.205942,-9806.022374
877.147430,-1554.432478,518.144159,-10189.070123
877.147750,-740.205942,444.123565,-10035.851024
877.148070,1628.453072,592.164754,-10418.898773
877.148390,3108.864956,888.247130,-10725.336972
877.148710,1776.494261,222.061783,-10572.117872
877.149030,962.267725,888.247130,-10112.460574
877.149350,-962.267725,1332.370696,-10189.070123
877.149669,0.000000,1480.411884,-9806.022374
877.149989,592.164754,1406.391290,-9806.022374
877.150309,518.144159,0.000000,-10035.851024
877.150629,296.082377,-740.205942,-9882.631924
877.150949,1036.288319,-444.123565,-9652.803275
877.151269,-740.205942,444.123565,-10035.851024
877.151589,370.102971,-148.041188,-10572.117872
877.151909,296.082377,-444.123565,-9269.755526
877.152229,-222.061783,-444.123565,-9806.022374
877.152549,-2146.597232,518.144159,-9729.412825
877.152869,-2220.617826,444.123565,-9806.022374
877.153189,-1998.556043,1258.350101,-10495.508323
877.153509,888.247130,296.082377,-10265.679673
877.153829,1406.391290,0.000000,-10265.679673
877.154149,1036.288319,-222.061783,-9806.022374
877.154469,-1110.308913,-296.082377,-10035.851024
877.154789,-1036.288319,666.185348,-9806.022374
877.155109,-1554.432478,1776.494261,-9806.022374
877.155429,-2368.659014,222.061783,-10495.508323
877.155749,-1406.391290,-1702.473667,-9346.365076
877.156069,-1332.370696,-1332.370696,-10035.851024
877.156389,0.000000,0.000000,-9959.241474
877.156709,1184.329507,1850.514855,-9729.412825
877.157029,1258.350101,2960.823768,-10801.946522
877.157348,1702.473667,1480.411884,-10265.679673
877.157668,2886.803174,666.185348,-9882.631924
877.157988,1110.308913,-148.041188,-10878.556072
877.158308,0.000000,-740.205942,-10035.851024
877.158628,-444.123565,222.061783,-10112.460574
877.158948,222.061783,1628.453072,-10955.165621
877.159268,1554.432478,1776.494261,-10572.117872
877.159588,1850.514855,1332.370696,-11568.042020
877.159908,1628.453072,814.226536,-10955.165621
877.160228,1332.370696,444.123565,-10418.898773
877.160548,1110.308913,1406.391290,-10035.851024
877.160868,1406.391290,1554.432478,-9729.412825
877.161188,2812.782580,888.247130,-9959.241474
877.161508,3034.844362,666.185348,-10112.460574
877.161828,2664.741391,370.102971,-10878.556072
877.162148,2590.720797,0.000000,-9806.022374
877.162468,2294.638420,1184.329507,-10112.460574
877.162788,1776.494261,1554.432478,-10342.289223
877.163108,1554.432478,740.205942,-9806.022374
877.163428,1480.411884,74.020594,-10112.460574
877.163748,1776.494261,-740.205942,-11568.042020
877.164068,518.144159,-518.144159,-9193.145976
877.164388,-370.102971,222.061783,-9959.241474
877.164707,444.123565,962.267725,-9422.974625
877.165027,1850.514855,1258.350101,-9422.974625
877.165347,1924.535449,1184.329507,-10035.851024
877.165667,1110.308913,814.226536,-10265.679673
877.165987,222.061783,74.020594,-9346.365076
877.166307,-1332.370696,148.041188,-10189.070123
877.166627,-1702.473667,222.061783,-10112.460574
877.166947,-1850.514855,0.000000,-9269.755526
877.167267,-444.123565,-444.123565,-9729.412825
877.167587,222.061783,666.185348,-10572.117872
877.167907,444.123565,1702.473667,-10342.289223
877.168227,0.000000,2960.823768,-10801.946522
877.168547,814.226536,1554.432478,-10648.727422
877.168867,1480.411884,-148.041188,-10112.460574
877.169187,518.144159,-1998.556043,-9882.631924
877.169507,-518.144159,-814.226536,-10648.727422
877.169827,-2368.659014,-222.061783,-9806.022374
877.170147,-3108.864956,1184.329507,-10955.165621
877.170467,-1406.391290,962.267725,-10342.289223
877.170787,1110.308913,740.205942,-10189.070123
877.171107,2146.597232,0.000000,-10878.556072
877.171427,888.247130,-1628.453072,-10418.898773
877.171747,0.000000,-1850.514855,-9652.803275
877.172067,-1184.329507,-1998.556043,-10418.898773
877.172387,-666.185348,-2590.720797,-9346.365076
877.172707,1184.329507,-1776.494261,-9116.536426
877.173027,1110.308913,-888.247130,-10265.679673
877.173347,1406.391290,-740.205942,-9806.022374
877.173667,666.185348,0.000000,-9806.022374
877.173987,-148.041188,-518.144159,-10265.679673
877.174307,-814.226536,-1184.329507,-9346.365076
877.174627,-1924.535449,-2442.679609,-9729.412825
877.174947,-2516.700203,-3034.844362,-9882.631924
877.175267,-2886.803174,-3034.844362,-9422.974625
877.175587,-1554.432478,-1258.350101,-9959.241474
877.175907,0.000000,222.061783,-10878.556072
877.176227,2072.576638,1406.391290,-10265.679673
877.176546,2072.576638,3478.967927,-10342.289223
877.176866,962.267725,3849.070898,-11184.994271
877.177186,-814.226536,2368.659014,-10725.336972
877.177506,-1184.329507,592.164754,-10648.727422
877.177826,444.123565,-962.267725,-11108.384721
877.178146,2072.576638,-888.247130,-9959.241474
877.178466,1702.473667,444.123565,-10265.679673
877.178786,1480.411884,2368.659014,-10955.165621
877.179106,2368.659014,3849.070898,-10418.898773
877.179426,3034.844362,4515.256246,-11644.651570
877.179746,4071.132681,3256.906145,-10572.117872
877.180066,3478.967927,1480.411884,-9576.193725
877.180386,3404.947333,518.144159,-10112.460574
877.180706,2368.659014,74.020594,-10189.070123
877.181026,1258.350101,-518.144159,-9039.926876
877.181346,1184.329507,444.123565,-9882.631924
877.181666,3849.070898,1924.535449,-10265.679673
877.181986,3849.070898,3627.009116,-10189.070123
877.182306,3330.926739,2960.823768,-10112.460574
877.182626,1776.494261,3478.967927,-10265.679673
877.182946,1628.453072,2368.659014,-10189.070123
877.183266,1406.391290,888.247130,-9652.803275
877.183586,1406.391290,444.123565,-9422.974625
877.183906,3478.967927,0.000000,-9193.145976
877.184226,3775.050304,-222.061783,-10035.851024
877.184546,3330.926739,2368.659014,-9959.241474
877.184866,1924.535449,3552.988522,-10189.070123
877.185186,2368.659014,4589.276840,-9806.022374
877.185506,3478.967927,4737.318029,-10342.289223
877.185826,5033.400406,3478.967927,-10265.679673
877.186146,2368.659014,2590.720797,-9806.022374
877.186466,148.041188,2516.700203,-10265.679673
877.186786,296.082377,1480.411884,-10189.070123
877.187106,1258.350101,2368.659014,-9422.974625
877.187426,1184.329507,3330.926739,-9193.145976
877.187746,1924.535449,3552.988522,-10035.851024
877.188066,2220.617826,2442.679609,-9959.241474
877.188386,1480.411884,1406.391290,-9959.241474
877.188706,962.267725,1702.473667,-10035.851024
877.189026,2664.741391,2812.782580,-10418.898773
877.189346,2812.782580,5033.400406,-10342.289223
877.189666,2960.823768,5255.462188,-10725.336972
877.189986,2738.761985,4737.318029,-11031.775171
877.190305,2294.638420,3997.112087,-10648.727422
877.190625,2368.659014,2294.638420,-10035.851024
877.190945,2146.597232,1702.473667,-10418.898773
877.191265,1110.308913,2590.720797,-10648.727422
877.191585,962.267725,3256.906145,-10035.851024
877.191905,1628.453072,3404.947333,-10189.070123
877.192225,3182.885551,3478.967927,-9729.412825
877.192545,2812.782580,1998.556043,-10035.851024
877.192865,444.123565,2146.597232,-10035.851024
877.193185,296.082377,3034.844362,-9806.022374
877.193505,1628.453072,3478.967927,-9959.241474
877.193825,3108.864956,4219.173869,-9729.412825
877.194145,1480.411884,3108.864956,-10189.070123
877.194465,962.267725,1332.370696,-9729.412825
877.194785,2812.782580,222.061783,-9806.022374
877.195105,2294.638420,1184.329507,-9269.755526
877.195425,888.247130,1258.350101,-9576.193725
877.195745,1628.453072,1554.432478,-9422.974625
877.196065,4367.215058,1702.473667,-9882.631924
877.196385,3923.091493,2442.679609,-10112.460574
877.196705,740.205942,3256.906145,-10035.851024
877.197025,296.082377,3034.844362,-9806.022374
877.197345,3034.844362,1776.494261,-10265.679673
877.197665,4737.318029,1110.308913,-10265.679673
877.197985,3849.070898,962.267725,-10112.460574
877.198305,2146.597232,1036.288319,-9729.412825
877.198625,2664.741391,1258.350101,-10189.070123
877.198945,3256.906145,3256.906145,-10725.336972
877.199265,2072.576638,4441.235652,-10648.727422
877.199585,518.144159,4515.256246,-10112.460574
877.199905,1998.556043,2442.679609,-10495.508323
877.200225,4663.297435,1184.329507,-10265.679673
877.200545,4589.276840,1406.391290,-11031.775171
877.200865,2664.741391,2664.741391,-10265.679673
877.201185,2664.741391,4515.256246,-10342.289223
877.201505,4367.215058,5033.400406,-11184.994271
877.201825,4959.379811,4959.379811,-11031.775171
877.202145,2442.679609,3849.070898,-10801.946522
877.202465,296.082377,2590.720797,-10189.070123
877.202785,666.185348,1110.308913,-10112.460574
877.203105,2886.803174,814.226536,-10342.289223
877.203425,3627.009116,740.205942,-10342.289223
877.203745,370.102971,888.247130,-9576.193725
877.204064,148.041188,1924.535449,-9806.022374
877.204384,2442.679609,2590.720797,-9576.193725
877.204704,4737.318029,4071.132681,-10342.289223
877.205024,5995.668130,3997.112087,-10418.898773
877.205344,3701.029710,3923.091493,-10112.460574
877.205664,1110.308913,3182.885551,-9959.241474
877.205984,518.144159,1924.535449,-9269.755526
877.206304,0.000000,814.226536,-9652.803275
877.206624,888.247130,-222.061783,-9576.193725
877.206944,1406.391290,222.061783,-8963.317327
877.207264,444.123565,1258.350101,-9806.022374
877.207584,0.000000,1480.411884,-9422.974625
877.207904,518.144159,2664.741391,-9576.193725
877.208224,2146.597232,3404.947333,-10265.679673
877.208544,4219.173869,2812.782580,-9806.022374
877.208864,3923.091493,2664.741391,-10189.070123
877.209184,1776.494261,2442.679609,-10572.117872
877.209504,592.164754,2368.659014,-9882.631924
877.209824,370.102971,2886.803174,-10265.679673
877.210144,1628.453072,2146.597232,-10572.117872
877.210464,2442.679609,1258.350101,-10342.289223
877.210784,2072.576638,888.247130,-10035.851024
877.211104,1850.514855,1998.556043,-10572.117872
877.211424,1998.556043,3404.947333,-10955.165621
877.211744,1258.350101,4737.318029,-10955.165621
877.212064,1628.453072,4293.194464,-10342.289223
877.212384,3923.091493,2812.782580,-10725.336972
877.212704,5181.441594,1184.329507,-10955.165621
877.213024,3923.091493,1258.350101,-10189.070123
877.213344,2442.679609,2072.576638,-10725.336972
877.213664,2146.597232,3182.885551,-10648.727422
877.213984,1924.535449,3404.947333,-9882.631924
877.214304,1480.411884,2886.803174,-9806.022374
877.214624,1998.556043,1702.473667,-9499.584175
877.214944,3478.967927,370.102971,-8350.440928
877.215264,4441.235652,148.041188,-9806.022374
877.215584,4441.235652,1258.350101,-9576.193725
877.215904,4293.194464,3182.885551,-9729.412825
877.216224,5033.400406,4441.235652,-9576.193725
877.216544,4737.318029,4959.379811,-9729.412825
877.216864,1998.556043,4219.173869,-10418.898773
877.217184,-370.102971,2886.803174,-9576.193725
877.217504,148.041188,592.164754,-9729.412825
877.217823,1998.556043,-592.164754,-9729.412825
877.218143,3182.885551,-1184.329507,-9729.412825
877.218463,2812.782580,444.123565,-9806.022374
877.218783,2738.761985,3256.906145,-9882.631924
877.219103,3997.112087,5625.565159,-10035.851024
877.219423,4885.359217,7105.977043,-10725.336972
877.219743,5255.462188,5847.626942,-10801.946522
877.220063,3478.967927,3849.070898,-10725.336972
877.220383,1332.370696,1924.535449,-10342.289223
877.220703,-370.102971,962.267725,-9959.241474
877.221023,-962.267725,592.164754,-9959.241474
877.221343,-444.123565,222.061783,-9882.631924
877.221663,296.082377,1036.288319,-9729.412825
877.221983,518.144159,1924.535449,-10265.679673
877.222303,1036.288319,3256.906145,-10112.460574
877.222623,2738.761985,4515.256246,-10265.679673
877.222943,4811.338623,5181.441594,-10495.508323
877.223263,5255.462188,4959.379811,-10572.117872
877.223583,4293.194464,4219.173869,-11031.775171
877.223903,2738.761985,2812.782580,-10189.070123
877.224223,1258.350101,2220.617826,-9806.022374
877.224543,518.144159,2738.761985,-9882.631924
877.224863,-148.041188,2738.761985,-9806.022374
877.225183,-1258.350101,2146.597232,-10265.679673
877.225503,-1628.453072,592.164754,-9576.193725
877.225823,-1036.288319,-148.041188,-9576.193725
877.226143,666.185348,0.000000,-9652.803275
877.226463,2738.761985,2146.597232,-9269.755526
877.226783,4885.359217,3034.844362,-9882.631924
877.227103,6439.791695,4441.235652,-10112.460574
877.227423,6365.771101,5477.523971,-10495.508323
877.227743,4959.379811,6143.709319,-11568.042020
877.228063,3182.885551,5403.503377,-10495.508323
877.228383,1850.514855,4145.153275,-10495.508323
877.228703,1110.308913,2442.679609,-10418.898773
877.229023,888.247130,888.247130,-10112.460574
877.229343,-222.061783,296.082377,-11108.384721
877.229663,-962.267725,444.123565,-9576.193725
877.229983,0.000000,1332.370696,-9959.241474
877.230303,1850.514855,2812.782580,-10112.460574
877.230623,3997.112087,3552.988522,-10265.679673
877.230943,5329.482782,3923.091493,-10265.679673
877.231263,6513.812290,2812.782580,-10035.851024
877.231582,5551.544565,2146.597232,-10189.070123
877.231902,3849.070898,2368.659014,-10265.679673
877.232222,1776.494261,1258.350101,-10112.460574
877.232542,-296.082377,1406.391290,-9959.241474
877.232862,-962.267725,370.102971,-9806.022374
877.233182,-962.267725,-592.164754,-9729.412825
877.233502,-444.123565,-962.267725,-9806.022374
877.233822,444.123565,-370.102971,-9729.412825
877.234142,1554.432478,888.247130,-9806.022374
877.234462,2664.741391,2590.720797,-10265.679673
877.234782,3775.050304,3701.029710,-10418.898773
877.235102,4293.194464,4071.132681,-10265.679673
877.235422,3923.091493,3478.967927,-10648.727422
877.235742,3330.926739,2886.803174,-10495.508323
877.236062,2590.720797,2220.617826,-10572.117872
877.236382,1332.370696,1480.411884,-9576.193725
877.236702,592.164754,740.205942,-9959.241474
877.237022,0.000000,444.123565,-10112.460574
877.237342,740.205942,888.247130,-10189.070123
877.237662,1776.494261,1332.370696,-10112.460574
877.237982,2590.720797,2442.679609,-10112.460574
877.238302,3552.988522,3256.906145,-10495.508323
877.238622,4959.379811,4071.132681,-10418.898773
877.238942,6513.812290,4293.194464,-10265.679673
877.239262,7402.059420,4737.318029,-11338.213370
877.239582,6957.935855,5033.400406,-10955.165621
877.239902,5033.400406,5403.503377,-10648.727422
877.240222,2294.638420,4737.318029,-10495.508323
877.240542,0.000000,3552.988522,-9346.365076
877.240862,-1332.370696,1628.453072,-9576.193725
877.241182,-1036.288319,0.000000,-9576.193725
877.241502,370.102971,-666.185348,-9422.974625
877.241822,1702.473667,148.041188,-9576.193725
877.242142,3182.885551,2442.679609,-8656.879127
877.242462,4737.318029,5255.462188,-9959.241474
877.242782,6069.688724,7105.977043,-10495.508323
877.243102,6365.771101,7846.182985,-10342.289223
877.243422,5477.523971,6735.874072,-10189.070123
877.243742,4515.256246,5107.421000,-10112.460574
877.244062,3404.947333,3478.967927,-10112.460574
877.244382,2072.576638,2368.659014,-9959.241474
877.244702,-592.164754,2368.659014,-9729.412825
877.245022,-2960.823768,2738.761985,-9882.631924
877.245341,-2886.803174,3182.885551,-9576.193725
877.245661,-1110.308913,2664.741391,-9729.412825
877.245981,1332.370696,2146.597232,-9729.412825
877.246301,2590.720797,2146.597232,-9422.974625
877.246621,3182.885551,2664.741391,-9652.803275
877.246941,3849.070898,4071.132681,-9806.022374
877.247261,4737.318029,5551.544565,-10035.851024
877.247581,5699.585753,6069.688724,-10495.508323
877.247901,5329.482782,5995.668130,-10495.508323
877.248221,2812.782580,4589.276840,-10572.117872
877.248541,-740.205942,3404.947333,-10265.679673
877.248861,-2664.741391,2368.659014,-10189.070123
877.249181,-1776.494261,1110.308913,-11184.994271
877.249501,-222.061783,148.041188,-9806.022374
877.249821,0.000000,0.000000,-9422.974625
877.250141,1184.329507,518.144159,-9346.365076
877.250461,3849.070898,2294.638420,-9882.631924
877.250781,6587.832884,4959.379811,-11261.603821
877.251101,7105.977043,6513.812290,-10495.508323
877.251421,6069.688724,6365.771101,-10265.679673
877.251741,4441.235652,4811.338623,-10265.679673
877.252061,3034.844362,3478.967927,-9729.412825
877.252381,1110.308913,444.123565,-9806.022374
877.252701,0.000000,-740.205942,-9652.803275
877.253021,0.000000,-888.247130,-9729.412825
877.253341,-370.102971,-148.041188,-10189.070123
877.253661,-1258.350101,1480.411884,-9806.022374
877.253981,296.082377,2368.659014,-10189.070123
877.254301,3256.906145,3034.844362,-9806.022374
877.254621,5995.668130,2442.679609,-10265.679673
877.254941,7254.018232,2368.659014,-11261.603821
877.255261,7328.038826,2664.741391,-10572.117872
877.255581,5625.565159,3701.029710,-10725.336972
877.255901,3478.967927,4367.215058,-10418.898773
877.256221,1184.329507,4293.194464,-10648.727422
877.256541,666.185348,2442.679609,-10418.898773
877.256861,814.226536,-444.123565,-10189.070123
877.257181,592.164754,-1480.411884,-10495.508323
877.257501,-666.185348,-1480.411884,-9959.241474
877.257821,-1258.350101,-148.041188,-9576.193725
877.258141,444.123565,1406.391290,-10035.851024
877.258461,3701.029710,2368.659014,-9959.241474
877.258780,5921.647536,3108.864956,-10112.460574
877.259100,6513.812290,3701.029710,-10418.898773
877.259420,6513.812290,3775.050304,-10495.508323
877.259740,4885.359217,3997.112087,-10572.117872
877.260060,3034.844362,3552.988522,-10265.679673
877.260380,2368.659014,2368.659014,-9806.022374
877.260700,370.102971,888.247130,-9269.755526
877.261020,-2072.576638,-740.205942,-9729.412825
877.261340,-3849.070898,-1406.391290,-8963.317327
877.261660,-3997.112087,-1554.432478,-9346.365076
877.261980,-148.041188,-740.205942,-8810.098227
877.262300,4515.256246,296.082377,-9422.974625
877.262620,5477.523971,2664.741391,-10189.070123
877.262940,4441.235652,4589.276840,-9729.412825
877.263260,3256.906145,5699.585753,-10112.460574
877.263580,5107.421000,5477.523971,-10265.679673
877.263900,5921.647536,4515.256246,-10572.117872
877.264220,3552.988522,2590.720797,-10955.165621
877.264540,-296.082377,888.247130,-9652.803275
877.264860,-2294.638420,-1110.308913,-9499.584175
877.265180,-2146.597232,0.000000,-10418.898773
877.265500,-1036.288319,74.020594,-10265.679673
877.265820,-1184.329507,1628.453072,-10035.851024
877.266140,74.020594,2664.741391,-10342.289223
877.266492,3552.988522,3997.112087,-10418.898773
877.266812,6291.750507,5033.400406,-11568.042020
877.267132,6883.915261,5847.626942,-11261.603821
877.267452,6143.709319,5995.668130,-10418.898773
877.267772,6735.874072,4589.276840,-10572.117872
877.268092,5255.462188,4811.338623,-10572.117872
877.268412,4293.194464,3923.091493,-10725.336972
877.268731,1332.370696,4145.153275,-10418.898773
877.269051,-222.061783,3108.864956,-9959.241474
877.269371,-1110.308913,2368.659014,-9806.022374
877.269691,-2146.597232,888.247130,-9499.584175
877.270011,-1628.453072,444.123565,-8810.098227
877.270331,1998.556043,962.267725,-9422.974625
877.270651,5995.668130,2516.700203,-10342.289223
877.270971,7031.956449,4663.297435,-9882.631924
877.271291,5625.565159,6735.874072,-9806.022374
877.271611,5773.606348,7254.018232,-9729.412825
877.271931,7179.997637,6809.894666,-10035.851024
877.272251,5995.668130,4811.338623,-10342.289223
877.272571,3034.844362,2516.700203,-9269.755526
877.272891,74.020594,1110.308913,-9652.803275
877.273211,-740.205942,370.102971,-9422.974625
877.273531,-2146.597232,592.164754,-9346.365076
877.273851,-2368.659014,1628.453072,-9346.365076
877.274171,-1110.308913,2368.659014,-9729.412825
877.274491,962.267725,2516.700203,-10342.289223
877.274811,2516.700203,3552.988522,-10189.070123
877.275131,2960.823768,3997.112087,-10495.508323
877.275451,3849.070898,5181.441594,-10572.117872
877.275770,4737.318029,6143.709319,-10648.727422
877.276090,5847.626942,6513.812290,-11031.775171
877.276410,5329.482782,5921.647536,-11184.994271
877.276730,2072.576638,3775.050304,-10495.508323
877.277050,-1036.288319,1480.411884,-9729.412825
877.277370,-2072.576638,-1554.432478,-10112.460574
877.277690,-592.164754,-2960.823768,-9039.926876
877.278010,-666.185348,-2516.700203,-9116.536426
877.278330,-1258.350101,-370.102971,-9882.631924
877.278650,-296.082377,2368.659014,-9959.241474
877.278970,1702.473667,5107.421000,-10265.679673
877.279290,4071.132681,5773.606348,-10418.898773
877.279610,5773.606348,4959.379811,-10342.289223
877.279930,6291.750507,3034.844362,-9806.022374
877.280250,5329.482782,740.205942,-9652.803275
877.280570,3552.988522,-370.102971,-9959.241474
877.280890,888.247130,-814.226536,-9039.926876
877.281210,-1406.391290,-296.082377,-8963.317327
877.281530,-1110.308913,0.000000,-9729.412825
877.281850,-814.226536,-370.102971,-9959.241474
877.282170,0.000000,296.082377,-9729.412825
877.282490,962.267725,1184.329507,-10572.117872
877.282809,2146.597232,1480.411884,-9959.241474
877.283129,2812.782580,2368.659014,-9806.022374
877.283449,3923.091493,2442.679609,-11721.261119
877.283769,3108.864956,814.226536,-10265.679673
877.284089,5477.523971,814.226536,-10035.851024
877.284409,4885.359217,1110.308913,-11491.432470
877.284729,2590.720797,1406.391290,-10801.946522
877.285049,-2146.597232,1998.556043,-10265.679673
877.285369,-3330.926739,888.247130,-10725.336972
877.285689,-1850.514855,-2368.659014,-9806.022374
877.286009,-1924.535449,-3775.050304,-9576.193725
877.286329,-3330.926739,-4515.256246,-10112.460574
877.286649,-2146.597232,-3330.926739,-9652.803275
877.286969,888.247130,-518.144159,-10572.117872
877.287289,3627.009116,2738.761985,-10418.898773
877.287609,5107.421000,4145.153275,-10648.727422
877.287929,3552.988522,4219.173869,-10648.727422
877.288249,1998.556043,2664.741391,-10572.117872
877.288569,2368.659014,-740.205942,-10801.946522
877.288889,1406.391290,-1554.432478,-9346.365076
877.289209,-1480.411884,-2738.761985,-11338.213370
877.289528,-1850.514855,-3627.009116,-8963.317327
877.289848,-1480.411884,-3182.885551,-9346.365076
877.290168,-1554.432478,-1850.514855,-9806.022374
877.290488,-888.247130,0.000000,-9652.803275
877.290808,148.041188,370.102971,-9652.803275
877.291128,888.247130,1406.391290,-10112.460574
877.291448,3256.906145,962.267725,-10265.679673
877.291768,4367.215058,888.247130,-10189.070123
877.292088,3923.091493,592.164754,-10342.289223
877.292408,3849.070898,-370.102971,-10265.679673
877.292728,2516.700203,0.000000,-10342.289223
877.293048,-1036.288319,148.041188,-10955.165621
877.293368,-3552.988522,-962.267725,-10648.727422
877.293688,-5921.647536,-1850.514855,-9422.974625
877.294008,-6291.750507,-1406.391290,-10189.070123
877.294328,-3182.885551,-1628.453072,-10112.460574
877.294648,-296.082377,-74.020594,-10495.508323
877.294968,1406.391290,296.082377,-10801.946522
877.295288,1406.391290,1184.329507,-10112.460574
877.295608,1184.329507,2072.576638,-10495.508323
877.295928,74.020594,3849.070898,-10725.336972
877.296248,814.226536,3627.009116,-10725.336972
877.296567,1924.535449,4219.173869,-10189.070123
877.296887,1110.308913,3034.844362,-10878.556072
877.297207,888.247130,148.041188,-9729.412825
877.297527,-1258.350101,-962.267725,-9806.022374
877.297847,-2442.679609,-962.267725,-10112.460574
877.298167,-2590.720797,-592.164754,-9269.755526
877.298487,-2294.638420,1036.288319,-10189.070123
877.298807,-148.041188,1628.453072,-10265.679673
877.299127,1258.350101,1184.329507,-9729.412825
877.299447,1332.370696,2220.617826,-9959.241474
877.299767,2368.659014,2960.823768,-10801.946522
877.300087,4071.132681,2516.700203,-10112.460574
877.300407,4071.132681,2738.761985,-10189.070123
877.300727,2812.782580,2294.638420,-10342.289223
877.301047,1554.432478,814.226536,-9422.974625
