#time,accel_x,accel_y,accel_z
874.160232,592.164754,-222.061783,-9882.631924
874.160552,0.000000,296.082377,-10112.460574
874.160872,370.102971,444.123565,-10189.070123
874.161193,222.061783,444.123565,-10112.460574
874.161513,74.020594,592.164754,-9959.241474
874.161833,296.082377,222.061783,-10035.851024
874.162154,518.144159,0.000000,-10189.070123
874.162474,962.267725,148.041188,-10035.851024
874.162794,888.247130,370.102971,-10495.508323
874.163114,1036.288319,666.185348,-10035.851024
874.163435,1036.288319,296.082377,-10265.679673
874.163755,740.205942,518.144159,-10265.679673
874.164075,74.020594,0.000000,-10035.851024
874.164396,-518.144159,-370.102971,-9959.241474
874.164716,0.000000,148.041188,-10418.898773
874.165036,222.061783,74.020594,-10112.460574
874.165357,0.000000,444.123565,-10342.289223
874.165677,0.000000,666.185348,-10265.679673
874.165997,740.205942,592.164754,-11108.384721
874.166318,1480.411884,518.144159,-10418.898773
874.166638,1110.308913,222.061783,-10418.898773
874.166958,296.082377,-222.061783,-10189.070123
874.167279,74.020594,-370.102971,-9882.631924
874.167599,74.020594,-296.082377,-9959.241474
874.167919,518.144159,-444.123565,-9959.241474
874.168239,-518.144159,-666.185348,-10112.460574
874.168560,-1036.288319,-592.164754,-9882.631924
874.168880,-296.082377,-1036.288319,-10035.851024
874.169200,-666.185348,-296.082377,-9806.022374
874.169521,-888.247130,0.000000,-9729.412825
874.169841,-592.164754,-444.123565,-10112.460574
874.170161,74.020594,-370.102971,-10265.679673
874.170482,-444.123565,-740.205942,-9882.631924
874.170802,-518.144159,-1332.370696,-10035.851024
874.171122,-444.123565,-1850.514855,-9882.631924
874.171443,0.000000,-1702.473667,-10112.460574
874.171763,-370.102971,-1480.411884,-9959.241474
874.172083,-1776.494261,-1924.535449,-9959.241474
874.172403,-2368.659014,-2146.597232,-9806.022374
874.172724,-1554.432478,-1998.556043,-9882.631924
874.173044,-962.267725,-1258.350101,-9959.241474
874.173364,-1258.350101,-1184.329507,-9806.022374
874.173685,-1702.473667,-1702.473667,-9959.241474
874.174005,-814.226536,-1924.535449,-9959.241474
874.174325,148.041188,-2072.576638,-10112.460574
874.174646,148.041188,-1480.411884,-9576.193725
874.174966,-1554.432478,-2368.659014,-10189.070123
874.175286,-2738.761985,-2442.679609,-10418.898773
874.175607,-2590.720797,-3108.864956,-9882.631924
874.175927,-2220.617826,-2738.761985,-9576.193725
874.176247,-1776.494261,-3330.926739,-9959.241474
874.176568,-2812.782580,-3330.926739,-9882.631924
874.176888,-2294.638420,-2664.741391,-9959.241474
874.177208,-814.226536,-1702.473667,-10112.460574
874.177528,518.144159,-1184.329507,-10418.898773
874.177849,222.061783,-592.164754,-10572.117872
874.178169,-962.267725,-814.226536,-10725.336972
874.178489,-1998.556043,-1702.473667,-10342.289223
874.178810,-2960.823768,-2368.659014,-10265.679673
874.179130,-4441.235652,-3404.947333,-9806.022374
874.179450,-6069.688724,-4589.276840,-9422.974625
874.179771,-5403.503377,-5403.503377,-9422.974625
874.180091,-2812.782580,-5921.647536,-9422.974625
874.180411,-370.102971,-4589.276840,-9959.241474
874.180732,444.123565,-2368.659014,-10342.289223
874.181052,962.267725,370.102971,-10572.117872
874.181372,2220.617826,1776.494261,-10265.679673
874.181692,2664.741391,2294.638420,-9346.365076
874.182013,2294.638420,888.247130,-10725.336972
874.182333,222.061783,-1258.350101,-10189.070123
874.182653,-1776.494261,-3478.967927,-10265.679673
874.182974,-3404.947333,-4515.256246,-9499.584175
874.183294,-5329.482782,-4589.276840,-9652.803275
874.183614,-6069.688724,-4589.276840,-9193.145976
874.183935,-4367.215058,-4885.359217,-9116.536426
874.184255,-1332.370696,-4367.215058,-9806.022374
874.184575,1258.350101,-2294.638420,-10112.460574
874.184896,2442.679609,296.082377,-10725.336972
874.185216,3701.029710,2442.679609,-10189.070123
874.185536,4811.338623,3330.926739,-11031.775171
874.185857,3923.091493,3182.885551,-11031.775171
874.186177,222.061783,1332.370696,-11031.775171
874.186497,-3923.091493,-1184.329507,-10189.070123
874.186817,-6291.750507,-3775.050304,-9806.022374
874.187138,-6217.729913,-6217.729913,-9806.022374
874.187458,-4885.359217,-5995.668130,-9269.755526
874.187778,-4515.256246,-5847.626942,-9269.755526
874.188099,-2886.803174,-3404.947333,-9422.974625
874.188419,-148.041188,-370.102971,-10112.460574
874.188739,1776.494261,2664.741391,-11261.603821
874.189060,2516.700203,4663.297435,-10878.556072
874.189380,2738.761985,3404.947333,-10648.727422
874.189700,3256.906145,592.164754,-10572.117872
874.190021,1480.411884,-1628.453072,-10648.727422
874.190341,-1702.473667,-2516.700203,-9729.412825
874.190661,-4515.256246,-2220.617826,-9806.022374
874.190981,-5699.585753,-1628.453072,-9806.022374
874.191302,-7179.997637,-2442.679609,-9959.241474
874.191622,-8216.285956,-4219.173869,-9422.974625
874.191942,-6661.853478,-6143.709319,-8733.488677
874.192263,-2368.659014,-6513.812290,-8733.488677
874.192583,2368.659014,-3923.091493,-9652.803275
874.192903,4737.318029,370.102971,-10342.289223
874.193224,2886.803174,3997.112087,-10189.070123
874.193544,2146.597232,5107.421000,-10572.117872
874.193864,1628.453072,4367.215058,-10648.727422
874.194185,1628.453072,888.247130,-10725.336972
874.194505,0.000000,-3182.885551,-10342.289223
874.194825,-3330.926739,-6291.750507,-10265.679673
874.195145,-6439.791695,-6883.915261,-9576.193725
874.195466,-8364.327145,-5699.585753,-9576.193725
874.195786,-8216.285956,-3330.926739,-9269.755526
874.196106,-5773.606348,-3108.864956,-9193.145976
874.196427,-962.267725,-3256.906145,-9652.803275
874.196747,2590.720797,-2072.576638,-10572.117872
874.197067,4219.173869,-444.123565,-11184.994271
874.197388,4811.338623,-222.061783,-10725.336972
874.197708,4589.276840,1628.453072,-10801.946522
874.198028,4441.235652,3034.844362,-10725.336972
874.198349,1110.308913,2294.638420,-11261.603821
874.198669,-3108.864956,-518.144159,-10801.946522
874.198989,-6735.874072,-3775.050304,-9806.022374
874.199310,-8734.430116,-6957.935855,-9729.412825
874.199630,-7624.121203,-9178.553681,-8810.098227
874.199950,-5625.565159,-10288.862594,-8656.879127
874.200270,-4367.215058,-8216.285956,-8886.707777
874.200591,-2368.659014,-4811.338623,-9193.145976
874.200911,1924.535449,-740.205942,-10265.679673
874.201231,5181.441594,3034.844362,-10418.898773
874.201552,5625.565159,3923.091493,-10648.727422
874.201872,3108.864956,3108.864956,-11261.603821
874.202192,-666.185348,-370.102971,-10189.070123
874.202513,-3182.885551,-4293.194464,-9882.631924
874.202833,-3034.844362,-5403.503377,-9729.412825
874.203153,-4219.173869,-5773.606348,-9806.022374
874.203474,-6217.729913,-5625.565159,-9959.241474
874.203794,-6735.874072,-5699.585753,-9346.365076
874.204114,-5625.565159,-4737.318029,-9806.022374
874.204434,-2738.761985,-4293.194464,-9882.631924
874.204755,-1480.411884,-2664.741391,-9806.022374
874.205075,-814.226536,-2664.741391,-9959.241474
874.205395,888.247130,-444.123565,-9652.803275
874.205716,3849.070898,814.226536,-11031.775171
874.206036,4071.132681,1184.329507,-11414.822920
874.206356,2146.597232,518.144159,-10878.556072
874.206677,-1036.288319,-1184.329507,-10572.117872
874.206997,-3256.906145,-1258.350101,-10572.117872
874.207317,-4737.318029,-3182.885551,-10265.679673
874.207638,-6661.853478,-3997.112087,-9959.241474
874.207958,-5403.503377,-5033.400406,-9652.803275
874.208278,-3108.864956,-4515.256246,-10112.460574
874.208599,-1554.432478,-3627.009116,-9882.631924
874.208919,-518.144159,-1258.350101,-9652.803275
874.209239,1184.329507,-370.102971,-10265.679673
874.209559,2960.823768,592.164754,-10342.289223
874.209880,1998.556043,1628.453072,-10495.508323
874.210200,740.205942,-74.020594,-9806.022374
874.210520,1924.535449,-962.267725,-10112.460574
874.210841,2664.741391,-2072.576638,-9882.631924
874.211161,222.061783,-2664.741391,-9882.631924
874.211481,-2738.761985,-3182.885551,-9499.584175
874.211802,-5773.606348,-2294.638420,-9576.193725
874.212122,-5551.544565,-3849.070898,-9806.022374
874.212442,-4071.132681,-3552.988522,-8963.317327
874.212763,-2368.659014,-3256.906145,-8810.098227
874.213083,-444.123565,-3034.844362,-9422.974625
874.213403,1184.329507,-2590.720797,-9806.022374
874.213723,3478.967927,-814.226536,-10265.679673
874.214044,2812.782580,3330.926739,-10955.165621
874.214364,666.185348,4071.132681,-11414.822920
874.214684,-370.102971,4293.194464,-10955.165621
874.215005,-1332.370696,1480.411884,-10878.556072
874.215325,-1480.411884,-1480.411884,-10725.336972
874.215645,-2812.782580,-3404.947333,-10955.165621
874.215966,-4663.297435,-3034.844362,-10495.508323
874.216286,-4737.318029,-2664.741391,-10418.898773
874.216606,-3775.050304,-2442.679609,-10035.851024
874.216927,-1480.411884,-962.267725,-9959.241474
874.217228,0.000000,-962.267725,-11721.261119
874.217548,1480.411884,666.185348,-10495.508323
874.217868,1628.453072,1702.473667,-11184.994271
874.218188,1480.411884,3775.050304,-10648.727422
874.218508,444.123565,4293.194464,-10572.117872
874.218828,-2072.576638,4219.173869,-10189.070123
874.219147,-296.082377,962.267725,-10035.851024
874.219467,444.123565,-3108.864956,-10112.460574
874.219787,370.102971,-5033.400406,-9422.974625
874.220107,-1480.411884,-5995.668130,-9422.974625
874.220427,-3034.844362,-4589.276840,-8656.879127
874.220747,-4071.132681,-1924.535449,-8963.317327
874.221067,-1998.556043,-296.082377,-8886.707777
874.221387,444.123565,740.205942,-9193.145976
874.221707,3330.926739,518.144159,-9576.193725
874.222027,5181.441594,1036.288319,-10112.460574
874.222347,4071.132681,666.185348,-10495.508323
874.222667,2072.576638,740.205942,-10265.679673
874.222987,-296.082377,-222.061783,-10035.851024
874.223307,-444.123565,-1628.453072,-9729.412825
874.223627,-1702.473667,-2072.576638,-9576.193725
874.223947,-3701.029710,-1406.391290,-10725.336972
874.224267,-3627.009116,-1924.535449,-10112.460574
874.224587,-3256.906145,-2886.803174,-9959.241474
874.224907,-592.164754,-1480.411884,-9652.803275
874.225227,1554.432478,-1776.494261,-10189.070123
874.225547,2960.823768,-1480.411884,-10878.556072
874.225867,3404.947333,-148.041188,-10955.165621
874.226187,2664.741391,4071.132681,-11644.651570
874.226507,0.000000,5551.544565,-11184.994271
874.226827,888.247130,4367.215058,-11568.042020
874.227147,2220.617826,2516.700203,-11491.432470
874.227467,1480.411884,0.000000,-10955.165621
874.227787,-444.123565,-2146.597232,-10725.336972
874.228107,-2368.659014,-3775.050304,-10265.679673
874.228427,-3701.029710,-2072.576638,-9882.631924
874.228747,-5699.585753,-1702.473667,-10725.336972
874.229067,-3404.947333,-2368.659014,-9193.145976
874.229387,1258.350101,-1924.535449,-9422.974625
874.229707,3552.988522,-370.102971,-10035.851024
874.230027,3701.029710,2146.597232,-10112.460574
874.230347,2516.700203,1258.350101,-10418.898773
874.230667,2368.659014,1036.288319,-9652.803275
874.230987,3108.864956,1110.308913,-9806.022374
874.231307,2738.761985,888.247130,-9652.803275
874.231627,962.267725,-148.041188,-9422.974625
874.231947,-1554.432478,-1998.556043,-9882.631924
874.232267,-2738.761985,-2220.617826,-9422.974625
874.232587,-2738.761985,-444.123565,-9576.193725
874.232907,-1332.370696,0.000000,-9652.803275
874.233227,222.061783,-1998.556043,-9499.584175
874.233547,1776.494261,-1776.494261,-10035.851024
874.233867,1036.288319,-1480.411884,-10035.851024
874.234187,1480.411884,1110.308913,-9806.022374
874.234507,2738.761985,3404.947333,-10648.727422
874.234827,3552.988522,2590.720797,-10648.727422
874.235147,3552.988522,1258.350101,-10801.946522
874.235467,1628.453072,-666.185348,-10878.556072
874.235787,518.144159,-1332.370696,-10572.117872
874.236107,74.020594,962.267725,-10955.165621
874.236427,-1480.411884,2368.659014,-11031.775171
874.236747,-1702.473667,1036.288319,-10418.898773
874.237067,-1850.514855,-1184.329507,-10035.851024
874.237387,-814.226536,-3256.906145,-10801.946522
874.237706,962.267725,-2442.679609,-9806.022374
874.238026,2294.638420,370.102971,-10801.946522
874.238346,2960.823768,1702.473667,-10189.070123
874.238666,3701.029710,2738.761985,-11797.870669
874.238986,1776.494261,3404.947333,-10725.336972
874.239306,518.144159,2368.659014,-10112.460574
874.239626,74.020594,1776.494261,-10418.898773
874.239946,-1184.329507,-444.123565,-9959.241474
874.240266,148.041188,0.000000,-10648.727422
874.240586,518.144159,-1184.329507,-8810.098227
874.240906,518.144159,-4293.194464,-9269.755526
874.241226,-740.205942,-3182.885551,-9422.974625
874.241546,-1110.308913,-2368.659014,-9806.022374
874.241866,-148.041188,-592.164754,-9116.536426
874.242186,1776.494261,1924.535449,-9806.022374
874.242506,2590.720797,3108.864956,-10342.289223
874.242826,1406.391290,1406.391290,-9959.241474
874.243146,740.205942,296.082377,-10725.336972
874.243466,-518.144159,2368.659014,-10725.336972
874.243786,-1480.411884,1702.473667,-10495.508323
874.244106,-1702.473667,74.020594,-10189.070123
874.244426,-1480.411884,-2442.679609,-9576.193725
874.244746,-1332.370696,-4145.153275,-9499.584175
874.245066,-1554.432478,-4071.132681,-10265.679673
874.245386,-3256.906145,-518.144159,-10189.070123
874.245706,-2368.659014,0.000000,-10189.070123
874.246026,1480.411884,3182.885551,-10418.898773
874.246346,3849.070898,4145.153275,-11108.384721
874.246666,2146.597232,2738.761985,-10725.336972
874.246986,1184.329507,1184.329507,-11031.775171
874.247306,740.205942,-518.144159,-10955.165621
874.247626,814.226536,962.267725,-10418.898773
874.247946,1628.453072,1628.453072,-10495.508323
874.248266,740.205942,1332.370696,-9882.631924
874.248586,-222.061783,0.000000,-10495.508323
874.248906,-370.102971,-370.102971,-10418.898773
874.249226,-296.082377,-1036.288319,-9729.412825
874.249546,0.000000,-444.123565,-9729.412825
874.249866,888.247130,370.102971,-9346.365076
874.250186,2442.679609,666.185348,-9499.584175
874.250506,3330.926739,-444.123565,-9806.022374
874.250826,4737.318029,1036.288319,-10112.460574
874.251146,3108.864956,2442.679609,-9882.631924
874.251466,2886.803174,1628.453072,-9806.022374
874.251786,3775.050304,1406.391290,-9729.412825
874.252106,2664.741391,888.247130,-9652.803275
874.252426,0.000000,-1258.350101,-9882.631924
874.252746,-2220.617826,-2960.823768,-9269.755526
874.253066,-2146.597232,-4293.194464,-9806.022374
874.253386,-1036.288319,-2812.782580,-9576.193725
874.253706,1184.329507,2812.782580,-10189.070123
874.254026,2220.617826,3775.050304,-10878.556072
874.254346,3478.967927,2590.720797,-10801.946522
874.254666,2516.700203,-740.205942,-10342.289223
874.254986,1702.473667,-1110.308913,-10955.165621
874.255306,1776.494261,1998.556043,-10495.508323
874.255626,1480.411884,3108.864956,-10878.556072
874.255946,2146.597232,2368.659014,-10801.946522
874.256265,296.082377,0.000000,-10648.727422
874.256585,-2146.597232,-518.144159,-10955.165621
874.256905,-2368.659014,148.041188,-10495.508323
874.257225,-2368.659014,74.020594,-10035.851024
874.257545,-1110.308913,444.123565,-10648.727422
874.257865,444.123565,370.102971,-9959.241474
874.258185,74.020594,-814.226536,-10112.460574
874.258505,-222.061783,222.061783,-10342.289223
874.258825,370.102971,1110.308913,-9882.631924
874.259145,1258.350101,1332.370696,-10572.117872
874.259465,444.123565,1554.432478,-9346.365076
874.259785,1406.391290,1184.329507,-9576.193725
874.260105,814.226536,-1776.494261,-9806.022374
874.260425,-1258.350101,-2664.741391,-9652.803275
874.260745,-1332.370696,-2590.720797,-9576.193725
874.261065,-1776.494261,-1554.432478,-8886.707777
874.261385,-740.205942,0.000000,-9193.145976
874.261705,1480.411884,148.041188,-9806.022374
874.262025,370.102971,-1184.329507,-9652.803275
874.262345,-740.205942,-2368.659014,-9806.022374
874.262665,222.061783,-1110.308913,-9959.241474
874.262985,444.123565,444.123565,-9499.584175
874.263305,222.061783,1924.535449,-10648.727422
874.263625,740.205942,962.267725,-9806.022374
874.263945,518.144159,-296.082377,-10265.679673
874.264265,-1184.329507,-592.164754,-10112.460574
874.264585,-2516.700203,-740.205942,-9806.022374
874.264905,-1702.473667,-148.041188,-10265.679673
874.265225,-666.185348,888.247130,-10342.289223
874.265545,592.164754,-1406.391290,-9882.631924
874.265865,1258.350101,-3108.864956,-9882.631924
874.266185,296.082377,-1110.308913,-9959.241474
874.266505,1776.494261,666.185348,-10725.336972
874.266825,3182.885551,3701.029710,-11031.775171
874.267145,5033.400406,5107.421000,-11491.432470
874.267465,2886.803174,4219.173869,-10189.070123
874.267785,-666.185348,1332.370696,-10648.727422
874.268105,-666.185348,-1110.308913,-10112.460574
874.268425,1036.288319,-1184.329507,-10189.070123
874.268745,1850.514855,-592.164754,-10418.898773
874.269065,518.144159,-444.123565,-9882.631924
874.269385,-222.061783,-1258.350101,-9422.974625
874.269705,518.144159,-370.102971,-9806.022374
874.270025,-444.123565,1924.535449,-8963.317327
874.270345,0.000000,1628.453072,-10035.851024
874.270665,2960.823768,2664.741391,-10342.289223
874.270985,3775.050304,814.226536,-9269.755526
874.271305,3256.906145,148.041188,-9499.584175
874.271625,2516.700203,0.000000,-9269.755526
874.271945,1036.288319,-740.205942,-9729.412825
874.272265,518.144159,-222.061783,-9806.022374
874.272585,-296.082377,-296.082377,-9499.584175
874.272905,-444.123565,-814.226536,-9269.755526
874.273225,-222.061783,592.164754,-9422.974625
874.273545,-1184.329507,-740.205942,-9806.022374
874.273865,518.144159,-1036.288319,-9806.022374
874.274185,148.041188,-1110.308913,-9729.412825
874.274505,1406.391290,-740.205942,-10035.851024
874.274824,1850.514855,1998.556043,-10112.460574
874.275144,592.164754,2072.576638,-10418.898773
874.275464,2442.679609,2886.803174,-10801.946522
874.275784,518.144159,3182.885551,-10955.165621
874.276104,888.247130,1776.494261,-11338.213370
874.276424,-1332.370696,1480.411884,-10265.679673
874.276744,-2368.659014,1554.432478,-11261.603821
874.277064,-1184.329507,1554.432478,-10265.679673
874.277384,518.144159,740.205942,-10801.946522
874.277704,0.000000,1406.391290,-11184.994271
874.278024,-666.185348,1332.370696,-10495.508323
874.278344,-370.102971,444.123565,-10265.679673
874.278664,-74.020594,962.267725,-10725.336972
874.278984,1776.494261,1036.288319,-10878.556072
874.279304,1924.535449,1702.473667,-9882.631924
874.279624,1702.473667,1184.329507,-10418.898773
874.279944,1184.329507,2368.659014,-9806.022374
874.280264,148.041188,3034.844362,-10035.851024
874.280584,0.000000,1998.556043,-9806.022374
874.280904,74.020594,-2146.597232,-8963.317327
874.281224,444.123565,-3701.029710,-9116.536426
874.281544,-1184.329507,-4959.379811,-9499.584175
874.281864,-2294.638420,-3701.029710,-8963.317327
874.282184,-3108.864956,-1628.453072,-9269.755526
874.282504,-1258.350101,1184.329507,-9652.803275
874.282824,1776.494261,2886.803174,-9346.365076
874.283144,2368.659014,1258.350101,-10265.679673
874.283464,2516.700203,222.061783,-10035.851024
874.283784,1184.329507,518.144159,-10035.851024
874.284104,0.000000,1332.370696,-10955.165621
874.284424,1110.308913,1924.535449,-10189.070123
874.284744,2664.741391,1850.514855,-10342.289223
874.285064,2516.700203,1554.432478,-10878.556072
874.285384,1258.350101,740.205942,-10572.117872
874.285704,-740.205942,444.123565,-10955.165621
874.286024,-1554.432478,666.185348,-9959.241474
874.286344,148.041188,962.267725,-10648.727422
874.286664,3108.864956,1036.288319,-10801.946522
874.286984,3108.864956,1406.391290,-10955.165621
874.287304,1184.329507,962.267725,-10265.679673
874.287624,-1184.329507,1702.473667,-10572.117872
874.287944,296.082377,2590.720797,-10572.117872
874.288264,2368.659014,1332.370696,-9882.631924
874.288584,3034.844362,370.102971,-9959.241474
874.288904,4441.235652,-592.164754,-10495.508323
874.289224,296.082377,-1332.370696,-10189.070123
874.289544,-1998.556043,-1258.350101,-9729.412825
874.289864,-1776.494261,-666.185348,-8350.440928
874.290184,1258.350101,222.061783,-9806.022374
874.290504,2294.638420,962.267725,-9806.022374
874.290824,1924.535449,0.000000,-9882.631924
874.291144,1036.288319,-666.185348,-9806.022374
874.291464,-888.247130,-296.082377,-9116.536426
874.291784,-518.144159,666.185348,-9346.365076
874.292104,444.123565,1406.391290,-9499.584175
874.292424,2072.576638,1184.329507,-9959.241474
874.292744,1110.308913,444.123565,-9652.803275
874.293064,-1258.350101,-222.061783,-10035.851024
874.293383,-2590.720797,592.164754,-9806.022374
874.293703,-1924.535449,370.102971,-9576.193725
874.294023,740.205942,0.000000,-10112.460574
874.294343,2368.659014,-740.205942,-9806.022374
874.294663,740.205942,-370.102971,-10572.117872
874.294983,0.000000,-592.164754,-10495.508323
874.295303,740.205942,518.144159,-11184.994271
874.295623,1850.514855,222.061783,-10418.898773
874.295943,2368.659014,1628.453072,-10725.336972
874.296263,666.185348,1332.370696,-10801.946522
874.296583,-1406.391290,370.102971,-10648.727422
874.296903,-1702.473667,-222.061783,-10648.727422
874.297223,-888.247130,592.164754,-10342.289223
874.297543,-740.205942,592.164754,-9959.241474
874.297863,1480.411884,-888.247130,-10112.460574
874.298183,1776.494261,-2072.576638,-9806.022374
874.298503,962.267725,-1628.453072,-10648.727422
874.298823,-1258.350101,1110.308913,-9882.631924
874.299143,-1850.514855,2368.659014,-9806.022374
874.299463,296.082377,2738.761985,-10035.851024
874.299783,1702.473667,1776.494261,-8963.317327
874.300103,592.164754,-888.247130,-9576.193725
874.300423,592.164754,-1850.514855,-10035.851024
874.300743,-592.164754,-2368.659014,-9346.365076
874.301063,-592.164754,-1702.473667,-8963.317327
874.301383,666.185348,1036.288319,-8044.002729
874.301703,222.061783,666.185348,-9652.803275
874.302023,-148.041188,1184.329507,-9806.022374
874.302343,-1924.535449,148.041188,-9959.241474
874.302663,-592.164754,222.061783,-9729.412825
874.302983,1184.329507,-962.267725,-9729.412825
874.303303,3923.091493,-296.082377,-9806.022374
874.303623,3923.091493,1036.288319,-10725.336972
874.303943,3849.070898,2590.720797,-10495.508323
874.304263,74.020594,3034.844362,-10801.946522
874.304583,-1184.329507,2516.700203,-10648.727422
874.304903,666.185348,1924.535449,-10801.946522
874.305223,888.247130,1036.288319,-10648.727422
874.305543,444.123565,518.144159,-10265.679673
874.305863,-444.123565,-444.123565,-10418.898773
874.306183,0.000000,-1110.308913,-10189.070123
874.306503,-444.123565,-148.041188,-10418.898773
874.306823,444.123565,888.247130,-10495.508323
874.307143,-296.082377,2664.741391,-10035.851024
874.307463,1110.308913,2442.679609,-10189.070123
874.307783,2368.659014,1628.453072,-9882.631924
874.308103,3034.844362,592.164754,-10265.679673
874.308423,3552.988522,-296.082377,-10112.460574
874.308743,2664.741391,-444.123565,-9882.631924
874.309063,1998.556043,740.205942,-9806.022374
874.309383,740.205942,2072.576638,-10189.070123
874.309703,0.000000,2664.741391,-9806.022374
874.310023,-444.123565,1776.494261,-10035.851024
874.310343,-1258.350101,-222.061783,-9576.193725
874.310663,-1702.473667,-2738.761985,-9039.926876
874.310983,444.123565,-2886.803174,-9193.145976
874.311303,1332.370696,-1554.432478,-9422.974625
874.311623,2442.679609,0.000000,-9729.412825
874.311942,1702.473667,2294.638420,-10495.508323
874.312262,666.185348,3108.864956,-9959.241474
874.312582,-962.267725,1998.556043,-10265.679673
874.312902,-888.247130,2220.617826,-10112.460574
874.313222,0.000000,-370.102971,-9959.241474
874.313542,740.205942,-1850.514855,-10342.289223
874.313862,814.226536,-2516.700203,-10035.851024
874.314182,1258.350101,-1998.556043,-11644.651570
874.314502,0.000000,-740.205942,-10342.289223
874.314822,-962.267725,962.267725,-10265.679673
874.315142,0.000000,2516.700203,-10418.898773
874.315462,370.102971,2738.761985,-11031.775171
874.315782,148.041188,4219.173869,-11491.432470
874.316102,-814.226536,1110.308913,-10648.727422
874.316422,1184.329507,-444.123565,-11108.384721
874.316742,-518.144159,-1628.453072,-9882.631924
874.317062,148.041188,-1998.556043,-10035.851024
874.317382,888.247130,-1406.391290,-10189.070123
874.317702,592.164754,-1258.350101,-10418.898773
874.318022,-888.247130,-518.144159,-10035.851024
874.318342,-2590.720797,666.185348,-10265.679673
874.318662,-888.247130,518.144159,-10189.070123
874.318982,666.185348,518.144159,-9882.631924
874.319302,592.164754,-1110.308913,-9882.631924
874.319622,296.082377,-1628.453072,-10112.460574
874.319942,592.164754,-1850.514855,-9806.022374
874.320262,-518.144159,-1776.494261,-9882.631924
874.320582,74.020594,0.000000,-10035.851024
874.320902,74.020594,1332.370696,-9652.803275
874.321222,148.041188,2664.741391,-9882.631924
874.321542,0.000000,2516.700203,-10955.165621
874.321862,-296.082377,1850.514855,-10495.508323
874.322182,-1036.288319,1850.514855,-10112.460574
874.322502,222.061783,-592.164754,-9882.631924
874.322822,2590.720797,-2738.761985,-9652.803275
874.323143,2812.782580,-3108.864956,-9806.022374
874.323463,296.082377,-1258.350101,-10189.070123
874.323783,-1924.535449,888.247130,-9959.241474
874.324103,-518.144159,3478.967927,-10112.460574
874.324423,2738.761985,4663.297435,-10955.165621
874.324743,2738.761985,2368.659014,-9959.241474
874.325063,2516.700203,0.000000,-10725.336972
874.325383,962.267725,-1702.473667,-10418.898773
874.325703,74.020594,-1998.556043,-10189.070123
874.326023,-296.082377,-666.185348,-9959.241474
874.326343,962.267725,518.144159,-9729.412825
874.326663,2960.823768,518.144159,-9269.755526
874.326983,3330.926739,814.226536,-9652.803275
874.327303,1036.288319,1110.308913,-9959.241474
874.327623,-814.226536,962.267725,-10112.460574
874.327943,814.226536,1554.432478,-10265.679673
874.328263,3404.947333,1480.411884,-10035.851024
874.328583,3775.050304,148.041188,-9806.022374
874.328903,2294.638420,74.020594,-9959.241474
874.329223,-666.185348,296.082377,-10112.460574
874.329543,-2146.597232,814.226536,-10189.070123
874.329863,-2590.720797,1924.535449,-9882.631924
874.330183,-814.226536,2442.679609,-10035.851024
874.330503,1110.308913,2146.597232,-9806.022374
874.330823,2072.576638,962.267725,-10265.679673
874.331143,1480.411884,0.000000,-10955.165621
874.331464,1554.432478,222.061783,-10342.289223
874.331784,888.247130,814.226536,-9959.241474
874.332104,0.000000,1628.453072,-9882.631924
874.332424,592.164754,2738.761985,-10189.070123
874.332744,666.185348,3478.967927,-11568.042020
874.333064,1184.329507,814.226536,-10955.165621
874.333384,1554.432478,-222.061783,-10035.851024
874.333704,444.123565,-1036.288319,-10342.289223
874.334024,0.000000,-1998.556043,-9576.193725
874.334344,-148.041188,-2590.720797,-9652.803275
874.334664,-1850.514855,-1184.329507,-9882.631924
874.334984,-2368.659014,0.000000,-10112.460574
874.335304,-1184.329507,1036.288319,-10265.679673
874.335624,74.020594,1924.535449,-10342.289223
874.335944,1332.370696,666.185348,-10418.898773
874.336264,518.144159,1110.308913,-10189.070123
874.336584,740.205942,740.205942,-10342.289223
874.336904,3034.844362,740.205942,-10878.556072
874.337224,444.123565,222.061783,-10955.165621
874.337544,-1554.432478,444.123565,-9652.803275
874.337864,-3701.029710,518.144159,-9729.412825
874.338184,-1628.453072,-222.061783,-9959.241474
874.338504,814.226536,-444.123565,-9806.022374
874.338824,1110.308913,-296.082377,-10112.460574
874.339144,296.082377,-148.041188,-9729.412825
874.339464,-814.226536,1480.411884,-10495.508323
874.339784,-1702.473667,888.247130,-10112.460574
874.340105,-1406.391290,-370.102971,-9422.974625
874.340425,592.164754,-1036.288319,-9652.803275
874.340745,2664.741391,-1110.308913,-10265.679673
874.341065,2516.700203,-296.082377,-9959.241474
874.341385,444.123565,740.205942,-10265.679673
874.341705,-888.247130,962.267725,-9882.631924
874.342025,-296.082377,0.000000,-9959.241474
874.342345,1258.350101,-1332.370696,-9959.241474
874.342665,1406.391290,-1702.473667,-10189.070123
874.342985,518.144159,-1332.370696,-10342.289223
874.343305,222.061783,74.020594,-10725.336972
874.343625,148.041188,148.041188,-10265.679673
874.343945,0.000000,888.247130,-10189.070123
874.344265,74.020594,0.000000,-10265.679673
874.344585,1258.350101,1850.514855,-10265.679673
874.344905,2146.597232,2516.700203,-11184.994271
874.345225,1480.411884,2368.659014,-10265.679673
874.345545,1036.288319,740.205942,-10955.165621
874.345865,1480.411884,-2294.638420,-10035.851024
874.346185,814.226536,-3256.906145,-9346.365076
874.346505,592.164754,-2146.597232,-9882.631924
874.346825,148.041188,518.144159,-10112.460574
874.347145,1036.288319,3330.926739,-10265.679673
874.347465,962.267725,3404.947333,-10648.727422
874.347785,1110.308913,1850.514855,-10035.851024
874.348105,1480.411884,-592.164754,-9806.022374
874.348425,1924.535449,-1554.432478,-10495.508323
874.348746,1480.411884,-1998.556043,-9576.193725
874.349066,888.247130,222.061783,-10112.460574
874.349386,1702.473667,1776.494261,-10189.070123
874.349706,1628.453072,148.041188,-9882.631924
874.350026,1332.370696,-518.144159,-10265.679673
874.350346,-148.041188,0.000000,-10495.508323
874.350666,-1702.473667,-74.020594,-9806.022374
874.350986,-1776.494261,592.164754,-9806.022374
874.351306,-592.164754,222.061783,-9806.022374
874.351626,1036.288319,-296.082377,-10112.460574
874.351946,888.247130,-1776.494261,-10035.851024
874.352266,222.061783,-1998.556043,-10189.070123
874.352586,444.123565,-1332.370696,-9882.631924
874.352906,370.102971,1184.329507,-9729.412825
874.353226,296.082377,2220.617826,-10955.165621
874.353546,1406.391290,1776.494261,-10342.289223
874.353866,592.164754,518.144159,-9882.631924
874.354186,-1628.453072,-1480.411884,-10035.851024
874.354506,-444.123565,-888.247130,-9806.022374
874.354826,-518.144159,-814.226536,-9806.022374
874.355146,1702.473667,0.000000,-10342.289223
874.355466,1554.432478,888.247130,-9729.412825
874.355786,-962.267725,-370.102971,-10112.460574
874.356106,-592.164754,-666.185348,-10418.898773
874.356426,-1554.432478,296.082377,-9729.412825
874.356746,-1628.453072,1332.370696,-9882.631924
874.357067,1702.473667,1406.391290,-9806.022374
874.357387,2072.576638,518.144159,-9959.241474
874.357707,1184.329507,0.000000,-10418.898773
874.358027,1628.453072,-1776.494261,-10112.460574
874.358347,1628.453072,-962.267725,-8503.660028
874.358667,-1110.308913,518.144159,-9576.193725
874.358987,0.000000,1184.329507,-9882.631924
874.359307,592.164754,0.000000,-10648.727422
874.359627,222.061783,-1850.514855,-10035.851024
874.359947,-2368.659014,-888.247130,-10648.727422
874.360267,-3701.029710,592.164754,-10265.679673
874.360587,-1184.329507,3404.947333,-10265.679673
874.360907,1184.329507,4737.318029,-10725.336972
874.361227,2368.659014,3034.844362,-11184.994271
874.361547,2072.576638,-1554.432478,-9806.022374
874.361867,1776.494261,-4145.153275,-9422.974625
874.362187,2146.597232,-4441.235652,-9116.536426
874.362507,2294.638420,-1406.391290,-9039.926876
874.362827,2220.617826,1406.391290,-10495.508323
874.363147,444.123565,1332.370696,-9806.022374
874.363467,1184.329507,740.205942,-10265.679673
874.363787,740.205942,962.267725,-10035.851024
874.364107,-148.041188,1480.411884,-9806.022374
874.364427,0.000000,2738.761985,-10801.946522
874.364747,1184.329507,1924.535449,-10572.117872
874.365067,2664.741391,0.000000,-9729.412825
874.365387,1702.473667,-740.205942,-9882.631924
874.365708,666.185348,-1480.411884,-9806.022374
874.366028,0.000000,-1184.329507,-9576.193725
874.366348,0.000000,888.247130,-10035.851024
874.366668,2294.638420,2664.741391,-10035.851024
874.366988,2590.720797,592.164754,-10189.070123
874.367308,1184.329507,666.185348,-10342.289223
874.367628,592.164754,-888.247130,-10418.898773
874.367948,0.000000,-888.247130,-9806.022374
874.368268,0.000000,518.144159,-9576.193725
874.368588,888.247130,1184.329507,-10035.851024
874.368908,1332.370696,962.267725,-9729.412825
874.369228,740.205942,444.123565,-10418.898773
874.369548,518.144159,0.000000,-10418.898773
874.369868,-370.102971,-1258.350101,-9882.631924
874.370188,-740.205942,-814.226536,-9806.022374
874.370508,-296.082377,0.000000,-9882.631924
874.370828,962.267725,1628.453072,-10572.117872
874.371148,0.000000,1702.473667,-10572.117872
874.371468,-148.041188,666.185348,-10112.460574
874.371788,0.000000,-148.041188,-10418.898773
874.372108,222.061783,666.185348,-10418.898773
874.372428,1332.370696,1702.473667,-10418.898773
874.372748,2368.659014,1110.308913,-10342.289223
874.373068,2368.659014,888.247130,-10495.508323
874.373388,740.205942,-296.082377,-10189.070123
874.373708,0.000000,-1332.370696,-9652.803275
874.374028,-888.247130,-1554.432478,-9269.755526
874.374349,-814.226536,-1258.350101,-9729.412825
874.374669,444.123565,-592.164754,-10035.851024
874.374989,74.020594,-1184.329507,-10189.070123
874.375309,-2590.720797,-666.185348,-10418.898773
874.375629,-2812.782580,-666.185348,-9346.365076
874.375949,-1702.473667,0.000000,-9806.022374
874.376269,74.020594,74.020594,-10112.460574
874.376589,1924.535449,-592.164754,-9959.241474
874.376909,370.102971,-814.226536,-9806.022374
874.377229,0.000000,-370.102971,-10648.727422
874.377549,-518.144159,0.000000,-10342.289223
874.377869,-1110.308913,592.164754,-9806.022374
874.378189,74.020594,592.164754,-9959.241474
874.378509,592.164754,-222.061783,-10342.289223
874.378829,74.020594,222.061783,-10495.508323
874.379149,296.082377,-1480.411884,-10035.851024
874.379469,-296.082377,-888.247130,-9806.022374
874.379789,-1924.535449,0.000000,-9729.412825
874.380109,148.041188,740.205942,-10342.289223
874.380429,1036.288319,222.061783,-9959.241474
874.380749,888.247130,1776.494261,-10265.679673
874.381069,-666.185348,1554.432478,-10342.289223
874.381389,-518.144159,2664.741391,-9959.241474
874.381709,1702.473667,2072.576638,-10648.727422
874.382029,3256.906145,518.144159,-9882.631924
874.382349,2812.782580,-222.061783,-10035.851024
874.382670,1036.288319,-740.205942,-10112.460574
874.382990,148.041188,-666.185348,-10112.460574
874.383310,-1036.288319,-740.205942,-9576.193725
874.383630,-1924.535449,518.144159,-9959.241474
874.383950,1924.535449,888.247130,-9652.803275
874.384270,5255.462188,1924.535449,-10265.679673
874.384590,2960.823768,1480.411884,-10725.336972
874.384910,3404.947333,1036.288319,-10495.508323
874.385230,592.164754,148.041188,-9806.022374
874.385550,1258.350101,222.061783,-10342.289223
874.385870,3108.864956,-148.041188,-9806.022374
874.386190,2664.741391,74.020594,-10418.898773
874.386510,1258.350101,148.041188,-10265.679673
874.386830,-444.123565,1628.453072,-9193.145976
874.387150,148.041188,2516.700203,-10495.508323
874.387470,2738.761985,2664.741391,-10495.508323
874.387790,2516.700203,1184.329507,-9959.241474
874.388110,1110.308913,0.000000,-10112.460574
874.388430,888.247130,-2146.597232,-9882.631924
874.388750,-592.164754,-2368.659014,-9576.193725
874.389070,-592.164754,-148.041188,-10112.460574
874.389390,-296.082377,1998.556043,-9882.631924
874.389710,1332.370696,3478.967927,-12027.699319
874.390030,3034.844362,1924.535449,-9882.631924
874.390350,1406.391290,2220.617826,-10725.336972
874.390670,-1036.288319,1110.308913,-10572.117872
874.390990,-2590.720797,888.247130,-9806.022374
874.391311,-2368.659014,-1554.432478,-9806.022374
874.391631,-888.247130,-2886.803174,-9346.365076
874.391951,0.000000,-3034.844362,-9346.365076
874.392271,-1184.329507,-1184.329507,-10418.898773
874.392591,-1184.329507,740.205942,-9806.022374
874.392911,-148.041188,3997.112087,-10035.851024
874.393231,518.144159,3775.050304,-10801.946522
874.393551,2368.659014,1998.556043,-10112.460574
874.393871,-592.164754,-1332.370696,-10035.851024
874.394191,-2738.761985,-3404.947333,-9806.022374
874.394511,-2220.617826,-2812.782580,-9346.365076
874.394831,-592.164754,-1554.432478,-9882.631924
874.395151,1036.288319,444.123565,-9959.241474
874.395471,1628.453072,1110.308913,-9422.974625
874.395791,592.164754,666.185348,-10648.727422
874.396111,-1184.329507,1702.473667,-10495.508323
874.396431,-1480.411884,1554.432478,-10112.460574
874.396751,-1258.350101,-148.041188,-10265.679673
874.397071,370.102971,-1110.308913,-9346.365076
874.397391,-148.041188,-2294.638420,-9959.241474
874.397711,592.164754,-3256.906145,-9959.241474
874.398031,222.061783,-962.267725,-10725.336972
874.398351,666.185348,2072.576638,-10648.727422
874.398671,1406.391290,3108.864956,-10572.117872
874.398991,888.247130,3701.029710,-10648.727422
874.399311,1480.411884,2072.576638,-10725.336972
874.399631,1554.432478,518.144159,-11644.651570
874.399952,-740.205942,-1554.432478,-10878.556072
874.400272,814.226536,-814.226536,-10112.460574
874.400592,2294.638420,-222.061783,-9729.412825
874.400912,3404.947333,2812.782580,-10495.508323
874.401232,5033.400406,2072.576638,-10112.460574
874.401552,3034.844362,1850.514855,-9652.803275
874.401872,1628.453072,0.000000,-9959.241474
874.402192,1998.556043,-1110.308913,-9729.412825
874.402512,1332.370696,-2516.700203,-8810.098227
874.402832,74.020594,-1258.350101,-9422.974625
874.403152,370.102971,-888.247130,-9806.022374
874.403472,1332.370696,74.020594,-9269.755526
874.403792,0.000000,666.185348,-9806.022374
874.404112,-518.144159,2738.761985,-9499.584175
874.404432,444.123565,3182.885551,-9729.412825
874.404752,2368.659014,1924.535449,-10265.679673
874.405072,4071.132681,-592.164754,-9346.365076
874.405392,3701.029710,-2368.659014,-9422.974625
874.405712,370.102971,-2294.638420,-9959.241474
874.406032,-1628.453072,-1036.288319,-9806.022374
874.406352,-2072.576638,1776.494261,-10189.070123
874.406672,518.144159,3997.112087,-10648.727422
874.406992,1184.329507,3330.926739,-10495.508323
874.407312,740.205942,2146.597232,-10648.727422
874.407632,1036.288319,0.000000,-10801.946522
874.407952,-370.102971,-518.144159,-10418.898773
874.408273,-888.247130,444.123565,-10495.508323
874.408593,740.205942,74.020594,-10035.851024
874.408913,1406.391290,148.041188,-10112.460574
874.409233,1776.494261,1036.288319,-10725.336972
874.409553,-370.102971,2294.638420,-11644.651570
874.409873,-2220.617826,1924.535449,-11031.775171
874.410193,-1184.329507,1998.556043,-10418.898773
874.410513,0.000000,1480.411884,-10189.070123
874.410833,296.082377,-962.267725,-9729.412825
874.411153,222.061783,-1258.350101,-9959.241474
874.411473,370.102971,-2294.638420,-10035.851024
874.411793,814.226536,-962.267725,-10189.070123
874.412113,-444.123565,1110.308913,-10035.851024
874.412433,-148.041188,1702.473667,-9729.412825
874.412753,-518.144159,2368.659014,-9806.022374
874.413073,518.144159,2368.659014,-10342.289223
874.413393,296.082377,1036.288319,-10418.898773
874.413713,-1184.329507,-1702.473667,-9806.022374
874.414033,-1702.473667,-2072.576638,-9422.974625
874.414353,74.020594,-3034.844362,-9422.974625
874.414673,1184.329507,-3034.844362,-9882.631924
874.414993,444.123565,-1702.473667,-9806.022374
874.415313,-1850.514855,1258.350101,-10265.679673
874.415633,-2590.720797,3108.864956,-10572.117872
874.415953,-814.226536,4811.338623,-10418.898773
874.416273,2220.617826,2442.679609,-10495.508323
874.416593,1628.453072,-1184.329507,-10265.679673
874.416914,0.000000,-3034.844362,-10112.460574
874.417234,-592.164754,-4071.132681,-10035.851024
874.417554,-1332.370696,-2812.782580,-9806.022374
874.417874,-148.041188,1554.432478,-10112.460574
874.418194,666.185348,3552.988522,-10495.508323
874.418514,1332.370696,3404.947333,-10572.117872
874.418834,666.185348,1480.411884,-10495.508323
874.419154,814.226536,-962.267725,-10112.460574
874.419474,962.267725,-962.267725,-9882.631924
874.419794,0.000000,-296.082377,-9959.241474
874.420114,-222.061783,370.102971,-10189.070123
874.420434,814.226536,-814.226536,-9729.412825
874.420754,2072.576638,-370.102971,-10189.070123
874.421073,1924.535449,296.082377,-11261.603821
874.421393,2294.638420,1332.370696,-10112.460574
874.421713,1850.514855,2886.803174,-9959.241474
874.422033,1480.411884,2516.700203,-10035.851024
874.422353,2368.659014,222.061783,-9806.022374
874.422673,1110.308913,-2368.659014,-9652.803275
874.422993,962.267725,-3108.864956,-9806.022374
874.423313,0.000000,-1702.473667,-10035.851024
874.423633,-222.061783,370.102971,-9652.803275
874.423953,814.226536,2590.720797,-9422.974625
874.424273,1850.514855,2886.803174,-10342.289223
874.424593,1776.494261,2146.597232,-10342.289223
874.424913,2220.617826,0.000000,-10342.289223
874.425233,2738.761985,-148.041188,-10342.289223
874.425553,1554.432478,-1110.308913,-10265.679673
874.425873,1628.453072,-370.102971,-10572.117872
874.426193,1258.350101,0.000000,-9806.022374
874.426513,370.102971,1998.556043,-10572.117872
874.426833,370.102971,3701.029710,-11184.994271
874.427153,592.164754,3923.091493,-10955.165621
874.427473,222.061783,3552.988522,-11338.213370
874.427793,1036.288319,1998.556043,-10265.679673
874.428113,592.164754,962.267725,-8886.707777
874.428433,148.041188,-1110.308913,-9959.241474
874.428753,0.000000,-1628.453072,-9882.631924
874.429073,-222.061783,-296.082377,-10189.070123
874.429393,-1776.494261,1258.350101,-9193.145976
874.429713,-1628.453072,2442.679609,-9422.974625
874.430033,-2072.576638,1406.391290,-9346.365076
874.430353,1036.288319,444.123565,-9499.584175
874.430673,1110.308913,-222.061783,-10112.460574
874.430993,518.144159,-1036.288319,-9269.755526
874.431313,-1036.288319,-740.205942,-9116.536426
874.431633,962.267725,-1480.411884,-9346.365076
874.431953,1702.473667,-1702.473667,-9193.145976
874.432272,1110.308913,-518.144159,-9652.803275
874.432592,222.061783,444.123565,-9806.022374
874.432912,74.020594,2516.700203,-9959.241474
874.433232,0.000000,4293.194464,-10418.898773
874.433552,-740.205942,2590.720797,-10801.946522
874.433872,-2220.617826,-962.267725,-9806.022374
874.434192,-3108.864956,-3404.947333,-10112.460574
874.434512,-2664.741391,-3701.029710,-9959.241474
874.434832,-1850.514855,-1924.535449,-9806.022374
874.435152,-1480.411884,2368.659014,-10648.727422
874.435472,-1110.308913,3108.864956,-11031.775171
874.435792,1924.535449,1480.411884,-10801.946522
874.436112,1628.453072,0.000000,-11031.775171
874.436432,-518.144159,-1184.329507,-11108.384721
874.436752,444.123565,-222.061783,-12257.527968
874.437072,74.020594,1184.329507,-11261.603821
874.437392,1850.514855,1924.535449,-10572.117872
874.437712,2590.720797,1850.514855,-10418.898773
874.438032,1406.391290,888.247130,-10495.508323
874.438352,1406.391290,666.185348,-11108.384721
874.438672,1702.473667,296.082377,-10418.898773
874.438992,1628.453072,962.267725,-9882.631924
874.439312,518.144159,296.082377,-9652.803275
874.439632,370.102971,-666.185348,-9116.536426
874.439952,-370.102971,-1258.350101,-9729.412825
874.440272,-1036.288319,-1702.473667,-9729.412825
874.440592,962.267725,-962.267725,-9193.145976
874.440912,2368.659014,2368.659014,-9729.412825
874.441232,3997.112087,2368.659014,-9652.803275
874.441552,3330.926739,1036.288319,-9652.803275
874.441872,2590.720797,-296.082377,-9729.412825
874.442192,1036.288319,-962.267725,-10418.898773
874.442512,-296.082377,-1184.329507,-9959.241474
874.442832,-814.226536,-740.205942,-9576.193725
874.443152,1036.288319,0.000000,-9959.241474
874.443471,3478.967927,0.000000,-9959.241474
874.443791,2886.803174,370.102971,-10648.727422
874.444111,1110.308913,1480.411884,-10418.898773
874.444431,0.000000,2294.638420,-10035.851024
874.444751,1184.329507,2220.617826,-10878.556072
874.445071,1998.556043,592.164754,-9959.241474
874.445391,370.102971,-740.205942,-10265.679673
874.445711,0.000000,-814.226536,-10495.508323
874.446031,-740.205942,-814.226536,-10572.117872
874.446351,962.267725,1184.329507,-11108.384721
874.446671,1184.329507,2960.823768,-11491.432470
874.446991,-296.082377,1776.494261,-10648.727422
874.447311,-666.185348,962.267725,-10342.289223
874.447631,-1332.370696,-1480.411884,-9882.631924
874.447951,-222.061783,-2368.659014,-9729.412825
874.448271,592.164754,-888.247130,-9652.803275
874.448591,1332.370696,2146.597232,-10572.117872
874.448911,148.041188,3034.844362,-10189.070123
874.449231,0.000000,2368.659014,-10112.460574
874.449551,370.102971,74.020594,-9882.631924
874.449871,-666.185348,0.000000,-9422.974625
874.450191,-592.164754,148.041188,-9806.022374
874.450511,-814.226536,814.226536,-10112.460574
874.450831,-296.082377,888.247130,-8963.317327
874.451151,444.123565,-222.061783,-9959.241474
874.451471,-1184.329507,-962.267725,-9729.412825
874.451791,-592.164754,-592.164754,-9729.412825
874.452111,1110.308913,370.102971,-9729.412825
874.452431,2738.761985,1628.453072,-9806.022374
874.452751,4293.194464,2146.597232,-10495.508323
874.453071,2516.700203,592.164754,-10418.898773
874.453391,-1406.391290,-1332.370696,-9806.022374
874.453711,-2368.659014,-2516.700203,-10189.070123
874.454031,-2294.638420,-1406.391290,-9729.412825
874.454351,-666.185348,1258.350101,-10342.289223
874.454671,444.123565,1850.514855,-10648.727422
874.454990,296.082377,592.164754,-10342.289223
874.455310,-370.102971,-1258.350101,-11261.603821
874.455630,-2812.782580,-2146.597232,-10265.679673
874.455950,-1554.432478,-592.164754,-10112.460574
874.456270,-222.061783,1406.391290,-10265.679673
874.456590,2220.617826,2072.576638,-9652.803275
874.456910,2442.679609,1110.308913,-10265.679673
874.457230,1924.535449,-148.041188,-10189.070123
874.457550,1036.288319,-518.144159,-10112.460574
874.457870,1110.308913,74.020594,-9806.022374
874.458190,740.205942,1480.411884,-9806.022374
874.458510,1332.370696,370.102971,-9652.803275
874.458830,0.000000,-888.247130,-9499.584175
874.459150,962.267725,-1554.432478,-9652.803275
874.459470,1110.308913,0.000000,-9499.584175
874.459790,666.185348,1036.288319,-9959.241474
874.460110,2146.597232,1628.453072,-9959.241474
874.460430,2220.617826,2220.617826,-9959.241474
874.460750,2146.597232,962.267725,-9729.412825
874.461070,1332.370696,74.020594,-9882.631924
874.461390,370.102971,-962.267725,-9652.803275
874.461710,592.164754,-1036.288319,-9806.022374
874.462030,2368.659014,222.061783,-10035.851024
874.462350,1184.329507,962.267725,-9652.803275
874.462670,888.247130,0.000000,-10189.070123
874.462990,-222.061783,-296.082377,-10265.679673
874.463310,370.102971,1036.288319,-10189.070123
874.463630,888.247130,2146.597232,-10495.508323
874.463950,1628.453072,2072.576638,-10801.946522
874.464270,2590.720797,370.102971,-10955.165621
874.464590,1850.514855,-2146.597232,-10725.336972
874.464910,-518.144159,-814.226536,-10725.336972
874.465230,-1406.391290,962.267725,-10955.165621
874.465550,-1554.432478,3182.885551,-11031.775171
874.465870,148.041188,4663.297435,-11184.994271
874.466189,740.205942,2960.823768,-10801.946522
874.466509,-148.041188,962.267725,-9959.241474
874.466829,-148.041188,-1406.391290,-10112.460574
874.467149,2738.761985,-2294.638420,-10112.460574
874.467469,2516.700203,-1480.411884,-10112.460574
874.467789,-148.041188,0.000000,-9652.803275
874.468109,-2812.782580,1924.535449,-9039.926876
874.468429,-2294.638420,2886.803174,-9959.241474
874.468749,0.000000,2886.803174,-10035.851024
874.469069,370.102971,2368.659014,-10265.679673
874.469389,370.102971,1184.329507,-9116.536426
874.469709,148.041188,-1036.288319,-9346.365076
874.470029,-1110.308913,-2738.761985,-9039.926876
874.470349,-2294.638420,-4145.153275,-9193.145976
874.470669,-740.205942,-2886.803174,-9346.365076
874.470989,-740.205942,-444.123565,-9499.584175
874.471309,0.000000,962.267725,-10265.679673
874.471629,1036.288319,1850.514855,-9652.803275
874.471949,370.102971,2368.659014,-10112.460574
874.472269,148.041188,1924.535449,-9882.631924
874.472589,0.000000,0.000000,-10418.898773
874.472909,740.205942,-2072.576638,-9882.631924
874.473229,1110.308913,-3404.947333,-9806.022374
874.473549,2220.617826,-2812.782580,-9959.241474
874.473869,666.185348,-1110.308913,-10112.460574
874.474189,2368.659014,1332.370696,-10572.117872
874.474509,740.205942,2146.597232,-11261.603821
874.474829,-592.164754,1924.535449,-10801.946522
874.475149,370.102971,2368.659014,-10801.946522
874.475469,1406.391290,370.102971,-10801.946522
874.475789,1924.535449,74.020594,-10418.898773
874.476109,2368.659014,0.000000,-10572.117872
874.476429,1776.494261,148.041188,-10725.336972
874.476749,1480.411884,888.247130,-10495.508323
874.477069,1998.556043,888.247130,-10342.289223
874.477389,1258.350101,962.267725,-10189.070123
874.477708,1258.350101,1184.329507,-9806.022374
874.478028,-814.226536,1332.370696,-9652.803275
874.478348,-962.267725,1184.329507,-10495.508323
874.478668,-592.164754,-740.205942,-9729.412825
874.478988,-1702.473667,-2294.638420,-9422.974625
874.479308,-1110.308913,-2960.823768,-9193.145976
874.479628,-1406.391290,-2664.741391,-9193.145976
874.479948,666.185348,-296.082377,-9729.412825
874.480268,1406.391290,2368.659014,-10495.508323
874.480588,1110.308913,1850.514855,-9882.631924
874.480908,962.267725,1332.370696,-9882.631924
874.481228,222.061783,-1036.288319,-9652.803275
874.481548,222.061783,-2442.679609,-9346.365076
874.481868,0.000000,-1036.288319,-10035.851024
874.482188,370.102971,-222.061783,-10418.898773
874.482508,0.000000,1924.535449,-10648.727422
874.482828,-518.144159,2960.823768,-10955.165621
874.483148,-740.205942,2812.782580,-10495.508323
874.483468,-296.082377,1036.288319,-10418.898773
874.483788,-148.041188,-1036.288319,-10035.851024
874.484108,-1554.432478,-740.205942,-10112.460574
874.484428,-1480.411884,0.000000,-10112.460574
874.484748,2294.638420,1628.453072,-10495.508323
874.485068,3404.947333,1480.411884,-11031.775171
874.485388,3034.844362,1406.391290,-10495.508323
874.485708,1406.391290,1110.308913,-10878.556072
874.486028,-222.061783,0.000000,-10342.289223
874.486348,-592.164754,148.041188,-9806.022374
874.486668,518.144159,370.102971,-10265.679673
874.486988,222.061783,0.000000,-10495.508323
874.487308,2442.679609,222.061783,-10342.289223
874.487628,2442.679609,-962.267725,-10112.460574
874.487948,1554.432478,-740.205942,-8886.707777
874.488268,740.205942,0.000000,-9959.241474
874.488588,222.061783,-222.061783,-9806.022374
874.488907,-518.144159,1036.288319,-9806.022374
874.489227,-888.247130,1184.329507,-9806.022374
874.489547,-518.144159,1702.473667,-9269.755526
874.489867,0.000000,888.247130,-10342.289223
874.490187,-222.061783,-1554.432478,-9576.193725
874.490507,-666.185348,-2812.782580,-9039.926876
874.490827,518.144159,-3034.844362,-10112.460574
874.491147,2368.659014,-2368.659014,-9039.926876
874.491467,2072.576638,-740.205942,-9959.241474
874.491787,444.123565,1036.288319,-10035.851024
874.492107,-1036.288319,1554.432478,-9499.584175
874.492427,-666.185348,1332.370696,-9806.022374
874.492747,592.164754,888.247130,-10112.460574
874.493067,1702.473667,-1258.350101,-10035.851024
874.493387,1406.391290,-1406.391290,-10648.727422
874.493707,222.061783,-148.041188,-10112.460574
874.494027,-962.267725,518.144159,-10189.070123
874.494347,444.123565,1554.432478,-10878.556072
874.494667,888.247130,2590.720797,-10878.556072
874.494987,74.020594,1110.308913,-10725.336972
874.495307,296.082377,888.247130,-10955.165621
874.495627,1036.288319,1110.308913,-10878.556072
874.495947,518.144159,666.185348,-10189.070123
874.496267,0.000000,666.185348,-10801.946522
874.496587,1702.473667,0.000000,-10572.117872
874.496907,1850.514855,0.000000,-10418.898773
874.497227,1776.494261,1850.514855,-10495.508323
874.497547,-888.247130,1258.350101,-10112.460574
874.497867,-1332.370696,888.247130,-9422.974625
874.498187,-1110.308913,-296.082377,-9499.584175
874.498507,1110.308913,-1776.494261,-9729.412825
874.498827,2146.597232,-2738.761985,-9499.584175
874.499147,3627.009116,-1110.308913,-10035.851024
874.499467,1480.411884,74.020594,-9806.022374
874.499787,962.267725,1850.514855,-9806.022374
874.500106,-740.205942,2960.823768,-9652.803275
874.500426,-1110.308913,2220.617826,-9499.584175
874.500746,296.082377,370.102971,-10648.727422
874.501066,0.000000,-2220.617826,-9806.022374
874.501386,1480.411884,-1924.535449,-10112.460574
874.501706,444.123565,-1332.370696,-9806.022374
874.502026,0.000000,-962.267725,-9729.412825
874.502346,1258.350101,74.020594,-10648.727422
874.502666,2220.617826,444.123565,-10112.460574
874.502986,962.267725,2812.782580,-10725.336972
874.503306,-888.247130,3404.947333,-11031.775171
874.503626,666.185348,1998.556043,-10342.289223
874.503946,2368.659014,370.102971,-10648.727422
874.504266,2220.617826,-1258.350101,-10495.508323
874.504586,-222.061783,-1776.494261,-9882.631924
874.504906,814.226536,-740.205942,-10572.117872
874.505226,2146.597232,222.061783,-10725.336972
874.505546,2146.597232,1110.308913,-10495.508323
874.505866,-666.185348,962.267725,-10495.508323
874.506186,-666.185348,592.164754,-9576.193725
874.506506,-296.082377,888.247130,-10418.898773
874.506826,74.020594,740.205942,-10572.117872
874.507146,74.020594,1258.350101,-10878.556072
874.507466,0.000000,1776.494261,-10265.679673
874.507786,444.123565,1702.473667,-9806.022374
874.508106,148.041188,814.226536,-9729.412825
874.508426,666.185348,0.000000,-9959.241474
874.508746,666.185348,-1776.494261,-9652.803275
874.509066,740.205942,-1406.391290,-9576.193725
874.509386,444.123565,-1776.494261,-9193.145976
874.509706,1258.350101,-518.144159,-9729.412825
874.510026,1184.329507,0.000000,-9806.022374
874.510346,666.185348,444.123565,-10035.851024
874.510666,148.041188,666.185348,-9882.631924
874.510986,-962.267725,740.205942,-9882.631924
874.511306,-2664.741391,592.164754,-9729.412825
874.511625,-2072.576638,0.000000,-9652.803275
874.511945,-296.082377,-814.226536,-10265.679673
874.512265,666.185348,-1258.350101,-10035.851024
874.512585,-222.061783,-1702.473667,-10418.898773
874.512905,296.082377,-370.102971,-10189.070123
874.513225,518.144159,2368.659014,-10648.727422
874.513545,222.061783,2294.638420,-10189.070123
874.513865,1406.391290,2442.679609,-11184.994271
874.514185,2442.679609,1036.288319,-10725.336972
874.514505,1628.453072,370.102971,-10801.946522
874.514825,666.185348,888.247130,-11031.775171
874.515145,740.205942,1702.473667,-10418.898773
874.515465,-1184.329507,2220.617826,-10495.508323
874.515785,740.205942,2368.659014,-10112.460574
874.516105,1998.556043,1184.329507,-10265.679673
874.516425,888.247130,518.144159,-10955.165621
874.516745,-296.082377,-962.267725,-9652.803275
874.517065,-222.061783,-222.061783,-9346.365076
874.517385,74.020594,74.020594,-9806.022374
874.517705,1258.350101,592.164754,-9806.022374
874.518025,2146.597232,222.061783,-9806.022374
874.518345,2072.576638,-296.082377,-9652.803275
874.518665,1850.514855,-814.226536,-9652.803275
874.518985,2442.679609,-74.020594,-9652.803275
874.519305,1628.453072,666.185348,-10035.851024
874.519625,1406.391290,666.185348,-10035.851024
874.519945,518.144159,666.185348,-10035.851024
874.520265,444.123565,888.247130,-10342.289223
874.520585,-370.102971,-370.102971,-9959.241474
874.520905,222.061783,-296.082377,-10265.679673
874.521225,814.226536,-296.082377,-9806.022374
874.521544,-740.205942,-222.061783,-9959.241474
874.521864,370.102971,0.000000,-10035.851024
874.522184,1036.288319,-222.061783,-10189.070123
874.522504,1110.308913,518.144159,-10342.289223
874.522824,740.205942,1332.370696,-10418.898773
874.523144,1332.370696,2664.741391,-10648.727422
874.523464,1184.329507,1554.432478,-11031.775171
874.523784,1184.329507,666.185348,-10572.117872
874.524104,1924.535449,1480.411884,-10725.336972
874.524424,2072.576638,0.000000,-10265.679673
874.524744,370.102971,-296.082377,-10112.460574
874.525064,-592.164754,0.000000,-11261.603821
874.525384,-148.041188,0.000000,-10572.117872
874.525704,148.041188,-592.164754,-9959.241474
874.526024,518.144159,-740.205942,-10265.679673
874.526344,814.226536,-1258.350101,-10189.070123
874.526664,148.041188,592.164754,-10265.679673
874.526984,-592.164754,2886.803174,-10418.898773
874.527304,74.020594,2294.638420,-10265.679673
874.527624,-888.247130,-740.205942,-10648.727422
874.527944,0.000000,-2294.638420,-9882.631924
874.528264,444.123565,-2368.659014,-9729.412825
874.528584,-296.082377,-444.123565,-9882.631924
874.528904,-962.267725,1850.514855,-10035.851024
874.529224,-1776.494261,2368.659014,-9959.241474
874.529544,-740.205942,666.185348,-9806.022374
874.529863,-444.123565,-1702.473667,-9652.803275
874.530183,-74.020594,-2516.700203,-9576.193725
874.530503,0.000000,-1850.514855,-9499.584175
874.530823,-296.082377,-222.061783,-9959.241474
874.531143,444.123565,740.205942,-10265.679673
874.531463,148.041188,518.144159,-9882.631924
874.531783,-222.061783,-518.144159,-10189.070123
874.532103,-296.082377,-370.102971,-9806.022374
874.532423,222.061783,-740.205942,-10265.679673
874.532743,370.102971,444.123565,-10265.679673
874.533063,-222.061783,1332.370696,-10189.070123
874.533383,-1036.288319,1702.473667,-10189.070123
874.533703,-1184.329507,888.247130,-10495.508323
874.534023,-148.041188,74.020594,-10342.289223
874.534343,1480.411884,-222.061783,-10112.460574
874.534663,2368.659014,444.123565,-10342.289223
874.534983,2072.576638,1332.370696,-10112.460574
874.535303,296.082377,1036.288319,-9882.631924
874.535623,-814.226536,740.205942,-9806.022374
874.535943,222.061783,370.102971,-9959.241474
874.536263,740.205942,518.144159,-8886.707777
874.536583,1406.391290,74.020594,-9959.241474
874.536903,3108.864956,222.061783,-9729.412825
874.537223,3404.947333,-370.102971,-9806.022374
874.537543,1776.494261,-666.185348,-10189.070123
874.537862,1258.350101,148.041188,-9193.145976
874.538182,2368.659014,1554.432478,-9806.022374
874.538502,2960.823768,3108.864956,-10725.336972
874.538822,3478.967927,2294.638420,-10342.289223
874.539142,2220.617826,0.000000,-9882.631924
874.539462,222.061783,-2664.741391,-9882.631924
874.539782,0.000000,-2516.700203,-9269.755526
874.540102,592.164754,-1332.370696,-9882.631924
874.540422,1776.494261,666.185348,-10265.679673
874.540742,1776.494261,2738.761985,-10189.070123
874.541062,296.082377,3256.906145,-10572.117872
874.541382,0.000000,2664.741391,-10572.117872
874.541702,962.267725,1554.432478,-10801.946522
874.542022,1998.556043,0.000000,-10112.460574
874.542342,2294.638420,-962.267725,-10112.460574
874.542662,1702.473667,-444.123565,-9806.022374
874.542982,1110.308913,-1036.288319,-10112.460574
874.543302,74.020594,-296.082377,-10189.070123
874.543622,222.061783,518.144159,-10572.117872
874.543942,0.000000,2294.638420,-10495.508323
874.544262,666.185348,2072.576638,-10112.460574
874.544582,0.000000,1110.308913,-10342.289223
874.544902,-222.061783,-518.144159,-10342.289223
874.545222,-888.247130,-1258.350101,-9729.412825
874.545542,-370.102971,-962.267725,-9806.022374
874.545862,-888.247130,1036.288319,-9806.022374
874.546181,-1480.411884,2072.576638,-9652.803275
874.546501,-1628.453072,1554.432478,-9959.241474
874.546821,-1332.370696,1184.329507,-9806.022374
874.547141,-814.226536,-370.102971,-9882.631924
874.547461,-1110.308913,-2146.597232,-9576.193725
874.547781,-962.267725,-1776.494261,-7814.174080
874.548101,-296.082377,-1332.370696,-9806.022374
874.548421,296.082377,-1924.535449,-9806.022374
874.548741,0.000000,-962.267725,-10035.851024
874.549061,-2146.597232,444.123565,-10112.460574
874.549381,-2368.659014,1258.350101,-9882.631924
874.549701,-2220.617826,2812.782580,-10648.727422
874.550021,-222.061783,2516.700203,-10495.508323
874.550341,814.226536,370.102971,-10572.117872
874.550661,962.267725,-370.102971,-10189.070123
874.550981,-740.205942,-2072.576638,-10418.898773
874.551301,-444.123565,-1184.329507,-9806.022374
874.551621,1110.308913,1036.288319,-10035.851024
874.551941,1776.494261,1480.411884,-10725.336972
874.552261,2072.576638,1554.432478,-10572.117872
874.552581,814.226536,888.247130,-10801.946522
874.552901,-222.061783,1776.494261,-10342.289223
874.553221,222.061783,1998.556043,-9806.022374
874.553541,1110.308913,3108.864956,-10035.851024
874.553861,2738.761985,1258.350101,-10495.508323
874.554181,2886.803174,-666.185348,-10265.679673
874.554500,2738.761985,-2072.576638,-9959.241474
874.554820,1702.473667,-1258.350101,-9959.241474
874.555140,592.164754,296.082377,-9959.241474
874.555460,888.247130,1258.350101,-9882.631924
874.555780,1258.350101,2072.576638,-9882.631924
874.556100,2368.659014,74.020594,-9422.974625
874.556420,2960.823768,-1850.514855,-9806.022374
874.556740,3330.926739,-2072.576638,-10189.070123
874.557060,2960.823768,-1850.514855,-9652.803275
874.557380,2146.597232,148.041188,-9806.022374
874.557700,222.061783,2812.782580,-9882.631924
874.558020,444.123565,1998.556043,-10112.460574
874.558340,74.020594,2442.679609,-10265.679673
874.558660,296.082377,1406.391290,-10878.556072
874.558980,1036.288319,-370.102971,-9729.412825
874.559300,1702.473667,-370.102971,-10035.851024
874.559620,2368.659014,-814.226536,-10189.070123
874.559940,1924.535449,-2220.617826,-9806.022374
874.560260,444.123565,-740.205942,-10495.508323
874.560580,-1258.350101,1332.370696,-11721.261119
874.560900,-2738.761985,1776.494261,-9882.631924
874.561220,-888.247130,2886.803174,-9882.631924
874.561540,444.123565,2294.638420,-10572.117872
874.561860,2220.617826,74.020594,-10342.289223
874.562180,1776.494261,-962.267725,-10878.556072
874.562500,-592.164754,-1480.411884,-10189.070123
874.562819,-1924.535449,-1110.308913,-9959.241474
874.563139,-1406.391290,1406.391290,-10418.898773
874.563459,-666.185348,2368.659014,-10648.727422
874.563779,-1776.494261,592.164754,-9806.022374
874.564099,-740.205942,74.020594,-10189.070123
874.564419,-518.144159,-888.247130,-10495.508323
874.564739,962.267725,-1036.288319,-10265.679673
874.565059,2442.679609,1184.329507,-10342.289223
874.565379,1924.535449,1850.514855,-10265.679673
874.565699,592.164754,1924.535449,-10418.898773
874.566019,-296.082377,592.164754,-10265.679673
874.566339,-888.247130,-592.164754,-10495.508323
874.566659,-1554.432478,-370.102971,-8963.317327
874.566979,-814.226536,-222.061783,-9806.022374
874.567299,0.000000,444.123565,-9882.631924
874.567619,1406.391290,222.061783,-10725.336972
874.567939,666.185348,-222.061783,-9959.241474
874.568259,-1036.288319,-444.123565,-9806.022374
874.568579,-518.144159,0.000000,-9806.022374
874.568899,-962.267725,814.226536,-9959.241474
874.569219,-222.061783,148.041188,-9959.241474
874.569539,814.226536,-222.061783,-9806.022374
874.569859,1776.494261,74.020594,-10265.679673
874.570179,1924.535449,-296.082377,-10342.289223
874.570499,2442.679609,-814.226536,-10265.679673
874.570818,1258.350101,592.164754,-10265.679673
874.571138,1110.308913,1184.329507,-10801.946522
874.571458,222.061783,296.082377,-9882.631924
874.571778,-814.226536,-148.041188,-10265.679673
874.572098,-1702.473667,-148.041188,-10725.336972
874.572418,-814.226536,666.185348,-10035.851024
874.572738,1850.514855,1998.556043,-10648.727422
874.573058,4145.153275,2220.617826,-10495.508323
874.573378,3775.050304,1776.494261,-10495.508323
874.573698,1850.514855,1036.288319,-10495.508323
874.574018,-222.061783,-666.185348,-9882.631924
874.574338,-518.144159,148.041188,-9729.412825
874.574658,222.061783,-666.185348,-9806.022374
874.574978,962.267725,-888.247130,-9806.022374
874.575298,888.247130,0.000000,-9882.631924
874.575618,666.185348,814.226536,-9959.241474
874.575938,-148.041188,1554.432478,-9959.241474
874.576258,1036.288319,-740.205942,-9652.803275
874.576578,1776.494261,-148.041188,-9806.022374
874.576898,1776.494261,-740.205942,-9806.022374
874.577218,1628.453072,-2146.597232,-9422.974625
874.577538,-1258.350101,-1776.494261,-10035.851024
874.577858,-814.226536,-666.185348,-9346.365076
874.578178,1036.288319,962.267725,-10495.508323
874.578498,1406.391290,1850.514855,-10265.679673
874.578818,148.041188,814.226536,-10035.851024
874.579137,740.205942,-518.144159,-9576.193725
874.579457,1924.535449,-888.247130,-10648.727422
874.579777,1184.329507,370.102971,-10342.289223
874.580097,0.000000,1850.514855,-10342.289223
874.580417,888.247130,1258.350101,-10495.508323
874.580737,2664.741391,-222.061783,-10112.460574
874.581057,3034.844362,-1776.494261,-10265.679673
874.581377,518.144159,-740.205942,-10801.946522
874.581697,-740.205942,740.205942,-10801.946522
874.582017,-370.102971,2072.576638,-10112.460574
874.582337,-444.123565,2442.679609,-10801.946522
874.582657,444.123565,1184.329507,-10418.898773
874.582977,148.041188,-814.226536,-10189.070123
874.583297,962.267725,-1332.370696,-10495.508323
874.583617,518.144159,296.082377,-10801.946522
874.583937,0.000000,592.164754,-10342.289223
874.584257,0.000000,370.102971,-10342.289223
874.584577,0.000000,1184.329507,-9652.803275
874.584897,148.041188,148.041188,-10112.460574
874.585217,-370.102971,0.000000,-9806.022374
874.585537,-740.205942,-740.205942,-9882.631924
874.585857,-1184.329507,-518.144159,-9346.365076
874.586177,-518.144159,-814.226536,-9116.536426
874.586497,-518.144159,-1998.556043,-9499.584175
874.586817,-592.164754,-2294.638420,-9806.022374
874.587137,-1924.535449,-444.123565,-9652.803275
874.587456,-2886.803174,1480.411884,-9959.241474
874.587776,-296.082377,2146.597232,-9729.412825
874.588096,2072.576638,2220.617826,-10265.679673
874.588416,740.205942,740.205942,-10112.460574
874.588736,370.102971,-666.185348,-10189.070123
874.589056,-296.082377,518.144159,-9882.631924
874.589376,444.123565,518.144159,-10418.898773
874.589696,962.267725,592.164754,-9806.022374
874.590016,-222.061783,1036.288319,-10342.289223
874.590336,444.123565,-370.102971,-10189.070123
874.590656,0.000000,370.102971,-9499.584175
874.590976,740.205942,1480.411884,-11184.994271
874.591296,1628.453072,3330.926739,-10189.070123
874.591616,1554.432478,3701.029710,-10418.898773
874.591936,1554.432478,2590.720797,-11568.042020
874.592256,1480.411884,-1110.308913,-9806.022374
874.592576,814.226536,-2442.679609,-9729.412825
874.592896,1998.556043,-740.205942,-9882.631924
874.593216,2590.720797,1924.535449,-10418.898773
874.593536,2442.679609,3701.029710,-10112.460574
874.593856,1332.370696,2738.761985,-10725.336972
874.594176,2812.782580,1036.288319,-9422.974625
874.594496,1184.329507,-592.164754,-9806.022374
874.594816,1776.494261,-1110.308913,-10112.460574
874.595136,1184.329507,222.061783,-10035.851024
874.595456,1850.514855,518.144159,-9959.241474
874.595775,2294.638420,1184.329507,-9729.412825
874.596095,1776.494261,370.102971,-9806.022374
874.596415,1998.556043,444.123565,-9959.241474
874.596735,2146.597232,1850.514855,-10418.898773
874.597055,2072.576638,2072.576638,-10265.679673
874.597375,2294.638420,1776.494261,-10035.851024
874.597695,1110.308913,1554.432478,-9806.022374
874.598015,-1332.370696,-296.082377,-9499.584175
874.598335,-1702.473667,-2590.720797,-9729.412825
874.598655,-1184.329507,-962.267725,-10189.070123
874.598975,74.020594,-888.247130,-9959.241474
874.599295,1998.556043,1776.494261,-10265.679673
874.599615,1554.432478,2368.659014,-10648.727422
874.599935,814.226536,444.123565,-10112.460574
874.600255,370.102971,0.000000,-9882.631924
874.600575,-2442.679609,-370.102971,-10495.508323
874.600895,-1406.391290,0.000000,-10189.070123
874.601215,888.247130,1184.329507,-10342.289223
874.601535,1850.514855,1480.411884,-10648.727422
874.601855,666.185348,592.164754,-10112.460574
874.602175,-444.123565,-1110.308913,-10035.851024
874.602495,-1480.411884,-1332.370696,-10495.508323
874.602815,-2146.597232,-444.123565,-9959.241474
874.603135,-1702.473667,1554.432478,-10112.460574
874.603455,-2886.803174,1554.432478,-10265.679673
874.603774,-1924.535449,-1258.350101,-10035.851024
874.604094,74.020594,-3108.864956,-9806.022374
874.604414,0.000000,-2220.617826,-10418.898773
874.604734,-1184.329507,-222.061783,-9806.022374
874.605054,0.000000,1480.411884,-9959.241474
874.605374,1258.350101,1702.473667,-10495.508323
874.605694,888.247130,0.000000,-9806.022374
874.606014,2072.576638,-148.041188,-10418.898773
874.606334,296.082377,-888.247130,-10572.117872
874.606654,-740.205942,-444.123565,-10342.289223
874.606974,-1554.432478,148.041188,-9882.631924
874.607294,-518.144159,1036.288319,-10265.679673
874.607614,-148.041188,444.123565,-9576.193725
874.607934,-666.185348,-370.102971,-9729.412825
874.608254,74.020594,-666.185348,-10725.336972
874.608574,1184.329507,-296.082377,-9729.412825
874.608894,2368.659014,740.205942,-10112.460574
874.609214,1406.391290,444.123565,-10572.117872
874.609534,1184.329507,-1036.288319,-9346.365076
874.609854,1036.288319,-2072.576638,-9882.631924
874.610174,2294.638420,0.000000,-10189.070123
874.610494,2072.576638,1110.308913,-10801.946522
874.610814,1628.453072,2664.741391,-10572.117872
874.611134,962.267725,2664.741391,-10418.898773
874.611454,888.247130,296.082377,-9882.631924
874.611774,-222.061783,-888.247130,-9959.241474
874.612093,-1480.411884,-1406.391290,-10342.289223
874.612413,-370.102971,-222.061783,-9652.803275
874.612733,1184.329507,2072.576638,-10112.460574
874.613053,3108.864956,3256.906145,-10342.289223
874.613373,3478.967927,1628.453072,-9959.241474
874.613693,2960.823768,-148.041188,-10189.070123
874.614013,1480.411884,-1036.288319,-9882.631924
874.614333,-592.164754,-296.082377,-9576.193725
874.614653,-592.164754,666.185348,-10189.070123
874.614973,0.000000,2146.597232,-10189.070123
874.615293,1036.288319,1110.308913,-10112.460574
874.615613,2220.617826,-296.082377,-10189.070123
874.615933,1998.556043,-296.082377,-10112.460574
874.616253,888.247130,-666.185348,-9729.412825
874.616573,518.144159,962.267725,-9882.631924
874.616893,962.267725,1110.308913,-9959.241474
874.617213,222.061783,74.020594,-10035.851024
874.617533,74.020594,444.123565,-8963.317327
874.617853,74.020594,-370.102971,-10265.679673
874.618173,444.123565,1406.391290,-10648.727422
874.618493,-592.164754,1850.514855,-9806.022374
874.618813,-592.164754,1184.329507,-10418.898773
874.619133,518.144159,74.020594,-9652.803275
874.619453,444.123565,-1480.411884,-10572.117872
874.619773,444.123565,-1776.494261,-10495.508323
874.620093,-592.164754,-370.102971,-9959.241474
874.620413,-814.226536,2738.761985,-10725.336972
874.620733,-592.164754,2886.803174,-10112.460574
874.621052,-1184.329507,2516.700203,-10112.460574
874.621372,-666.185348,1332.370696,-10189.070123
874.621692,-370.102971,-296.082377,-10265.679673
874.622012,0.000000,-1406.391290,-9882.631924
874.622332,666.185348,-888.247130,-9959.241474
874.622652,1850.514855,1036.288319,-10112.460574
874.622972,1184.329507,740.205942,-9269.755526
874.623292,296.082377,2368.659014,-11797.870669
874.623612,0.000000,1554.432478,-9959.241474
874.623932,-148.041188,-74.020594,-9806.022374
874.624252,592.164754,-222.061783,-9806.022374
874.624572,1406.391290,-1554.432478,-9806.022374
874.624892,296.082377,-2072.576638,-9806.022374
874.625212,0.000000,-2368.659014,-9576.193725
874.625532,74.020594,-666.185348,-9882.631924
874.625852,-222.061783,2442.679609,-10572.117872
874.626172,-1110.308913,2960.823768,-10265.679673
874.626492,0.000000,2664.741391,-10265.679673
874.626812,296.082377,740.205942,-10342.289223
874.627132,444.123565,-2146.597232,-10189.070123
874.627452,814.226536,-2072.576638,-10725.336972
874.627772,592.164754,-1184.329507,-9346.365076
874.628092,740.205942,0.000000,-10418.898773
874.628412,814.226536,1110.308913,-10955.165621
874.628732,1406.391290,1554.432478,-10495.508323
874.629052,1924.535449,1406.391290,-9116.536426
874.629372,2516.700203,2368.659014,-11338.213370
874.629692,2590.720797,2368.659014,-10342.289223
874.630012,2072.576638,1554.432478,-10572.117872
874.630332,962.267725,444.123565,-10342.289223
874.630652,1036.288319,-1184.329507,-9269.755526
874.630972,592.164754,-1554.432478,-10342.289223
874.631292,-1332.370696,-740.205942,-10342.289223
874.631612,-518.144159,814.226536,-9652.803275
874.631932,74.020594,3034.844362,-10035.851024
874.632252,1776.494261,3108.864956,-10495.508323
874.632572,2812.782580,592.164754,-10189.070123
874.632892,1628.453072,-888.247130,-9729.412825
874.633212,592.164754,-1406.391290,-9959.241474
874.633532,444.123565,-592.164754,-9499.584175
874.633852,1258.350101,666.185348,-9959.241474
874.634172,962.267725,1258.350101,-9882.631924
874.634492,296.082377,592.164754,-9806.022374
874.634812,74.020594,-888.247130,-10112.460574
874.635132,-222.061783,0.000000,-10648.727422
874.635452,-1036.288319,74.020594,-9806.022374
874.635772,-1184.329507,222.061783,-10342.289223
874.636092,0.000000,888.247130,-10035.851024
874.636412,74.020594,-1258.350101,-9729.412825
874.636732,1332.370696,-1184.329507,-9959.241474
874.637052,814.226536,-1036.288319,-10112.460574
874.637372,1110.308913,-518.144159,-9729.412825
874.637692,518.144159,814.226536,-9422.974625
874.638012,-518.144159,1406.391290,-10342.289223
874.638332,-370.102971,888.247130,-10112.460574
874.638652,-1036.288319,962.267725,-10648.727422
874.638972,-962.267725,-740.205942,-9729.412825
874.639292,0.000000,0.000000,-10495.508323
874.639612,-222.061783,0.000000,-10112.460574
874.639932,592.164754,0.000000,-10495.508323
874.640252,1406.391290,592.164754,-10495.508323
874.640572,1110.308913,-962.267725,-9499.584175
874.640892,1110.308913,-1110.308913,-10418.898773
874.641212,-148.041188,0.000000,-9576.193725
874.641532,0.000000,1406.391290,-10495.508323
874.641852,740.205942,1184.329507,-10265.679673
874.642172,2220.617826,-148.041188,-10418.898773
874.642492,592.164754,-962.267725,-10418.898773
874.642812,-1184.329507,-1258.350101,-10265.679673
874.643132,-1110.308913,-888.247130,-9346.365076
874.643452,-962.267725,1258.350101,-10801.946522
874.643772,-296.082377,148.041188,-10112.460574
874.644092,1110.308913,-370.102971,-10035.851024
874.644412,1554.432478,-1036.288319,-9806.022374
874.644732,1924.535449,-814.226536,-10112.460574
874.645052,1998.556043,-444.123565,-9499.584175
874.645372,814.226536,1184.329507,-10189.070123
874.645692,-518.144159,1184.329507,-10035.851024
874.646012,888.247130,740.205942,-9882.631924
874.646332,370.102971,-222.061783,-10112.460574
874.646652,74.020594,-1036.288319,-10342.289223
874.646972,-1184.329507,-740.205942,-9422.974625
874.647292,-148.041188,1036.288319,-10801.946522
874.647612,888.247130,2442.679609,-10035.851024
874.647932,296.082377,1924.535449,-10955.165621
874.648252,-1036.288319,0.000000,-10189.070123
874.648572,-888.247130,-1184.329507,-9806.022374
874.648892,296.082377,-74.020594,-9959.241474
874.649212,1110.308913,1628.453072,-10495.508323
874.649532,2368.659014,2738.761985,-10189.070123
874.649852,2368.659014,2220.617826,-10035.851024
874.650172,2516.700203,1110.308913,-10648.727422
874.650492,1554.432478,518.144159,-10342.289223
874.650812,1332.370696,1480.411884,-10418.898773
874.651132,370.102971,3108.864956,-10418.898773
874.651452,518.144159,4071.132681,-10418.898773
874.651772,592.164754,2146.597232,-11031.775171
874.652092,1554.432478,-296.082377,-9806.022374
874.652412,222.061783,-1924.535449,-9193.145976
874.652732,148.041188,-1998.556043,-9269.755526
874.653052,1480.411884,-518.144159,-9422.974625
874.653372,2738.761985,2072.576638,-11108.384721
874.653692,2220.617826,1628.453072,-10112.460574
874.654012,444.123565,1184.329507,-9652.803275
874.654332,-148.041188,814.226536,-9882.631924
874.654652,-666.185348,444.123565,-9652.803275
874.654972,518.144159,1406.391290,-10035.851024
874.655292,2072.576638,962.267725,-10112.460574
874.655612,2368.659014,-222.061783,-9882.631924
874.655932,2220.617826,-1036.288319,-10112.460574
874.656252,1406.391290,-1110.308913,-10112.460574
874.656572,-1184.329507,1184.329507,-9882.631924
874.656892,-1036.288319,1850.514855,-11261.603821
874.657212,-222.061783,1998.556043,-10495.508323
874.657532,-296.082377,814.226536,-10418.898773
874.657852,0.000000,-666.185348,-10878.556072
874.658172,74.020594,-2812.782580,-10342.289223
874.658492,1406.391290,0.000000,-10801.946522
874.658812,740.205942,1702.473667,-11031.775171
874.659132,444.123565,2738.761985,-10495.508323
874.659452,-666.185348,1554.432478,-10801.946522
874.659772,-3034.844362,296.082377,-10648.727422
874.660092,-1702.473667,-1554.432478,-10418.898773
874.660412,-592.164754,-2072.576638,-9422.974625
874.660732,-444.123565,-1924.535449,-10035.851024
874.661052,814.226536,-962.267725,-9729.412825
874.661372,1480.411884,592.164754,-10265.679673
874.661692,1406.391290,0.000000,-10112.460574
874.662012,1258.350101,296.082377,-10035.851024
874.662332,0.000000,814.226536,-9422.974625
874.662652,-2146.597232,74.020594,-9652.803275
874.662972,-2368.659014,-370.102971,-9116.536426
874.663292,-2368.659014,-1850.514855,-9422.974625
874.663612,-2368.659014,-3182.885551,-9576.193725
874.663932,-740.205942,-2664.741391,-9499.584175
874.664252,592.164754,-1554.432478,-9499.584175
874.664572,1184.329507,0.000000,-9959.241474
874.664892,1628.453072,0.000000,-9806.022374
874.665212,1332.370696,592.164754,-9499.584175
874.665532,2442.679609,222.061783,-10112.460574
874.665852,2812.782580,0.000000,-10189.070123
874.666172,1554.432478,74.020594,-10112.460574
874.666492,740.205942,-296.082377,-10495.508323
874.666812,1406.391290,-814.226536,-10572.117872
874.667132,1850.514855,1110.308913,-10648.727422
874.667452,1258.350101,1184.329507,-11184.994271
874.667772,-592.164754,74.020594,-10495.508323
874.668092,-1776.494261,1332.370696,-10878.556072
874.668412,-1776.494261,0.000000,-10418.898773
874.668732,2368.659014,592.164754,-10648.727422
874.669052,3034.844362,296.082377,-10495.508323
874.669372,1998.556043,-370.102971,-11108.384721
874.669692,3552.988522,-296.082377,-10112.460574
874.670012,2590.720797,814.226536,-9959.241474
874.670332,1406.391290,3775.050304,-10572.117872
874.670652,592.164754,4367.215058,-10112.460574
874.670972,222.061783,2738.761985,-10342.289223
874.671292,666.185348,814.226536,-10112.460574
874.671612,1036.288319,-2590.720797,-9346.365076
874.671932,2368.659014,-2368.659014,-9652.803275
874.672252,2294.638420,-3330.926739,-8656.879127
874.672572,2072.576638,148.041188,-9652.803275
874.672892,1628.453072,1998.556043,-9882.631924
874.673212,518.144159,2368.659014,-9193.145976
874.673532,-962.267725,1332.370696,-8810.098227
874.673852,-962.267725,1702.473667,-10572.117872
874.674172,0.000000,1924.535449,-9499.584175
874.674492,962.267725,0.000000,-9806.022374
874.674812,1480.411884,0.000000,-9269.755526
874.675132,1628.453072,148.041188,-10035.851024
874.675452,2146.597232,-592.164754,-9882.631924
874.675772,518.144159,-222.061783,-9806.022374
874.676092,-740.205942,370.102971,-10112.460574
874.676412,74.020594,962.267725,-10035.851024
874.676732,888.247130,888.247130,-10035.851024
874.677052,-222.061783,1480.411884,-10265.679673
874.677372,-1924.535449,1776.494261,-10342.289223
874.677692,-1406.391290,2368.659014,-10189.070123
874.678012,740.205942,1776.494261,-10801.946522
874.678332,2146.597232,1036.288319,-10801.946522
874.678652,1850.514855,-370.102971,-10572.117872
874.678972,-814.226536,444.123565,-10801.946522
874.679292,-2146.597232,-296.082377,-9806.022374
874.679612,-962.267725,888.247130,-10342.289223
874.679932,-1110.308913,1702.473667,-10112.460574
874.680252,370.102971,2220.617826,-10648.727422
874.680572,1036.288319,444.123565,-10035.851024
874.680892,1110.308913,-1110.308913,-10572.117872
874.681212,814.226536,-1184.329507,-9422.974625
874.681532,-296.082377,-962.267725,-9576.193725
874.681852,-1406.391290,518.144159,-10801.946522
874.682172,148.041188,1332.370696,-9959.241474
874.682492,0.000000,370.102971,-9729.412825
874.682812,-370.102971,0.000000,-9576.193725
874.683132,-444.123565,-1406.391290,-9576.193725
874.683452,-370.102971,-592.164754,-10189.070123
874.683772,444.123565,-1110.308913,-9806.022374
874.684092,222.061783,-1110.308913,-9422.974625
874.684412,-888.247130,-1110.308913,-9959.241474
874.684732,-1036.288319,-1332.370696,-9652.803275
874.685052,1184.329507,-1110.308913,-10189.070123
874.685372,888.247130,148.041188,-9806.022374
874.685692,962.267725,1702.473667,-10648.727422
874.686012,1480.411884,666.185348,-10342.289223
874.686332,2368.659014,1406.391290,-10725.336972
874.686652,1184.329507,592.164754,-10801.946522
874.686972,1184.329507,-222.061783,-10572.117872
874.687292,-370.102971,296.082377,-10112.460574
874.687612,-444.123565,-518.144159,-10725.336972
874.687932,1480.411884,-518.144159,-9959.241474
874.688252,1110.308913,-370.102971,-10495.508323
874.688572,1776.494261,-148.041188,-10725.336972
874.688892,1850.514855,74.020594,-10112.460574
874.689212,2294.638420,1036.288319,-10572.117872
874.689532,2886.803174,1998.556043,-10878.556072
874.689852,2812.782580,814.226536,-9806.022374
874.690172,1924.535449,-370.102971,-10495.508323
874.690492,148.041188,-888.247130,-10495.508323
874.690812,-370.102971,-1036.288319,-9806.022374
874.691132,-1110.308913,-370.102971,-9576.193725
874.691452,148.041188,-592.164754,-9882.631924
874.691772,0.000000,0.000000,-9806.022374
874.692092,-2220.617826,1332.370696,-9806.022374
874.692412,-1776.494261,1628.453072,-10112.460574
874.692732,1702.473667,1258.350101,-9193.145976
874.693052,2294.638420,740.205942,-9806.022374
874.693372,1184.329507,-222.061783,-9499.584175
874.693692,3034.844362,-888.247130,-9806.022374
874.694012,2886.803174,-2220.617826,-9269.755526
874.694332,2960.823768,222.061783,-10035.851024
874.694652,814.226536,74.020594,-9652.803275
874.694972,-1110.308913,1184.329507,-9806.022374
874.695292,-1702.473667,1406.391290,-10342.289223
874.695612,0.000000,1998.556043,-10418.898773
874.695932,-814.226536,740.205942,-10801.946522
874.696252,-1850.514855,0.000000,-10112.460574
874.696572,-814.226536,0.000000,-10112.460574
874.696892,-370.102971,-592.164754,-10495.508323
874.697212,-74.020594,-1036.288319,-10265.679673
874.697532,-148.041188,-962.267725,-9346.365076
874.697852,-592.164754,74.020594,-10495.508323
874.698172,-518.144159,2738.761985,-11338.213370
874.698492,1036.288319,3034.844362,-10189.070123
874.698812,1480.411884,4219.173869,-10955.165621
874.699132,1406.391290,3775.050304,-11491.432470
874.699452,740.205942,370.102971,-10342.289223
874.699772,814.226536,-962.267725,-10265.679673
874.700092,-814.226536,-2516.700203,-9806.022374
874.700412,-1628.453072,-1850.514855,-9806.022374
874.700732,-814.226536,592.164754,-9882.631924
874.701052,1554.432478,592.164754,-9806.022374
874.701372,3034.844362,740.205942,-9576.193725
874.701692,1258.350101,370.102971,-8963.317327
874.702012,-666.185348,1628.453072,-9729.412825
874.702332,-1480.411884,2220.617826,-9193.145976
874.702652,-592.164754,518.144159,-9499.584175
874.702972,962.267725,-1184.329507,-9346.365076
874.703292,814.226536,-2294.638420,-9116.536426
874.703612,0.000000,-2368.659014,-9422.974625
874.703932,-222.061783,148.041188,-9652.803275
874.704252,1036.288319,1998.556043,-9806.022374
874.704572,1554.432478,3552.988522,-10342.289223
874.704892,2368.659014,666.185348,-9959.241474
874.705212,2590.720797,-2146.597232,-9346.365076
874.705532,518.144159,-2738.761985,-10112.460574
874.705852,-888.247130,-740.205942,-10265.679673
874.706172,-740.205942,740.205942,-9806.022374
874.706492,74.020594,2812.782580,-10801.946522
874.706812,2812.782580,2368.659014,-10955.165621
874.707132,3775.050304,1184.329507,-10801.946522
874.707452,1628.453072,1628.453072,-10801.946522
874.707772,-1554.432478,962.267725,-10801.946522
874.708092,-2738.761985,1554.432478,-9882.631924
874.708412,-222.061783,296.082377,-10801.946522
874.708732,1924.535449,-1702.473667,-9806.022374
874.709052,3552.988522,-1406.391290,-9959.241474
874.709372,1628.453072,1036.288319,-10801.946522
874.709692,222.061783,2664.741391,-10955.165621
874.710012,2738.761985,4293.194464,-10342.289223
874.710332,2960.823768,3923.091493,-10572.117872
874.710652,3404.947333,592.164754,-10112.460574
874.710972,2294.638420,-1480.411884,-10112.460574
874.711292,-148.041188,-1702.473667,-9882.631924
874.711612,-1850.514855,-1554.432478,-9806.022374
874.711932,-1258.350101,-592.164754,-8886.707777
874.712252,-888.247130,740.205942,-9576.193725
874.712572,1702.473667,-370.102971,-9499.584175
874.712892,2812.782580,148.041188,-9499.584175
874.713212,1480.411884,-740.205942,-9729.412825
874.713532,0.000000,-888.247130,-9193.145976
874.713852,-666.185348,0.000000,-8886.707777
874.714172,962.267725,1332.370696,-9806.022374
874.714492,3404.947333,888.247130,-9806.022374
874.714812,3256.906145,-814.226536,-10035.851024
874.715132,2146.597232,-518.144159,-10265.679673
874.715452,-962.267725,740.205942,-10265.679673
874.715772,-888.247130,2294.638420,-10265.679673
874.716092,296.082377,1332.370696,-9729.412825
874.716412,740.205942,-1850.514855,-9959.241474
874.716732,-1258.350101,-2738.761985,-10035.851024
874.717052,-2664.741391,-2220.617826,-10342.289223
874.717372,-2738.761985,666.185348,-11338.213370
874.717692,-518.144159,1110.308913,-10342.289223
874.718012,1110.308913,2960.823768,-11184.994271
874.718332,1406.391290,1850.514855,-11031.775171
874.718652,1036.288319,888.247130,-10878.556072
874.718972,-962.267725,-370.102971,-10648.727422
874.719292,-1998.556043,-814.226536,-10955.165621
874.719612,-2220.617826,-444.123565,-10035.851024
874.719931,-3182.885551,-1776.494261,-9806.022374
874.720251,-1554.432478,-1628.453072,-10265.679673
874.720571,-1554.432478,-1998.556043,-9499.584175
874.720891,0.000000,-370.102971,-10342.289223
874.721211,370.102971,-222.061783,-10189.070123
874.721531,74.020594,222.061783,-9499.584175
874.721851,888.247130,666.185348,-11108.384721
874.722171,666.185348,-1184.329507,-9346.365076
874.722491,296.082377,-1406.391290,-9576.193725
874.722811,518.144159,-1480.411884,-10112.460574
874.723131,-370.102971,0.000000,-9806.022374
874.723450,-962.267725,370.102971,-9269.755526
874.723770,444.123565,814.226536,-10265.679673
874.724090,740.205942,-518.144159,-9729.412825
874.724410,1184.329507,-1036.288319,-9499.584175
874.724730,222.061783,592.164754,-9499.584175
874.725050,1110.308913,888.247130,-9806.022374
874.725370,2812.782580,1998.556043,-10495.508323
874.725690,2664.741391,0.000000,-10418.898773
874.726010,1702.473667,-296.082377,-8963.317327
874.726330,1776.494261,1332.370696,-10035.851024
874.726650,2072.576638,888.247130,-10112.460574
874.726970,3256.906145,1998.556043,-10955.165621
874.727289,3108.864956,2960.823768,-10648.727422
874.727609,2368.659014,2368.659014,-11338.213370
874.727929,1110.308913,518.144159,-10495.508323
874.728249,2072.576638,-518.144159,-9806.022374
874.728569,1480.411884,592.164754,-10801.946522
874.728889,1554.432478,-296.082377,-11184.994271
874.729209,1850.514855,592.164754,-10112.460574
874.729529,370.102971,1480.411884,-10725.336972
874.729849,2442.679609,2294.638420,-10265.679673
874.730169,3108.864956,2368.659014,-10035.851024
874.730489,296.082377,3034.844362,-10725.336972
874.730808,-1406.391290,2368.659014,-9959.241474
874.731128,-1998.556043,592.164754,-9806.022374
874.731448,-1776.494261,-1406.391290,-9576.193725
874.731768,0.000000,-370.102971,-9652.803275
874.732088,592.164754,-888.247130,-10035.851024
874.732408,-296.082377,-296.082377,-9882.631924
874.732728,222.061783,0.000000,-9806.022374
874.733048,-370.102971,1850.514855,-8810.098227
874.733368,74.020594,2812.782580,-10342.289223
874.733688,1110.308913,444.123565,-9269.755526
874.734008,962.267725,0.000000,-9652.803275
874.734327,-2368.659014,0.000000,-9576.193725
874.734647,-370.102971,0.000000,-9499.584175
874.734967,-666.185348,148.041188,-9729.412825
874.735287,-1924.535449,592.164754,-10112.460574
874.735607,-740.205942,1554.432478,-9576.193725
874.735927,222.061783,296.082377,-9806.022374
874.736247,814.226536,1036.288319,-10801.946522
874.736567,-888.247130,1184.329507,-10265.679673
874.736887,-740.205942,1998.556043,-9806.022374
874.737207,-444.123565,2146.597232,-10648.727422
874.737527,1406.391290,814.226536,-9882.631924
874.737846,518.144159,-1924.535449,-9882.631924
874.738166,-444.123565,-2368.659014,-10265.679673
874.738486,370.102971,-2072.576638,-10189.070123
874.738806,1332.370696,-518.144159,-11414.822920
874.739126,1110.308913,962.267725,-10648.727422
874.739446,1110.308913,1628.453072,-10955.165621
874.739766,1406.391290,888.247130,-10725.336972
874.740086,-1110.308913,444.123565,-10725.336972
874.740406,-2886.803174,962.267725,-10265.679673
874.740726,-2072.576638,222.061783,-10265.679673
874.741046,74.020594,-1850.514855,-10572.117872
874.741366,2368.659014,-2294.638420,-9806.022374
874.741685,2368.659014,-1258.350101,-9499.584175
874.742005,740.205942,0.000000,-10342.289223
874.742325,666.185348,814.226536,-10265.679673
874.742645,1258.350101,2220.617826,-9882.631924
874.742965,1480.411884,2220.617826,-10189.070123
874.743285,2220.617826,-2442.679609,-9039.926876
874.743605,2886.803174,-3108.864956,-9806.022374
874.743925,370.102971,-296.082377,-10418.898773
874.744245,444.123565,2368.659014,-10265.679673
874.744565,296.082377,2664.741391,-10189.070123
874.744885,740.205942,814.226536,-10112.460574
874.745204,1184.329507,-222.061783,-9882.631924
874.745524,740.205942,-1924.535449,-9806.022374
874.745844,2294.638420,-740.205942,-10418.898773
874.746164,3108.864956,592.164754,-10112.460574
874.746484,2146.597232,1998.556043,-10418.898773
874.746804,1406.391290,1998.556043,-10495.508323
874.747124,296.082377,74.020594,-9806.022374
874.747444,814.226536,74.020594,-10955.165621
874.747764,1036.288319,444.123565,-10801.946522
874.748084,592.164754,1480.411884,-10189.070123
874.748404,962.267725,1110.308913,-10342.289223
874.748723,-1332.370696,0.000000,-10801.946522
874.749043,-1924.535449,-518.144159,-10112.460574
874.749363,-1628.453072,-444.123565,-9499.584175
874.749683,-814.226536,814.226536,-10572.117872
874.750003,0.000000,1406.391290,-9422.974625
874.750323,592.164754,814.226536,-9882.631924
874.750643,962.267725,370.102971,-9729.412825
874.750963,1998.556043,-1924.535449,-9039.926876
874.751283,1110.308913,-1110.308913,-9959.241474
874.751603,296.082377,222.061783,-10342.289223
874.751923,1554.432478,888.247130,-10265.679673
874.752242,1998.556043,962.267725,-9729.412825
874.752562,1998.556043,1998.556043,-10035.851024
874.752882,-666.185348,-296.082377,-9806.022374
874.753202,-1850.514855,-814.226536,-10418.898773
874.753522,-1406.391290,-370.102971,-9882.631924
874.753842,0.000000,-444.123565,-10035.851024
874.754162,814.226536,592.164754,-9959.241474
874.754482,518.144159,222.061783,-10572.117872
874.754802,1924.535449,-1036.288319,-10112.460574
874.755122,1850.514855,518.144159,-10265.679673
874.755442,666.185348,222.061783,-10878.556072
874.755761,370.102971,-370.102971,-10035.851024
874.756081,-1110.308913,888.247130,-10342.289223
874.756401,-666.185348,1110.308913,-10648.727422
874.756721,518.144159,-518.144159,-9959.241474
874.757041,-148.041188,-814.226536,-10725.336972
874.757361,-592.164754,-1036.288319,-11644.651570
874.757681,-1406.391290,-1406.391290,-9652.803275
874.758001,-518.144159,-592.164754,-9806.022374
874.758321,1406.391290,-666.185348,-10265.679673
874.758641,2072.576638,-1184.329507,-8656.879127
874.758961,814.226536,-1332.370696,-10035.851024
874.759281,-740.205942,222.061783,-10265.679673
874.759600,-962.267725,888.247130,-9806.022374
874.759920,-1258.350101,1480.411884,-10265.679673
874.760240,444.123565,0.000000,-9959.241474
874.760560,888.247130,-2220.617826,-9806.022374
874.760880,444.123565,-2442.679609,-10112.460574
874.761200,296.082377,-1776.494261,-10112.460574
874.761520,-222.061783,222.061783,-9193.145976
874.761840,-444.123565,2368.659014,-10189.070123
874.762160,74.020594,3034.844362,-10495.508323
874.762480,1702.473667,1184.329507,-9806.022374
874.762800,1184.329507,0.000000,-10112.460574
874.763119,1776.494261,518.144159,-10342.289223
874.763439,370.102971,518.144159,-9959.241474
874.763759,-148.041188,1110.308913,-9959.241474
874.764079,1998.556043,2072.576638,-10112.460574
874.764399,3182.885551,962.267725,-9806.022374
874.764719,1258.350101,-814.226536,-10572.117872
874.765039,1332.370696,0.000000,-10801.946522
874.765359,0.000000,1258.350101,-10112.460574
874.765679,370.102971,1998.556043,-10418.898773
874.765999,1924.535449,2812.782580,-10418.898773
874.766319,3256.906145,1184.329507,-10648.727422
874.766638,2886.803174,1110.308913,-10648.727422
874.766958,1924.535449,518.144159,-10725.336972
874.767278,1480.411884,740.205942,-9959.241474
874.767598,-592.164754,1702.473667,-10189.070123
874.767918,0.000000,1480.411884,-10189.070123
874.768238,1184.329507,370.102971,-9652.803275
874.768558,1702.473667,-518.144159,-9806.022374
874.768878,888.247130,0.000000,-9882.631924
874.769198,296.082377,148.041188,-9806.022374
874.769518,296.082377,1998.556043,-10112.460574
874.769838,222.061783,1480.411884,-9806.022374
874.770157,1184.329507,1036.288319,-8810.098227
874.770477,518.144159,-1184.329507,-9193.145976
874.770797,-296.082377,-296.082377,-10265.679673
874.771117,-296.082377,0.000000,-8963.317327
874.771437,1184.329507,2738.761985,-10648.727422
874.771757,1924.535449,2368.659014,-9576.193725
874.772077,3330.926739,370.102971,-10112.460574
874.772397,740.205942,148.041188,-9959.241474
874.772717,666.185348,-296.082377,-10648.727422
874.773037,-814.226536,740.205942,-9652.803275
874.773357,-814.226536,1406.391290,-10112.460574
874.773676,-1332.370696,888.247130,-10342.289223
874.773996,-592.164754,-1036.288319,-9882.631924
874.774316,0.000000,-444.123565,-10265.679673
874.774636,-1480.411884,1850.514855,-11108.384721
874.774956,-1036.288319,2220.617826,-10342.289223
874.775276,-888.247130,1998.556043,-10725.336972
874.775596,444.123565,-222.061783,-9806.022374
874.775916,814.226536,-2738.761985,-10189.070123
874.776236,-518.144159,-2738.761985,-10495.508323
874.776556,-1924.535449,-1184.329507,-10112.460574
874.776876,-962.267725,1184.329507,-10572.117872
874.777196,-666.185348,3701.029710,-10418.898773
874.777515,-444.123565,1924.535449,-10495.508323
874.777835,740.205942,-1850.514855,-9422.974625
874.778155,74.020594,-2368.659014,-9652.803275
874.778475,-1554.432478,-2368.659014,-10265.679673
874.778795,-1480.411884,-666.185348,-9193.145976
874.779115,-2072.576638,0.000000,-9269.755526
874.779435,740.205942,-518.144159,-9652.803275
874.779755,2516.700203,-2146.597232,-9269.755526
874.780075,2294.638420,-1036.288319,-10418.898773
874.780395,-222.061783,-444.123565,-10189.070123
874.780715,-1036.288319,1776.494261,-9652.803275
874.781034,0.000000,1998.556043,-10265.679673
874.781354,1258.350101,592.164754,-9959.241474
874.781674,1924.535449,-3404.947333,-9422.974625
874.781994,1036.288319,-4293.194464,-9729.412825
874.782314,962.267725,-2072.576638,-10035.851024
874.782634,1998.556043,740.205942,-10035.851024
874.782954,2368.659014,2368.659014,-10418.898773
874.783274,2368.659014,1924.535449,-10265.679673
874.783594,2738.761985,-666.185348,-9959.241474
874.783914,2516.700203,-1480.411884,-10878.556072
874.784234,1332.370696,-962.267725,-10725.336972
874.784553,0.000000,888.247130,-10495.508323
874.784873,-444.123565,2146.597232,-10955.165621
874.785193,1850.514855,1998.556043,-10495.508323
874.785513,2442.679609,-444.123565,-10189.070123
874.785833,1702.473667,-296.082377,-10801.946522
874.786153,74.020594,518.144159,-10418.898773
874.786473,592.164754,1850.514855,-10342.289223
874.786793,1776.494261,2812.782580,-10725.336972
874.787113,1258.350101,1184.329507,-10342.289223
874.787433,814.226536,-1702.473667,-9576.193725
874.787753,222.061783,-1554.432478,-10189.070123
874.788072,296.082377,444.123565,-10418.898773
874.788392,740.205942,2960.823768,-10189.070123
874.788712,1036.288319,2960.823768,-8503.660028
874.789032,1776.494261,888.247130,-9576.193725
874.789352,444.123565,-1776.494261,-9346.365076
874.789672,-2664.741391,-3256.906145,-9346.365076
874.789992,888.247130,-814.226536,-9806.022374
874.790312,-518.144159,1036.288319,-9806.022374
874.790632,-1258.350101,1924.535449,-9422.974625
874.790952,-1184.329507,1480.411884,-9346.365076
874.791272,1332.370696,-740.205942,-9576.193725
874.791591,740.205942,296.082377,-10648.727422
874.791911,-148.041188,1036.288319,-11031.775171
874.792231,0.000000,2146.597232,-9499.584175
874.792551,-592.164754,2368.659014,-10112.460574
874.792871,1480.411884,222.061783,-9806.022374
874.793191,1776.494261,-1258.350101,-9729.412825
874.793511,518.144159,-1702.473667,-10955.165621
874.793831,-962.267725,-592.164754,-9652.803275
874.794151,-1998.556043,2072.576638,-10112.460574
874.794471,-2368.659014,3478.967927,-10189.070123
874.794791,-2146.597232,2368.659014,-10112.460574
874.795111,-666.185348,-296.082377,-10035.851024
874.795430,1554.432478,-1998.556043,-10572.117872
874.795750,2516.700203,-1554.432478,-10342.289223
874.796070,222.061783,296.082377,-9806.022374
874.796390,1110.308913,2220.617826,-10572.117872
874.796710,2516.700203,1406.391290,-10572.117872
874.797030,2368.659014,814.226536,-10189.070123
874.797350,1036.288319,888.247130,-10878.556072
874.797670,-444.123565,1184.329507,-10265.679673
874.797990,-1036.288319,2590.720797,-9652.803275
874.798310,-1110.308913,2294.638420,-9882.631924
874.798630,-222.061783,-888.247130,-8656.879127
874.798949,814.226536,-5403.503377,-9039.926876
874.799269,666.185348,-6735.874072,-9729.412825
874.799589,74.020594,-4811.338623,-9806.022374
874.799909,-444.123565,962.267725,-9576.193725
874.800229,-1258.350101,5551.544565,-10418.898773
874.800549,296.082377,6513.812290,-10342.289223
874.800869,2220.617826,3775.050304,-10572.117872
874.801189,2220.617826,-518.144159,-10265.679673
874.801509,1628.453072,-1258.350101,-11491.432470
874.801829,1480.411884,-1702.473667,-9729.412825
874.802149,1184.329507,0.000000,-10035.851024
874.802468,2220.617826,74.020594,-9806.022374
874.802788,2368.659014,0.000000,-9422.974625
874.803108,-518.144159,-444.123565,-10801.946522
874.803428,-2146.597232,0.000000,-9806.022374
874.803748,-962.267725,2442.679609,-10035.851024
874.804068,1258.350101,3552.988522,-10725.336972
874.804388,3256.906145,2072.576638,-10189.070123
874.804708,2812.782580,-1036.288319,-10189.070123
874.805028,814.226536,-1850.514855,-10725.336972
874.805348,148.041188,-1924.535449,-10801.946522
874.805668,740.205942,1258.350101,-9806.022374
874.805987,962.267725,2738.761985,-11108.384721
874.806307,1110.308913,2812.782580,-10189.070123
874.806627,1924.535449,-222.061783,-10189.070123
874.806947,888.247130,-1480.411884,-10955.165621
874.807267,1332.370696,-1702.473667,-10112.460574
874.807587,444.123565,0.000000,-10112.460574
874.807907,222.061783,1184.329507,-10648.727422
874.808227,444.123565,296.082377,-9729.412825
874.808547,962.267725,-962.267725,-9729.412825
874.808867,148.041188,-814.226536,-10495.508323
874.809187,-962.267725,222.061783,-10035.851024
874.809506,-1258.350101,2072.576638,-10418.898773
874.809826,-222.061783,2664.741391,-10265.679673
874.810146,962.267725,518.144159,-9729.412825
874.810466,1036.288319,-1702.473667,-9499.584175
874.810786,222.061783,-3478.967927,-9729.412825
874.811106,-370.102971,-3256.906145,-9576.193725
874.811426,444.123565,-592.164754,-10418.898773
874.811746,962.267725,2368.659014,-10112.460574
874.812066,888.247130,1702.473667,-9499.584175
874.812386,1036.288319,444.123565,-9882.631924
874.812706,1406.391290,-222.061783,-10112.460574
874.813026,370.102971,0.000000,-10725.336972
874.813345,-888.247130,296.082377,-9806.022374
874.813665,-814.226536,1184.329507,-10495.508323
874.813985,-888.247130,-814.226536,-9652.803275
874.814305,444.123565,-3627.009116,-9652.803275
874.814625,-888.247130,-1998.556043,-10189.070123
874.814945,-814.226536,-740.205942,-10572.117872
874.815265,-888.247130,2812.782580,-10878.556072
874.815585,222.061783,3997.112087,-11261.603821
874.815905,1776.494261,2368.659014,-10418.898773
874.816225,1406.391290,518.144159,-10418.898773
874.816545,740.205942,-1480.411884,-10495.508323
874.816864,444.123565,-1258.350101,-10342.289223
874.817184,-1110.308913,666.185348,-10112.460574
874.817504,592.164754,1924.535449,-10265.679673
874.817824,1184.329507,1258.350101,-10112.460574
874.818144,1258.350101,814.226536,-9576.193725
874.818464,666.185348,0.000000,-10572.117872
874.818784,-1036.288319,222.061783,-9882.631924
874.819104,-1776.494261,1628.453072,-9729.412825
874.819424,-962.267725,2146.597232,-10112.460574
874.819744,1110.308913,740.205942,-9422.974625
874.820064,2368.659014,-888.247130,-9806.022374
874.820384,2220.617826,-814.226536,-10189.070123
874.820704,1628.453072,0.000000,-9959.241474
874.821024,1480.411884,1406.391290,-10035.851024
874.821344,1332.370696,2812.782580,-9959.241474
874.821664,1110.308913,1998.556043,-9882.631924
874.821984,1480.411884,1036.288319,-9806.022374
874.822304,1184.329507,-518.144159,-9806.022374
874.822624,666.185348,-444.123565,-9882.631924
874.822944,1554.432478,0.000000,-9882.631924
874.823264,2072.576638,814.226536,-10418.898773
874.823584,1776.494261,1628.453072,-9959.241474
874.823905,1036.288319,1406.391290,-10342.289223
874.824225,666.185348,1406.391290,-10572.117872
874.824545,814.226536,1258.350101,-9882.631924
874.824865,1702.473667,1924.535449,-11184.994271
874.825185,2146.597232,2516.700203,-10648.727422
874.825505,2368.659014,1036.288319,-10035.851024
874.825825,1406.391290,148.041188,-10035.851024
874.826145,1258.350101,-148.041188,-10955.165621
874.826465,370.102971,0.000000,-10112.460574
874.826785,-740.205942,814.226536,-10572.117872
874.827105,-814.226536,2072.576638,-11184.994271
874.827425,0.000000,1406.391290,-10112.460574
874.827745,592.164754,740.205942,-10342.289223
874.828065,962.267725,-222.061783,-10572.117872
874.828385,1258.350101,0.000000,-10035.851024
874.828705,-296.082377,814.226536,-10725.336972
874.829025,148.041188,1184.329507,-10112.460574
874.829345,296.082377,222.061783,-9422.974625
874.829665,666.185348,-444.123565,-9806.022374
874.829985,740.205942,-222.061783,-10035.851024
874.830305,222.061783,1480.411884,-10189.070123
874.830625,74.020594,2368.659014,-10418.898773
874.830945,-888.247130,1406.391290,-9959.241474
874.831265,-1184.329507,-222.061783,-8886.707777
874.831585,-444.123565,-2368.659014,-9346.365076
874.831905,1480.411884,-2368.659014,-9576.193725
874.832225,2368.659014,-1554.432478,-9652.803275
874.832545,1628.453072,-518.144159,-9652.803275
874.832865,962.267725,1332.370696,-9959.241474
874.833185,962.267725,148.041188,-9806.022374
874.833505,666.185348,-1406.391290,-9882.631924
874.833825,-2072.576638,-1924.535449,-9806.022374
874.834145,-3330.926739,-1702.473667,-9729.412825
874.834466,-2664.741391,-592.164754,-9959.241474
874.834786,-1258.350101,-444.123565,-10418.898773
874.835106,-666.185348,-1776.494261,-9806.022374
874.835426,0.000000,-2960.823768,-10112.460574
874.835746,-296.082377,-1702.473667,-10725.336972
874.836066,296.082377,-592.164754,-10342.289223
874.836386,-814.226536,518.144159,-10495.508323
874.836706,-1628.453072,962.267725,-10572.117872
874.837026,-1702.473667,-814.226536,-10189.070123
874.837346,-148.041188,-2368.659014,-10189.070123
874.837666,1184.329507,-2960.823768,-10342.289223
874.837986,1776.494261,-2590.720797,-10035.851024
874.838306,1184.329507,-592.164754,-10572.117872
874.838626,1776.494261,1332.370696,-11108.384721
874.838946,2294.638420,1554.432478,-10495.508323
874.839266,444.123565,1480.411884,-10418.898773
874.839586,-296.082377,1702.473667,-10801.946522
874.839906,74.020594,2220.617826,-10189.070123
874.840226,814.226536,814.226536,-11184.994271
874.840546,1258.350101,-296.082377,-10648.727422
874.840866,2072.576638,-2516.700203,-9882.631924
874.841186,3034.844362,-962.267725,-9806.022374
874.841506,1480.411884,3478.967927,-10648.727422
874.841826,148.041188,6513.812290,-10342.289223
874.842146,-592.164754,7179.997637,-10955.165621
874.842466,740.205942,3701.029710,-10495.508323
874.842786,2368.659014,-148.041188,-9499.584175
874.843106,2886.803174,-2738.761985,-9422.974625
874.843426,2960.823768,-1776.494261,-9729.412825
874.843746,3034.844362,0.000000,-9499.584175
874.844066,3256.906145,2960.823768,-11261.603821
874.844386,2960.823768,3627.009116,-10189.070123
874.844706,2220.617826,3182.885551,-9576.193725
874.845027,1850.514855,2516.700203,-10189.070123
874.845347,1036.288319,2146.597232,-9959.241474
874.845667,1184.329507,2368.659014,-10189.070123
874.845987,814.226536,1702.473667,-10035.851024
874.846307,1184.329507,1184.329507,-9806.022374
874.846627,1406.391290,0.000000,-9806.022374
874.846947,2220.617826,74.020594,-9806.022374
874.847267,1702.473667,2960.823768,-9806.022374
874.847587,1776.494261,5699.585753,-10801.946522
874.847907,1184.329507,6365.771101,-10035.851024
874.848227,962.267725,5181.441594,-10189.070123
874.848547,2516.700203,2368.659014,-10035.851024
874.848867,3775.050304,-814.226536,-9882.631924
874.849187,5329.482782,0.000000,-10035.851024
874.849507,5329.482782,2442.679609,-10418.898773
874.849827,3701.029710,5181.441594,-9576.193725
874.850147,666.185348,6217.729913,-10572.117872
874.850467,-814.226536,5033.400406,-10189.070123
874.850787,74.020594,3849.070898,-9806.022374
874.851107,1998.556043,3182.885551,-9959.241474
874.851427,3997.112087,2664.741391,-9269.755526
874.851747,5255.462188,1184.329507,-10342.289223
874.852067,3108.864956,1776.494261,-9576.193725
874.852387,2072.576638,1480.411884,-9652.803275
874.852707,1110.308913,2590.720797,-9193.145976
874.853027,518.144159,2738.761985,-9882.631924
874.853347,370.102971,2812.782580,-9882.631924
874.853667,2146.597232,3552.988522,-10342.289223
874.853987,2738.761985,3923.091493,-10495.508323
874.854307,2738.761985,3627.009116,-9882.631924
874.854627,1924.535449,2442.679609,-10112.460574
874.854947,2294.638420,2146.597232,-10189.070123
874.855267,4293.194464,2220.617826,-10189.070123
874.855588,3997.112087,2294.638420,-10189.070123
874.855908,1184.329507,2886.803174,-9959.241474
874.856228,0.000000,2294.638420,-10572.117872
874.856548,148.041188,2220.617826,-10418.898773
874.856868,740.205942,2294.638420,-9652.803275
874.857188,814.226536,1776.494261,-9882.631924
874.857508,1480.411884,1258.350101,-10342.289223
874.857828,1628.453072,518.144159,-10418.898773
874.858148,1554.432478,962.267725,-9959.241474
874.858468,2442.679609,2220.617826,-9346.365076
874.858788,3330.926739,2590.720797,-10112.460574
874.859108,3404.947333,3627.009116,-10189.070123
874.859428,2442.679609,3775.050304,-10725.336972
874.859748,1406.391290,3997.112087,-9269.755526
874.860068,2220.617826,1998.556043,-10342.289223
874.860388,2590.720797,1110.308913,-10189.070123
874.860708,1850.514855,0.000000,-10342.289223
874.861028,1628.453072,370.102971,-9806.022374
874.861348,2368.659014,962.267725,-9499.584175
874.861668,2812.782580,2812.782580,-10572.117872
874.861988,2146.597232,3404.947333,-10189.070123
874.862308,2220.617826,2590.720797,-10035.851024
874.862628,3849.070898,1554.432478,-10801.946522
874.862948,6809.894666,740.205942,-9959.241474
874.863268,5699.585753,1628.453072,-10495.508323
874.863588,3108.864956,2738.761985,-10648.727422
874.863908,1776.494261,4293.194464,-10189.070123
874.864228,2738.761985,4737.318029,-11414.822920
874.864548,3552.988522,3330.926739,-10495.508323
874.864868,1480.411884,2072.576638,-10189.070123
874.865188,0.000000,1110.308913,-9806.022374
874.865508,814.226536,592.164754,-9806.022374
874.865828,2220.617826,1406.391290,-10112.460574
874.866149,3627.009116,1776.494261,-10112.460574
874.866469,2886.803174,1702.473667,-9806.022374
874.866789,2960.823768,2368.659014,-9959.241474
874.867109,3034.844362,3404.947333,-9729.412825
874.867429,4367.215058,3997.112087,-10418.898773
874.867749,4071.132681,4219.173869,-10801.946522
874.868069,2590.720797,3775.050304,-10112.460574
874.868389,444.123565,3256.906145,-10035.851024
874.868709,-1480.411884,2664.741391,-9806.022374
874.869029,-1184.329507,2072.576638,-9882.631924
874.869349,518.144159,962.267725,-10035.851024
874.869669,1998.556043,666.185348,-9422.974625
874.869989,666.185348,962.267725,-10112.460574
874.870309,-296.082377,1406.391290,-9652.803275
874.870629,370.102971,2812.782580,-9346.365076
874.870949,3552.988522,4293.194464,-10418.898773
874.871269,5033.400406,4811.338623,-9882.631924
874.871589,4589.276840,3701.029710,-10189.070123
874.871909,2072.576638,2738.761985,-10878.556072
874.872229,0.000000,2368.659014,-9806.022374
874.872549,-666.185348,2442.679609,-10495.508323
874.872869,222.061783,2294.638420,-10265.679673
874.873189,1998.556043,1184.329507,-9806.022374
874.873509,2072.576638,666.185348,-9959.241474
874.873829,2368.659014,2072.576638,-10342.289223
874.874149,2738.761985,3849.070898,-10955.165621
874.874469,1480.411884,5625.565159,-10342.289223
874.874789,2146.597232,5477.523971,-10035.851024
874.875109,3997.112087,4071.132681,-10572.117872
874.875429,4885.359217,1480.411884,-10572.117872
874.875749,3701.029710,296.082377,-9882.631924
874.876069,2738.761985,888.247130,-10418.898773
874.876389,2442.679609,2516.700203,-10418.898773
874.876710,2146.597232,3701.029710,-9882.631924
874.877030,1480.411884,3478.967927,-9806.022374
874.877350,1628.453072,1998.556043,-9729.412825
874.877670,3034.844362,740.205942,-9959.241474
874.877990,3997.112087,666.185348,-10035.851024
874.878310,4737.318029,1628.453072,-10112.460574
874.878630,5403.503377,3108.864956,-10035.851024
874.878950,5625.565159,4071.132681,-10265.679673
874.879270,4441.235652,4515.256246,-10572.117872
874.879590,1628.453072,4737.318029,-10648.727422
874.879910,0.000000,3701.029710,-10265.679673
874.880230,296.082377,1776.494261,-9882.631924
874.880550,2072.576638,-222.061783,-9806.022374
874.880870,2516.700203,-1776.494261,-9039.926876
874.881190,1776.494261,-888.247130,-9576.193725
874.881510,2072.576638,1036.288319,-9576.193725
874.881830,3034.844362,4293.194464,-9882.631924
874.882150,4885.359217,6291.750507,-10495.508323
874.882470,5181.441594,6439.791695,-10648.727422
874.882790,4219.173869,4589.276840,-10572.117872
874.883110,2146.597232,2146.597232,-10418.898773
874.883430,0.000000,370.102971,-9959.241474
874.883750,-1036.288319,-296.082377,-9806.022374
874.884070,-518.144159,-222.061783,-9576.193725
874.884390,296.082377,-444.123565,-9729.412825
874.884710,888.247130,814.226536,-9882.631924
874.885030,1702.473667,2294.638420,-9959.241474
874.885350,3108.864956,4219.173869,-10418.898773
874.885670,4811.338623,4959.379811,-10648.727422
874.885990,5625.565159,4663.297435,-10572.117872
874.886310,5033.400406,3849.070898,-10801.946522
874.886630,3330.926739,2516.700203,-10189.070123
874.886950,2146.597232,1998.556043,-10572.117872
874.887271,222.061783,2368.659014,-10725.336972
874.887591,-592.164754,2442.679609,-10265.679673
874.887911,-1258.350101,1702.473667,-9882.631924
874.888231,-1850.514855,814.226536,-9576.193725
874.888551,-1850.514855,-222.061783,-9499.584175
874.888871,0.000000,0.000000,-9806.022374
874.889191,2368.659014,1332.370696,-9729.412825
874.889511,4737.318029,3182.885551,-9959.241474
874.889831,6513.812290,4589.276840,-10035.851024
874.890151,6809.894666,5255.462188,-10572.117872
874.890471,5107.421000,5699.585753,-10495.508323
874.890791,3775.050304,5255.462188,-10648.727422
874.891111,1850.514855,3923.091493,-10495.508323
874.891431,1036.288319,2442.679609,-10112.460574
874.891751,74.020594,962.267725,-9882.631924
874.892071,-666.185348,0.000000,-9806.022374
874.892391,-1036.288319,-148.041188,-9346.365076
874.892711,-592.164754,1628.453072,-9346.365076
874.893031,740.205942,2442.679609,-9959.241474
874.893351,3404.947333,3478.967927,-10035.851024
874.893671,5403.503377,4219.173869,-10035.851024
874.893991,7105.977043,3108.864956,-9959.241474
874.894311,6957.935855,3330.926739,-10342.289223
874.894631,3849.070898,3108.864956,-10189.070123
874.894951,1258.350101,2146.597232,-9499.584175
874.895271,-666.185348,1776.494261,-9806.022374
874.895591,-296.082377,0.000000,-9882.631924
874.895911,-888.247130,-1332.370696,-9576.193725
874.896231,-666.185348,-1924.535449,-9346.365076
874.896551,0.000000,-1258.350101,-9269.755526
874.896871,962.267725,1184.329507,-9269.755526
874.897191,2442.679609,2960.823768,-10265.679673
874.897511,4145.153275,4515.256246,-10265.679673
874.897832,4589.276840,4959.379811,-10725.336972
874.898152,4219.173869,4441.235652,-10725.336972
874.898472,3849.070898,2960.823768,-10112.460574
874.898792,2812.782580,2146.597232,-10878.556072
874.899112,1776.494261,1554.432478,-10648.727422
874.899432,888.247130,1110.308913,-10112.460574
874.899752,370.102971,1110.308913,-10342.289223
874.900072,592.164754,1628.453072,-9806.022374
874.900392,1628.453072,1776.494261,-10189.070123
874.900712,2886.803174,2664.741391,-10265.679673
874.901032,3923.091493,3182.885551,-10189.070123
874.901352,5255.462188,3997.112087,-10035.851024
874.901672,6513.812290,3923.091493,-10342.289223
874.901992,7105.977043,4663.297435,-10265.679673
874.902312,6217.729913,5255.462188,-10495.508323
874.902632,4441.235652,6143.709319,-10725.336972
874.902952,2294.638420,5255.462188,-10418.898773
874.903272,296.082377,3552.988522,-9959.241474
874.903592,-1036.288319,1480.411884,-9806.022374
874.903912,-962.267725,0.000000,-9269.755526
874.904232,-518.144159,-592.164754,-9346.365076
874.904552,1406.391290,0.000000,-9576.193725
874.904872,3034.844362,1924.535449,-9882.631924
874.905192,4589.276840,4589.276840,-9806.022374
874.905512,4811.338623,7254.018232,-10112.460574
874.905832,5921.647536,7476.080014,-10189.070123
874.906152,5625.565159,6883.915261,-10342.289223
874.906472,4589.276840,5403.503377,-10189.070123
874.906792,3775.050304,3775.050304,-10265.679673
874.907112,2516.700203,2220.617826,-10112.460574
874.907432,-148.041188,2368.659014,-9882.631924
874.907752,-2590.720797,2738.761985,-9806.022374
874.908072,-3182.885551,2886.803174,-9576.193725
874.908393,-1184.329507,3034.844362,-9959.241474
874.908713,1036.288319,2368.659014,-10112.460574
874.909033,2442.679609,2220.617826,-10112.460574
874.909353,2812.782580,3034.844362,-10112.460574
874.909673,3256.906145,4367.215058,-9729.412825
874.909993,4367.215058,5477.523971,-10035.851024
874.910313,6217.729913,5847.626942,-10801.946522
874.910633,6513.812290,5847.626942,-11031.775171
874.910953,3775.050304,4663.297435,-10725.336972
874.911273,-148.041188,3627.009116,-10112.460574
874.911593,-2590.720797,2368.659014,-10112.460574
874.911913,-1850.514855,814.226536,-9806.022374
874.912233,-962.267725,0.000000,-9499.584175
874.912553,-370.102971,-370.102971,-9882.631924
874.912873,592.164754,74.020594,-9499.584175
874.913193,3330.926739,2146.597232,-9806.022374
874.913513,6143.709319,4811.338623,-10418.898773
874.913833,6809.894666,6883.915261,-10648.727422
874.914153,5403.503377,7105.977043,-10035.851024
874.914473,4071.132681,4959.379811,-10418.898773
874.914793,2738.761985,2368.659014,-9882.631924
874.915113,1850.514855,148.041188,-9806.022374
874.915433,962.267725,-444.123565,-9499.584175
874.915753,370.102971,-962.267725,-9806.022374
874.916073,148.041188,-370.102971,-9729.412825
874.916393,-962.267725,1110.308913,-9882.631924
874.916713,222.061783,2368.659014,-10035.851024
874.917033,2590.720797,2960.823768,-10572.117872
874.917353,4737.318029,2590.720797,-10189.070123
874.917673,6587.832884,2516.700203,-10189.070123
874.917993,7254.018232,3182.885551,-10878.556072
874.918313,6143.709319,4367.215058,-10572.117872
874.918633,3627.009116,4885.359217,-10801.946522
874.918954,1036.288319,4737.318029,-10648.727422
874.919274,148.041188,2886.803174,-10418.898773
874.919594,666.185348,518.144159,-10418.898773
874.919914,740.205942,-1332.370696,-10572.117872
874.920234,-370.102971,-2072.576638,-10112.460574
874.920554,-888.247130,-1036.288319,-9422.974625
874.920874,814.226536,888.247130,-9959.241474
874.921194,3701.029710,2442.679609,-10418.898773
874.921514,5477.523971,3552.988522,-10112.460574
874.921834,6957.935855,3923.091493,-10418.898773
874.922153,6883.915261,3775.050304,-10648.727422
874.922473,5033.400406,4145.153275,-10112.460574
874.922793,3330.926739,3256.906145,-10648.727422
874.923113,2738.761985,1998.556043,-9959.241474
874.923433,518.144159,74.020594,-9882.631924
874.923753,-2294.638420,-666.185348,-9652.803275
874.924073,-3701.029710,-1480.411884,-9346.365076
874.924393,-3997.112087,-592.164754,-9576.193725
874.924713,-814.226536,-518.144159,-9422.974625
874.925033,3108.864956,0.000000,-9116.536426
874.925353,4737.318029,1406.391290,-9959.241474
874.925673,3775.050304,3034.844362,-9652.803275
874.925993,3701.029710,4959.379811,-10112.460574
874.926313,5403.503377,5847.626942,-10878.556072
874.926633,6143.709319,5255.462188,-10801.946522
874.926953,4145.153275,3404.947333,-10572.117872
874.927273,296.082377,1628.453072,-10189.070123
874.927593,-1702.473667,518.144159,-9806.022374
874.927912,-1628.453072,962.267725,-10418.898773
874.928232,-1406.391290,1110.308913,-9806.022374
874.928552,-1850.514855,1332.370696,-9729.412825
874.928872,-1036.288319,1110.308913,-10035.851024
874.929192,3404.947333,1332.370696,-9882.631924
874.929512,6661.853478,3182.885551,-11108.384721
874.929832,7179.997637,5847.626942,-11031.775171
874.930152,5403.503377,7550.100608,-10418.898773
874.930472,5107.421000,7550.100608,-10955.165621
874.930792,6365.771101,6365.771101,-11031.775171
874.931112,5403.503377,4589.276840,-10265.679673
874.931432,2072.576638,3256.906145,-10265.679673
874.931752,0.000000,2146.597232,-10189.070123
874.932072,148.041188,2072.576638,-9806.022374
874.932392,222.061783,1924.535449,-10035.851024
874.932712,-296.082377,1850.514855,-9269.755526
874.933032,888.247130,2442.679609,-9422.974625
874.933352,4441.235652,3182.885551,-9499.584175
874.933672,6291.750507,4219.173869,-9806.022374
874.933991,6587.832884,5033.400406,-9806.022374
874.934311,6439.791695,6069.688724,-9576.193725
874.934631,7476.080014,5551.544565,-10189.070123
874.934951,5699.585753,4219.173869,-10189.070123
874.935271,2442.679609,3552.988522,-9652.803275
874.935591,0.000000,2812.782580,-9576.193725
874.935911,-1036.288319,2220.617826,-9576.193725
874.936231,-2664.741391,1850.514855,-8886.707777
874.936551,-3478.967927,1110.308913,-9116.536426
874.936871,-1332.370696,148.041188,-8886.707777
874.937191,1480.411884,74.020594,-9882.631924
874.937511,3034.844362,1110.308913,-9959.241474
874.937831,3997.112087,3552.988522,-10112.460574
874.938151,5107.421000,5551.544565,-10801.946522
874.938471,5921.647536,6809.894666,-10955.165621
874.938791,4737.318029,7402.059420,-11491.432470
874.939111,2516.700203,5625.565159,-11797.870669
874.939431,-1036.288319,2960.823768,-10265.679673
874.939751,-1332.370696,0.000000,-10189.070123
874.940070,-1110.308913,-666.185348,-9806.022374
874.940390,-1554.432478,-1628.453072,-10418.898773
874.940710,-2516.700203,-1406.391290,-9576.193725
874.941030,-2220.617826,0.000000,-9806.022374
874.941350,1406.391290,1702.473667,-9959.241474
874.941670,3034.844362,4367.215058,-10495.508323
874.941990,3775.050304,5329.482782,-10495.508323
874.942310,4811.338623,4885.359217,-10418.898773
874.942630,5847.626942,3034.844362,-9959.241474
874.942950,4071.132681,1406.391290,-9806.022374
874.943270,1924.535449,-592.164754,-10342.289223
874.943590,740.205942,-1480.411884,-9576.193725
874.943910,-370.102971,-1702.473667,-8886.707777
874.944230,-1110.308913,-592.164754,-9499.584175
874.944550,-666.185348,370.102971,-9422.974625
874.944870,-1036.288319,1258.350101,-9499.584175
874.945190,1258.350101,888.247130,-9882.631924
874.945510,3034.844362,888.247130,-11108.384721
874.945829,4145.153275,222.061783,-9729.412825
874.946149,4737.318029,592.164754,-9959.241474
874.946469,4811.338623,814.226536,-10265.679673
874.946789,3997.112087,1036.288319,-9806.022374
874.947109,2368.659014,1332.370696,-10648.727422
874.947429,-1702.473667,740.205942,-10418.898773
874.947749,-1332.370696,1258.350101,-9882.631924
874.948069,-518.144159,74.020594,-11338.213370
874.948389,0.000000,-2960.823768,-10189.070123
874.948709,-3182.885551,-3997.112087,-10112.460574
874.949029,-2886.803174,-3923.091493,-10035.851024
874.949349,-814.226536,-1480.411884,-10418.898773
874.949669,2516.700203,2664.741391,-10955.165621
874.949989,3997.112087,4589.276840,-11414.822920
874.950309,4441.235652,4441.235652,-11568.042020
874.950629,5033.400406,2146.597232,-10801.946522
874.950949,3849.070898,222.061783,-11644.651570
874.951269,1702.473667,-1480.411884,-11568.042020
874.951589,-2220.617826,-2072.576638,-9882.631924
874.951908,-5847.626942,-1628.453072,-9959.241474
874.952228,-5477.523971,-1480.411884,-9576.193725
874.952548,-3256.906145,-1332.370696,-9729.412825
874.952868,0.000000,-1480.411884,-9959.241474
874.953188,888.247130,-1406.391290,-10189.070123
874.953508,1998.556043,-1406.391290,-9499.584175
874.953828,2886.803174,-814.226536,-9346.365076
874.954148,3627.009116,148.041188,-9959.241474
874.954468,3478.967927,666.185348,-9422.974625
874.954788,1628.453072,1258.350101,-9882.631924
874.955108,1184.329507,1554.432478,-10189.070123
874.955428,1184.329507,-148.041188,-9269.755526
874.955748,-592.164754,-888.247130,-9882.631924
874.956068,-1702.473667,-1850.514855,-10189.070123
874.956388,-2590.720797,-1406.391290,-8656.879127
874.956708,-2886.803174,-740.205942,-10112.460574
