#time,accel_x,accel_y,accel_z
937.187056,518.144159,148.041188,-10035.851024
937.187376,296.082377,296.082377,-10189.070123
937.187696,592.164754,370.102971,-9882.631924
937.188016,740.205942,518.144159,-9959.241474
937.188336,814.226536,444.123565,-10112.460574
937.188656,518.144159,444.123565,-9806.022374
937.188975,222.061783,222.061783,-9959.241474
937.189295,444.123565,-296.082377,-10112.460574
937.189615,740.205942,-222.061783,-10112.460574
937.189935,518.144159,74.020594,-8886.707777
937.190255,-444.123565,74.020594,-10189.070123
937.190575,0.000000,148.041188,-10189.070123
937.190895,740.205942,444.123565,-10265.679673
937.191215,1036.288319,296.082377,-10342.289223
937.191535,0.000000,222.061783,-9806.022374
937.191855,-222.061783,-222.061783,-10035.851024
937.192175,444.123565,-148.041188,-10112.460574
937.192495,740.205942,0.000000,-10112.460574
937.192815,370.102971,74.020594,-9576.193725
937.193135,-222.061783,-740.205942,-9882.631924
937.193455,-296.082377,-888.247130,-10265.679673
937.193775,-148.041188,-592.164754,-9959.241474
937.194094,-666.185348,-518.144159,-10035.851024
937.194414,-592.164754,-1332.370696,-9806.022374
937.194734,-592.164754,-740.205942,-10189.070123
937.195054,-222.061783,-962.267725,-9959.241474
937.195374,-888.247130,-1258.350101,-9882.631924
937.195694,-1036.288319,-1776.494261,-9806.022374
937.196014,-592.164754,-1850.514855,-10035.851024
937.196334,-296.082377,-1628.453072,-9729.412825
937.196654,-1406.391290,-1776.494261,-10189.070123
937.196974,-2072.576638,-2294.638420,-9882.631924
937.197294,-1702.473667,-2368.659014,-9806.022374
937.197614,-666.185348,-1924.535449,-9806.022374
937.197934,-1036.288319,-1258.350101,-9806.022374
937.198254,-2146.597232,-1332.370696,-10035.851024
937.198574,-1480.411884,-1554.432478,-9959.241474
937.198893,-888.247130,-1554.432478,-10112.460574
937.199213,-296.082377,-962.267725,-10189.070123
937.199533,-1184.329507,-1258.350101,-10342.289223
937.199853,-2664.741391,-2294.638420,-10342.289223
937.200173,-2590.720797,-3108.864956,-9729.412825
937.200493,-1776.494261,-3552.988522,-10035.851024
937.200813,-1850.514855,-3108.864956,-9959.241474
937.201133,-2442.679609,-3034.844362,-10189.070123
937.201453,-2146.597232,-2368.659014,-9652.803275
937.201773,-1480.411884,-1924.535449,-10112.460574
937.202093,148.041188,-1036.288319,-10418.898773
937.202413,814.226536,-518.144159,-10495.508323
937.202733,-518.144159,0.000000,-11261.603821
937.203053,-1998.556043,-1036.288319,-10342.289223
937.203373,-2738.761985,-1998.556043,-10189.070123
937.203693,-3849.070898,-2664.741391,-10035.851024
937.204012,-5255.462188,-3775.050304,-9806.022374
937.204332,-4885.359217,-4885.359217,-9193.145976
937.204652,-2812.782580,-5477.523971,-9652.803275
937.204972,-740.205942,-4589.276840,-9806.022374
937.205292,444.123565,-2590.720797,-10112.460574
937.205612,592.164754,-148.041188,-9269.755526
937.205932,1258.350101,1184.329507,-10265.679673
937.206252,1776.494261,1850.514855,-10418.898773
937.206572,2146.597232,1110.308913,-10342.289223
937.206892,962.267725,-740.205942,-10342.289223
937.207212,-814.226536,-2368.659014,-9729.412825
937.207532,-2516.700203,-3997.112087,-9652.803275
937.207852,-4441.235652,-4441.235652,-9806.022374
937.208172,-5403.503377,-5033.400406,-9193.145976
937.208492,-4737.318029,-5403.503377,-8810.098227
937.208811,-1702.473667,-5847.626942,-9499.584175
937.209131,444.123565,-4219.173869,-9882.631924
937.209451,1702.473667,-1110.308913,-10418.898773
937.209771,2294.638420,2220.617826,-10572.117872
937.210091,3849.070898,4071.132681,-10955.165621
937.210411,4663.297435,4441.235652,-11491.432470
937.210731,1998.556043,2664.741391,-11414.822920
937.211051,-2368.659014,-444.123565,-10725.336972
937.211371,-5625.565159,-3552.988522,-10112.460574
937.211691,-5921.647536,-6069.688724,-9729.412825
937.212011,-4959.379811,-6809.894666,-9882.631924
937.212331,-4515.256246,-5921.647536,-9729.412825
937.212651,-3849.070898,-3775.050304,-9116.536426
937.212971,-1332.370696,-962.267725,-9882.631924
937.213291,1184.329507,2294.638420,-10572.117872
937.213611,2220.617826,4367.215058,-10801.946522
937.213930,2368.659014,4071.132681,-10189.070123
937.214250,3552.988522,1702.473667,-10265.679673
937.214570,2738.761985,-518.144159,-10189.070123
937.214890,-222.061783,-1998.556043,-10112.460574
937.215210,-3404.947333,-2886.803174,-9193.145976
937.215530,-4885.359217,-2960.823768,-9269.755526
937.215850,-5551.544565,-3478.967927,-9576.193725
937.216170,-6735.874072,-4737.318029,-9193.145976
937.216490,-6587.832884,-6735.874072,-8733.488677
937.216810,-4071.132681,-6587.832884,-8810.098227
937.217130,148.041188,-4737.318029,-9346.365076
937.217450,3256.906145,-962.267725,-9959.241474
937.217770,3701.029710,2368.659014,-10418.898773
937.218090,2516.700203,4219.173869,-10495.508323
937.218410,1554.432478,4959.379811,-10955.165621
937.218730,1998.556043,2072.576638,-11108.384721
937.219049,666.185348,-1480.411884,-10648.727422
937.219369,-2886.803174,-4441.235652,-10801.946522
937.219689,-5995.668130,-5995.668130,-10189.070123
937.220009,-8068.244768,-4515.256246,-9806.022374
937.220329,-9030.512492,-3552.988522,-9806.022374
937.220649,-6957.935855,-3701.029710,-9576.193725
937.220969,-1998.556043,-4219.173869,-9576.193725
937.221289,2590.720797,-3552.988522,-10265.679673
937.221609,2960.823768,-2146.597232,-10572.117872
937.221929,3330.926739,444.123565,-10495.508323
937.222249,3034.844362,2664.741391,-10495.508323
937.222569,3923.091493,3701.029710,-10648.727422
937.222889,2220.617826,2664.741391,-10342.289223
937.223209,-1332.370696,0.000000,-10572.117872
937.223529,-5107.421000,-4071.132681,-9806.022374
937.223848,-7402.059420,-7179.997637,-9576.193725
937.224168,-6883.915261,-8586.388927,-8503.660028
937.224488,-5625.565159,-9178.553681,-9269.755526
937.224808,-4663.297435,-7994.224174,-9193.145976
937.225128,-3627.009116,-4589.276840,-9269.755526
937.225448,-1184.329507,0.000000,-10189.070123
937.225768,2664.741391,2960.823768,-10035.851024
937.226088,5847.626942,3404.947333,-11491.432470
937.226408,4811.338623,1628.453072,-11491.432470
937.226728,962.267725,-666.185348,-9959.241474
937.227048,-2960.823768,-2442.679609,-10265.679673
937.227368,-2368.659014,-3478.967927,-9882.631924
937.227688,-3478.967927,-3775.050304,-10265.679673
937.228008,-6291.750507,-4515.256246,-10265.679673
937.228328,-8290.306550,-6883.915261,-9116.536426
937.228648,-7031.956449,-6735.874072,-9193.145976
937.228967,-2516.700203,-4737.318029,-9729.412825
937.229287,0.000000,-2368.659014,-10342.289223
937.229607,-518.144159,-1036.288319,-10265.679673
937.229927,-1332.370696,148.041188,-9576.193725
937.230247,2368.659014,222.061783,-10035.851024
937.230567,5033.400406,370.102971,-10725.336972
937.230887,4515.256246,1480.411884,-10878.556072
937.231207,1332.370696,296.082377,-11721.261119
937.231527,-1184.329507,-1702.473667,-10265.679673
937.231847,-3701.029710,-3108.864956,-10648.727422
937.232167,-6735.874072,-3997.112087,-9576.193725
937.232487,-7624.121203,-4737.318029,-9422.974625
937.232807,-5847.626942,-4145.153275,-8886.707777
937.233127,-2590.720797,-4071.132681,-9499.584175
937.233447,-296.082377,-3182.885551,-9806.022374
937.233766,1184.329507,-1776.494261,-9652.803275
937.234086,2738.761985,0.000000,-10495.508323
937.234406,3034.844362,814.226536,-10418.898773
937.234726,1998.556043,2960.823768,-10495.508323
937.235046,1628.453072,1924.535449,-10572.117872
937.235366,1850.514855,0.000000,-10801.946522
937.235686,148.041188,-814.226536,-9882.631924
937.236006,-3923.091493,-3404.947333,-10035.851024
937.236326,-6069.688724,-4071.132681,-9346.365076
937.236646,-5773.606348,-4737.318029,-9806.022374
937.236966,-4071.132681,-4441.235652,-8886.707777
937.237286,-3108.864956,-3256.906145,-9422.974625
937.237606,-814.226536,-3330.926739,-9652.803275
937.237926,-222.061783,-3552.988522,-10112.460574
937.238246,2072.576638,-1184.329507,-9882.631924
937.238566,1850.514855,2368.659014,-10801.946522
937.238885,444.123565,3627.009116,-10342.289223
937.239205,-592.164754,4367.215058,-10265.679673
937.239525,0.000000,0.000000,-10418.898773
937.239845,814.226536,-1480.411884,-11184.994271
937.240165,-1036.288319,-5033.400406,-10265.679673
937.240485,-2886.803174,-4663.297435,-9959.241474
937.240805,-4737.318029,-3330.926739,-9422.974625
937.241125,-5255.462188,-1554.432478,-11261.603821
937.241445,-4219.173869,-1110.308913,-9806.022374
937.241765,-2590.720797,-1776.494261,-10265.679673
937.242085,-222.061783,-1776.494261,-9959.241474
937.242405,1702.473667,-2442.679609,-10572.117872
937.242725,2812.782580,-1184.329507,-9959.241474
937.243045,-1332.370696,444.123565,-10801.946522
937.243365,222.061783,1776.494261,-9882.631924
937.243685,-296.082377,1406.391290,-10418.898773
937.244005,-1110.308913,962.267725,-10189.070123
937.244324,-3775.050304,-3034.844362,-9806.022374
937.244644,-3034.844362,-6217.729913,-9652.803275
937.244964,-3701.029710,-5995.668130,-9039.926876
937.245284,-5033.400406,-4515.256246,-9729.412825
937.245604,-2738.761985,-4367.215058,-9039.926876
937.245924,-74.020594,-3478.967927,-8963.317327
937.246244,888.247130,-962.267725,-10801.946522
937.246564,0.000000,0.000000,-10112.460574
937.246884,296.082377,296.082377,-9959.241474
937.247204,296.082377,518.144159,-10801.946522
937.247524,444.123565,-592.164754,-10189.070123
937.247844,592.164754,-1110.308913,-10495.508323
937.248164,-2146.597232,-3404.947333,-10342.289223
937.248484,-4737.318029,-4959.379811,-9806.022374
937.248804,-5329.482782,-4959.379811,-9882.631924
937.249124,-3552.988522,-3108.864956,-9959.241474
937.249443,-2368.659014,-2738.761985,-9576.193725
937.249763,-2368.659014,-2960.823768,-10572.117872
937.250083,-3775.050304,-3256.906145,-9499.584175
937.250403,-3849.070898,-2220.617826,-10035.851024
937.250723,-1110.308913,-370.102971,-10342.289223
937.251043,-148.041188,1332.370696,-10342.289223
937.251363,2294.638420,296.082377,-10648.727422
937.251683,1924.535449,-1702.473667,-10495.508323
937.252003,962.267725,-3552.988522,-9959.241474
937.252323,-1036.288319,-3627.009116,-9806.022374
937.252643,-3330.926739,-888.247130,-10265.679673
937.252963,-4145.153275,-370.102971,-9729.412825
937.253283,-1480.411884,-2368.659014,-10189.070123
937.253603,-666.185348,-3478.967927,-9652.803275
937.253923,-2368.659014,-5995.668130,-9116.536426
937.254243,-3256.906145,-4811.338623,-8656.879127
937.254562,2072.576638,-3552.988522,-9806.022374
937.254882,3923.091493,-444.123565,-10112.460574
937.255202,1924.535449,3034.844362,-10035.851024
937.255522,-1184.329507,2294.638420,-10418.898773
937.255842,-2220.617826,1628.453072,-10265.679673
937.256162,-666.185348,370.102971,-10035.851024
937.256482,-1406.391290,-3849.070898,-10112.460574
937.256802,-1850.514855,-2590.720797,-8580.269578
937.257122,-1554.432478,-5181.441594,-10189.070123
937.257442,666.185348,-5921.647536,-9193.145976
937.257762,-148.041188,-3552.988522,-9499.584175
937.258082,0.000000,148.041188,-11108.384721
937.258402,444.123565,1628.453072,-10265.679673
937.258722,3404.947333,888.247130,-10648.727422
937.259042,2516.700203,3108.864956,-10342.289223
937.259362,1554.432478,3627.009116,-11108.384721
937.259682,1998.556043,2368.659014,-12027.699319
937.260001,2220.617826,1110.308913,-10265.679673
937.260321,2368.659014,0.000000,-10648.727422
937.260641,888.247130,666.185348,-10418.898773
937.260961,518.144159,2220.617826,-10955.165621
937.261281,-1480.411884,962.267725,-11108.384721
937.261601,-3552.988522,-1036.288319,-9576.193725
937.261921,-2516.700203,-1332.370696,-9729.412825
937.262241,-666.185348,-2738.761985,-9499.584175
937.262561,2442.679609,-3108.864956,-9422.974625
937.262881,3404.947333,-296.082377,-9806.022374
937.263201,740.205942,888.247130,-9729.412825
937.263521,1406.391290,2220.617826,-9806.022374
937.263841,3256.906145,740.205942,-9882.631924
937.264161,3404.947333,-222.061783,-10189.070123
937.264481,1776.494261,1036.288319,-10342.289223
937.264801,-2072.576638,2294.638420,-9882.631924
937.265120,-3404.947333,1110.308913,-10495.508323
937.265440,-2516.700203,740.205942,-9346.365076
937.265760,-222.061783,-148.041188,-10725.336972
937.266080,296.082377,0.000000,-9806.022374
937.266400,-1480.411884,-1924.535449,-10265.679673
937.266720,-1184.329507,-1850.514855,-9959.241474
937.267040,518.144159,2442.679609,-9806.022374
937.267360,-518.144159,4589.276840,-10725.336972
937.267680,0.000000,4811.338623,-10878.556072
937.268000,1554.432478,2886.803174,-10342.289223
937.268320,1628.453072,592.164754,-10342.289223
937.268640,666.185348,1258.350101,-10418.898773
937.268960,1110.308913,1998.556043,-10648.727422
937.269280,0.000000,3034.844362,-10878.556072
937.269600,-2368.659014,-148.041188,-9729.412825
937.269920,-3108.864956,-2220.617826,-9269.755526
937.270239,-2516.700203,-2590.720797,-9806.022374
937.270559,592.164754,-888.247130,-10342.289223
937.270879,1998.556043,1850.514855,-9806.022374
937.271199,2442.679609,1776.494261,-10035.851024
937.271519,2220.617826,3034.844362,-9576.193725
937.271839,5255.462188,2072.576638,-10265.679673
937.272159,5329.482782,1184.329507,-10878.556072
937.272479,2146.597232,148.041188,-9269.755526
937.272799,-222.061783,740.205942,-9806.022374
937.273119,296.082377,-592.164754,-9806.022374
937.273439,962.267725,-74.020594,-9039.926876
937.273759,0.000000,-1924.535449,-9882.631924
937.274079,1776.494261,-1332.370696,-9269.755526
937.274399,3034.844362,740.205942,-10035.851024
937.274719,4145.153275,1480.411884,-10572.117872
937.275039,4293.194464,2886.803174,-9806.022374
937.275359,1332.370696,1924.535449,-9422.974625
937.275678,0.000000,962.267725,-9346.365076
937.275998,1776.494261,-370.102971,-10112.460574
937.276318,2960.823768,370.102971,-10495.508323
937.276638,2368.659014,-74.020594,-10572.117872
937.276958,814.226536,-1554.432478,-10189.070123
937.277278,-1184.329507,-2072.576638,-9882.631924
937.277598,-1702.473667,-1776.494261,-10495.508323
937.277918,-1702.473667,-740.205942,-10418.898773
937.278238,-1036.288319,0.000000,-9882.631924
937.278558,-666.185348,814.226536,-10265.679673
937.278878,-1332.370696,444.123565,-10725.336972
937.279198,-1628.453072,-1184.329507,-10648.727422
937.279518,-444.123565,-2442.679609,-9806.022374
937.279838,296.082377,-2886.803174,-10189.070123
937.280158,1332.370696,-1554.432478,-10265.679673
937.280478,222.061783,518.144159,-10648.727422
937.280797,-2220.617826,-222.061783,-10342.289223
937.281117,-3330.926739,-1184.329507,-9576.193725
937.281437,-4367.215058,-1480.411884,-9959.241474
937.281757,-3849.070898,-1036.288319,-9882.631924
937.282077,-1406.391290,-1998.556043,-9652.803275
937.282397,0.000000,-3627.009116,-10878.556072
937.282717,444.123565,-1628.453072,-8963.317327
937.283037,0.000000,888.247130,-9959.241474
937.283357,-444.123565,2368.659014,-9806.022374
937.283677,1480.411884,1924.535449,-9806.022374
937.283997,148.041188,296.082377,-10648.727422
937.284317,1036.288319,-1924.535449,-9806.022374
937.284637,296.082377,-3108.864956,-9729.412825
937.284957,-592.164754,-2516.700203,-9576.193725
937.285277,-1554.432478,888.247130,-10112.460574
937.285597,-518.144159,2516.700203,-10342.289223
937.285916,1850.514855,1554.432478,-10265.679673
937.286236,1776.494261,-296.082377,-10189.070123
937.286556,1924.535449,-1702.473667,-10112.460574
937.286876,1702.473667,-3108.864956,-10648.727422
937.287196,1184.329507,-1850.514855,-9806.022374
937.287516,666.185348,444.123565,-10495.508323
937.287836,2146.597232,2368.659014,-10801.946522
937.288156,3034.844362,2294.638420,-10572.117872
937.288476,4293.194464,1702.473667,-11031.775171
937.288796,4293.194464,1184.329507,-10418.898773
937.289116,2442.679609,962.267725,-11031.775171
937.289436,1480.411884,444.123565,-10265.679673
937.289756,1332.370696,-222.061783,-9959.241474
937.290076,222.061783,-814.226536,-9806.022374
937.290396,-296.082377,-370.102971,-9806.022374
937.290716,0.000000,0.000000,-9576.193725
937.291036,74.020594,2146.597232,-10112.460574
937.291355,1036.288319,2072.576638,-10418.898773
937.291675,2812.782580,518.144159,-9652.803275
937.291995,4515.256246,148.041188,-9729.412825
937.292315,3256.906145,-444.123565,-10342.289223
937.292635,1332.370696,-888.247130,-9806.022374
937.292955,-296.082377,2516.700203,-9882.631924
937.293275,0.000000,4811.338623,-9729.412825
937.293595,666.185348,4811.338623,-10572.117872
937.293915,1776.494261,740.205942,-9959.241474
937.294235,1480.411884,-2590.720797,-10035.851024
937.294555,0.000000,-4885.359217,-9039.926876
937.294875,-666.185348,-3404.947333,-9576.193725
937.295195,-2368.659014,74.020594,-9882.631924
937.295515,-1332.370696,2664.741391,-10035.851024
937.295835,-1998.556043,3404.947333,-10955.165621
937.296155,-1258.350101,1776.494261,-10878.556072
937.296474,518.144159,2590.720797,-10495.508323
937.296794,-444.123565,4441.235652,-10495.508323
937.297114,0.000000,6069.688724,-11031.775171
937.297434,888.247130,5329.482782,-10572.117872
937.297754,2738.761985,2960.823768,-11338.213370
937.298074,1924.535449,-1480.411884,-9269.755526
937.298394,-2294.638420,-4145.153275,-9806.022374
937.298714,-3701.029710,-2960.823768,-8963.317327
937.299034,-2516.700203,-888.247130,-9116.536426
937.299354,74.020594,2442.679609,-10342.289223
937.299674,1184.329507,3849.070898,-10265.679673
937.299994,0.000000,2146.597232,-10648.727422
937.300314,-1110.308913,2146.597232,-10265.679673
937.300634,-148.041188,962.267725,-9806.022374
937.300954,1924.535449,370.102971,-9959.241474
937.301274,2738.761985,148.041188,-9959.241474
937.301593,-296.082377,-518.144159,-10495.508323
937.301913,-2442.679609,-2294.638420,-8963.317327
937.302233,-222.061783,-2146.597232,-9269.755526
937.302553,3701.029710,0.000000,-9346.365076
937.302873,4737.318029,2146.597232,-10495.508323
937.303193,3849.070898,2886.803174,-10878.556072
937.303513,-148.041188,1406.391290,-9422.974625
937.303833,-2146.597232,-1924.535449,-9729.412825
937.304153,-1036.288319,-3182.885551,-9116.536426
937.304473,1258.350101,-666.185348,-9806.022374
937.304793,3034.844362,962.267725,-10648.727422
937.305113,3997.112087,1406.391290,-10418.898773
937.305433,1998.556043,74.020594,-10342.289223
937.305753,370.102971,2146.597232,-10189.070123
937.306073,-1332.370696,2368.659014,-10112.460574
937.306393,1110.308913,0.000000,-10342.289223
937.306713,4219.173869,-1110.308913,-9499.584175
937.307032,1924.535449,-2738.761985,-10265.679673
937.307352,1776.494261,-3034.844362,-9882.631924
937.307672,1406.391290,-1776.494261,-9959.241474
937.307992,2664.741391,0.000000,-10648.727422
937.308312,2368.659014,2960.823768,-10572.117872
937.308632,740.205942,3034.844362,-10265.679673
937.308952,592.164754,74.020594,-11184.994271
937.309272,0.000000,-2072.576638,-10189.070123
937.309592,-1554.432478,-3775.050304,-9882.631924
937.309912,-1702.473667,-1406.391290,-10265.679673
937.310232,-518.144159,148.041188,-10189.070123
937.310552,-296.082377,2146.597232,-11108.384721
937.310872,-1258.350101,1184.329507,-10418.898773
937.311192,-1702.473667,-1036.288319,-10418.898773
937.311512,-1184.329507,-2146.597232,-9499.584175
937.311832,740.205942,-1702.473667,-9806.022374
937.312151,888.247130,-518.144159,-10878.556072
937.312471,-666.185348,1036.288319,-9882.631924
937.312791,-2516.700203,370.102971,-9422.974625
937.313111,-1924.535449,0.000000,-9193.145976
937.313431,-1036.288319,666.185348,-9959.241474
937.313751,0.000000,1332.370696,-10725.336972
937.314071,1184.329507,1406.391290,-10112.460574
937.314391,1776.494261,0.000000,-10342.289223
937.314711,1554.432478,0.000000,-9806.022374
937.315031,-296.082377,1628.453072,-9806.022374
937.315351,-2368.659014,1776.494261,-9346.365076
937.315671,-3478.967927,1480.411884,-9039.926876
937.315991,-962.267725,1924.535449,-9959.241474
937.316311,2368.659014,592.164754,-10112.460574
937.316631,3330.926739,74.020594,-10189.070123
937.316951,2516.700203,-1554.432478,-10265.679673
937.317271,518.144159,-1110.308913,-9729.412825
937.317590,518.144159,1184.329507,-9806.022374
937.317910,1480.411884,2960.823768,-10035.851024
937.318230,1924.535449,2368.659014,-10955.165621
937.318550,2220.617826,1110.308913,-10112.460574
937.318870,1702.473667,-1406.391290,-10418.898773
937.319190,1850.514855,-2072.576638,-9882.631924
937.319510,2442.679609,962.267725,-9729.412825
937.319830,3034.844362,3330.926739,-10878.556072
937.320150,2220.617826,4663.297435,-10035.851024
937.320470,814.226536,4219.173869,-10495.508323
937.320790,592.164754,1036.288319,-9729.412825
937.321110,1554.432478,-2516.700203,-9576.193725
937.321430,2960.823768,370.102971,-9882.631924
937.321750,2442.679609,1628.453072,-9959.241474
937.322070,2738.761985,2886.803174,-10265.679673
937.322390,3182.885551,1332.370696,-10725.336972
937.322709,3182.885551,-888.247130,-10189.070123
937.323029,-444.123565,-592.164754,-9959.241474
937.323349,-1850.514855,2442.679609,-9729.412825
937.323669,-2220.617826,5847.626942,-10189.070123
937.323989,2812.782580,5033.400406,-10495.508323
937.324309,2812.782580,2664.741391,-10648.727422
937.324629,1998.556043,-1036.288319,-10648.727422
937.324949,-888.247130,-3552.988522,-9729.412825
937.325269,-1406.391290,-4219.173869,-9806.022374
937.325589,0.000000,-2664.741391,-8963.317327
937.325909,-962.267725,0.000000,-10112.460574
937.326229,-3108.864956,1998.556043,-10725.336972
937.326549,-6069.688724,1110.308913,-9959.241474
937.326869,-4811.338623,-888.247130,-10572.117872
937.327189,-1332.370696,-1776.494261,-9576.193725
937.327509,1258.350101,-1036.288319,-9959.241474
937.327828,1184.329507,1554.432478,-10189.070123
937.328148,-740.205942,2220.617826,-11951.089769
937.328468,-962.267725,2738.761985,-9959.241474
937.328788,1628.453072,2146.597232,-10572.117872
937.329108,2664.741391,740.205942,-9806.022374
937.329428,444.123565,-518.144159,-9806.022374
937.329748,-444.123565,-1850.514855,-10342.289223
937.330068,74.020594,-2590.720797,-9422.974625
937.330388,296.082377,-148.041188,-10648.727422
937.330708,-1480.411884,3256.906145,-10648.727422
937.331028,-2220.617826,5551.544565,-10648.727422
937.331348,-1258.350101,4959.379811,-10725.336972
937.331668,1332.370696,2146.597232,-10572.117872
937.331988,3034.844362,-296.082377,-10035.851024
937.332308,1924.535449,-3034.844362,-10572.117872
937.332628,2590.720797,-4219.173869,-8963.317327
937.332948,3404.947333,-2516.700203,-10035.851024
937.333267,3256.906145,-518.144159,-10035.851024
937.333587,1776.494261,1332.370696,-10265.679673
937.333907,148.041188,2590.720797,-10189.070123
937.334227,-148.041188,2738.761985,-9959.241474
937.334547,296.082377,222.061783,-10495.508323
937.334867,2590.720797,-2220.617826,-9576.193725
937.335187,2590.720797,-2812.782580,-9806.022374
937.335507,962.267725,-3330.926739,-9269.755526
937.335827,2738.761985,-1702.473667,-9806.022374
937.336147,3256.906145,296.082377,-10112.460574
937.336467,3997.112087,2590.720797,-9806.022374
937.336787,4589.276840,4071.132681,-10495.508323
937.337107,962.267725,4737.318029,-10112.460574
937.337427,148.041188,1480.411884,-10572.117872
937.337747,592.164754,-1628.453072,-10265.679673
937.338067,666.185348,-1850.514855,-9576.193725
937.338386,-370.102971,-1554.432478,-10035.851024
937.338706,0.000000,-740.205942,-9499.584175
937.339026,-888.247130,1110.308913,-10418.898773
937.339346,518.144159,2886.803174,-10189.070123
937.339666,296.082377,2812.782580,-11108.384721
937.339986,-592.164754,1480.411884,-10189.070123
937.340306,-1184.329507,-444.123565,-10189.070123
937.340698,2072.576638,-1110.308913,-10648.727422
937.341018,518.144159,888.247130,-10189.070123
937.341338,-518.144159,2516.700203,-10648.727422
937.341658,-2442.679609,2738.761985,-10648.727422
937.341978,-3552.988522,1258.350101,-10495.508323
937.342297,-296.082377,444.123565,-10418.898773
937.342617,592.164754,296.082377,-10035.851024
937.342937,370.102971,-296.082377,-10112.460574
937.343257,-888.247130,-1480.411884,-10801.946522
937.343577,-148.041188,1258.350101,-9576.193725
937.343897,-814.226536,3404.947333,-10572.117872
937.344217,-1258.350101,4367.215058,-9729.412825
937.344537,-1036.288319,1776.494261,-10648.727422
937.344857,296.082377,-1184.329507,-9269.755526
937.345177,74.020594,-740.205942,-9576.193725
937.345497,0.000000,74.020594,-9959.241474
937.345817,-962.267725,2368.659014,-10035.851024
937.346137,-740.205942,2368.659014,-10112.460574
937.346457,-2368.659014,1998.556043,-9499.584175
937.346777,-3108.864956,-370.102971,-9652.803275
937.347096,0.000000,-370.102971,-9116.536426
937.347416,0.000000,-148.041188,-10035.851024
937.347736,740.205942,-666.185348,-9806.022374
937.348056,2516.700203,592.164754,-9729.412825
937.348376,2960.823768,1110.308913,-10495.508323
937.348696,3034.844362,370.102971,-9806.022374
937.349016,1332.370696,1554.432478,-10342.289223
937.349336,370.102971,1332.370696,-10342.289223
937.349656,-370.102971,1332.370696,-10035.851024
937.349976,1110.308913,74.020594,-10572.117872
937.350296,1110.308913,-1702.473667,-9729.412825
937.350616,444.123565,-2294.638420,-9882.631924
937.350936,962.267725,-1924.535449,-10035.851024
937.351256,3849.070898,-148.041188,-10342.289223
937.351576,5551.544565,1628.453072,-10648.727422
937.351895,4145.153275,2960.823768,-10035.851024
937.352215,1702.473667,2368.659014,-11184.994271
937.352535,148.041188,-1036.288319,-9806.022374
937.352855,592.164754,-2146.597232,-10189.070123
937.353175,1332.370696,-2220.617826,-9882.631924
937.353495,1184.329507,-2368.659014,-9882.631924
937.353815,888.247130,-592.164754,-10342.289223
937.354135,740.205942,-666.185348,-9806.022374
937.354455,1628.453072,1036.288319,-10648.727422
937.354775,148.041188,1258.350101,-10801.946522
937.355095,-888.247130,1332.370696,-10572.117872
937.355415,-814.226536,1480.411884,-10035.851024
937.355735,-1184.329507,1406.391290,-10342.289223
937.356055,-1480.411884,1554.432478,-10342.289223
937.356375,-444.123565,370.102971,-10189.070123
937.356694,1406.391290,-1184.329507,-10342.289223
937.357014,1850.514855,-1702.473667,-9882.631924
937.357334,1184.329507,-2368.659014,-9499.584175
937.357654,-222.061783,-1628.453072,-10265.679673
937.357974,-3108.864956,0.000000,-9576.193725
937.358294,-2960.823768,888.247130,-10495.508323
937.358614,-2146.597232,962.267725,-8963.317327
937.358934,-148.041188,370.102971,-9806.022374
937.359254,3478.967927,370.102971,-10342.289223
937.359574,3108.864956,518.144159,-9499.584175
937.359894,-222.061783,74.020594,-9806.022374
937.360214,-3404.947333,-148.041188,-8963.317327
937.360534,-1850.514855,-222.061783,-9269.755526
937.360854,0.000000,0.000000,-9652.803275
937.361173,740.205942,-222.061783,-9193.145976
937.361493,1702.473667,222.061783,-9806.022374
937.361813,1628.453072,0.000000,-9499.584175
937.362133,1036.288319,-518.144159,-10801.946522
937.362453,1036.288319,-296.082377,-10801.946522
937.362773,1332.370696,1924.535449,-9806.022374
937.363093,0.000000,3701.029710,-10878.556072
937.363413,1036.288319,5403.503377,-11108.384721
937.363733,222.061783,3404.947333,-11261.603821
937.364053,1776.494261,888.247130,-10648.727422
937.364373,1702.473667,-1480.411884,-10342.289223
937.364693,1998.556043,-2664.741391,-10035.851024
937.365013,1924.535449,-888.247130,-9959.241474
937.365333,1258.350101,1258.350101,-10495.508323
937.365653,814.226536,2886.803174,-10342.289223
937.365972,814.226536,1924.535449,-10495.508323
937.366292,666.185348,1406.391290,-9806.022374
937.366612,0.000000,740.205942,-10035.851024
937.366932,888.247130,888.247130,-9959.241474
937.367252,3182.885551,-444.123565,-10112.460574
937.367572,3108.864956,-1554.432478,-9652.803275
937.367892,1184.329507,-518.144159,-9422.974625
937.368212,-518.144159,814.226536,-9039.926876
937.368532,148.041188,2590.720797,-10035.851024
937.368852,1776.494261,3034.844362,-10342.289223
937.369172,370.102971,1924.535449,-9806.022374
937.369492,-2294.638420,-222.061783,-7431.126331
937.369812,-1110.308913,-1924.535449,-9039.926876
937.370132,518.144159,-2738.761985,-9652.803275
937.370452,814.226536,-3182.885551,-8886.707777
937.370771,-814.226536,-962.267725,-9729.412825
937.371091,-2072.576638,-592.164754,-9806.022374
937.371411,-888.247130,740.205942,-9806.022374
937.371731,-148.041188,444.123565,-9882.631924
937.372051,0.000000,1184.329507,-9806.022374
937.372371,-1924.535449,1036.288319,-10418.898773
937.372691,-740.205942,296.082377,-10265.679673
937.373011,1258.350101,-296.082377,-10418.898773
937.373331,1480.411884,-1628.453072,-10955.165621
937.373651,222.061783,-1554.432478,-9576.193725
937.373971,-3182.885551,-1258.350101,-10265.679673
937.374291,-4071.132681,740.205942,-10572.117872
937.374611,-2368.659014,1776.494261,-10725.336972
937.374931,-1628.453072,2516.700203,-10955.165621
937.375251,-1110.308913,2072.576638,-10801.946522
937.375570,0.000000,-148.041188,-11184.994271
937.375890,3034.844362,-1406.391290,-10342.289223
937.376210,2960.823768,-1554.432478,-10878.556072
937.376530,1258.350101,-296.082377,-9959.241474
937.376850,-1480.411884,1924.535449,-10265.679673
937.377170,0.000000,1406.391290,-9959.241474
937.377490,3478.967927,1036.288319,-9882.631924
937.377810,4293.194464,-222.061783,-9576.193725
937.378130,3034.844362,-1258.350101,-10112.460574
937.378450,2072.576638,-1480.411884,-9346.365076
937.378770,1924.535449,-518.144159,-9806.022374
937.379090,1184.329507,222.061783,-9269.755526
937.379410,2294.638420,222.061783,-9269.755526
937.379730,2812.782580,-740.205942,-9882.631924
937.380050,1850.514855,-592.164754,-9422.974625
937.380369,222.061783,-444.123565,-9193.145976
937.380689,222.061783,370.102971,-10035.851024
937.381009,1332.370696,370.102971,-11031.775171
937.381329,222.061783,-296.082377,-9806.022374
937.381649,-814.226536,-1406.391290,-9806.022374
937.381969,1110.308913,-2368.659014,-9116.536426
937.382289,4885.359217,-1258.350101,-9806.022374
937.382609,4071.132681,888.247130,-10725.336972
937.382929,1184.329507,3182.885551,-10878.556072
937.383249,0.000000,3775.050304,-10572.117872
937.383569,1702.473667,3182.885551,-10342.289223
937.383889,3256.906145,2294.638420,-11338.213370
937.384209,740.205942,888.247130,-10725.336972
937.384529,-2664.741391,-666.185348,-10955.165621
937.384848,-1332.370696,-1406.391290,-10035.851024
937.385168,-296.082377,-1332.370696,-12257.527968
937.385488,-1850.514855,-592.164754,-10342.289223
937.385808,-3034.844362,-518.144159,-10189.070123
937.386128,-2368.659014,592.164754,-10572.117872
937.386448,-666.185348,2220.617826,-10265.679673
937.386768,666.185348,3256.906145,-10572.117872
937.387088,1850.514855,3256.906145,-11414.822920
937.387408,2516.700203,2368.659014,-11108.384721
937.387728,592.164754,1850.514855,-10418.898773
937.388048,-1406.391290,1036.288319,-10112.460574
937.388368,-2368.659014,296.082377,-9806.022374
937.388688,-2368.659014,-444.123565,-9806.022374
937.389008,-1924.535449,-444.123565,-9652.803275
937.389328,-2368.659014,-1702.473667,-8963.317327
937.389647,-1924.535449,-1036.288319,-8810.098227
937.389967,-1258.350101,74.020594,-9269.755526
937.390287,-148.041188,0.000000,-8733.488677
937.390607,814.226536,0.000000,-9652.803275
937.390927,2072.576638,444.123565,-7584.345430
937.391247,2442.679609,1554.432478,-9039.926876
937.391567,3404.947333,2368.659014,-10418.898773
937.391887,3775.050304,3478.967927,-9806.022374
937.392207,1628.453072,3034.844362,-10112.460574
937.392527,-2220.617826,-370.102971,-9039.926876
937.392847,-4219.173869,-2516.700203,-8580.269578
937.393167,-1110.308913,-2738.761985,-9959.241474
937.393487,1332.370696,-1998.556043,-9729.412825
937.393807,2072.576638,888.247130,-10801.946522
937.394127,2516.700203,2664.741391,-10418.898773
937.394446,3404.947333,2960.823768,-10572.117872
937.394766,5107.421000,3775.050304,-11184.994271
937.395086,4663.297435,2442.679609,-11414.822920
937.395406,2368.659014,1184.329507,-11184.994271
937.395726,1258.350101,888.247130,-11184.994271
937.396046,518.144159,740.205942,-11338.213370
937.396366,888.247130,-444.123565,-10955.165621
937.396686,148.041188,-592.164754,-10878.556072
937.397006,-1036.288319,-1110.308913,-10035.851024
937.397326,-296.082377,-2146.597232,-9499.584175
937.397646,1776.494261,-814.226536,-11031.775171
937.397966,3404.947333,370.102971,-10265.679673
937.398286,1924.535449,1480.411884,-10572.117872
937.398606,1998.556043,2220.617826,-9652.803275
937.398926,4219.173869,1998.556043,-9806.022374
937.399245,5847.626942,1184.329507,-11184.994271
937.399565,3552.988522,222.061783,-10342.289223
937.399885,-518.144159,-1036.288319,-9652.803275
937.400205,-1776.494261,-2886.803174,-8733.488677
937.400525,-1998.556043,-3256.906145,-8656.879127
937.400845,-1258.350101,-2590.720797,-9269.755526
937.401165,-2442.679609,-888.247130,-8656.879127
937.401485,-3997.112087,-222.061783,-9576.193725
937.401805,-3552.988522,0.000000,-9346.365076
937.402125,-518.144159,-2072.576638,-9499.584175
937.402445,1776.494261,-2516.700203,-9499.584175
937.402765,2294.638420,-1184.329507,-10035.851024
937.403085,740.205942,962.267725,-10418.898773
937.403405,-962.267725,2516.700203,-10418.898773
937.403725,-444.123565,1998.556043,-10265.679673
937.404044,592.164754,-222.061783,-10878.556072
937.404364,-1184.329507,-1554.432478,-10725.336972
937.404684,-2664.741391,-2072.576638,-10342.289223
937.405004,-3627.009116,-1628.453072,-10495.508323
937.405324,-3701.029710,-148.041188,-11031.775171
937.405644,-2812.782580,1406.391290,-10801.946522
937.405964,-2294.638420,1998.556043,-11338.213370
937.406284,-370.102971,2442.679609,-10112.460574
937.406604,-444.123565,1702.473667,-10495.508323
937.406924,1702.473667,814.226536,-10572.117872
937.407244,4589.276840,444.123565,-11031.775171
937.407564,4737.318029,74.020594,-10342.289223
937.407884,2072.576638,-592.164754,-10801.946522
937.408204,-962.267725,148.041188,-9576.193725
937.408523,-888.247130,444.123565,-9499.584175
937.408843,740.205942,444.123565,-9499.584175
937.409163,592.164754,518.144159,-9576.193725
937.409483,-888.247130,-1554.432478,-8503.660028
937.409803,592.164754,-1924.535449,-9652.803275
937.410123,2738.761985,-2738.761985,-9729.412825
937.410443,3552.988522,-1924.535449,-9193.145976
937.410763,1628.453072,222.061783,-9193.145976
937.411083,740.205942,2294.638420,-9193.145976
937.411403,3478.967927,3330.926739,-10265.679673
937.411723,6069.688724,3108.864956,-10112.460574
937.412043,6809.894666,1850.514855,-10418.898773
937.412363,3478.967927,296.082377,-10035.851024
937.412683,222.061783,-1702.473667,-9729.412825
937.413003,148.041188,-1924.535449,-9806.022374
937.413322,814.226536,0.000000,-10189.070123
937.413642,1406.391290,2516.700203,-10418.898773
937.413962,518.144159,2886.803174,-10725.336972
937.414282,1258.350101,3404.947333,-11031.775171
937.414602,2294.638420,1702.473667,-11414.822920
937.414922,2294.638420,518.144159,-10342.289223
937.415242,814.226536,0.000000,-10725.336972
937.415562,-148.041188,814.226536,-9882.631924
937.415882,-370.102971,962.267725,-10648.727422
937.416202,814.226536,518.144159,-11108.384721
937.416522,444.123565,0.000000,-12257.527968
937.416842,-1554.432478,-148.041188,-10572.117872
937.417162,-2516.700203,444.123565,-10112.460574
937.417482,-1332.370696,1036.288319,-10495.508323
937.417802,-592.164754,1480.411884,-10725.336972
937.418121,-666.185348,1480.411884,-10801.946522
937.418441,-1998.556043,814.226536,-10112.460574
937.418761,-1110.308913,-666.185348,-9729.412825
937.419081,-370.102971,-1998.556043,-9652.803275
937.419401,-222.061783,-2368.659014,-9193.145976
937.419721,-740.205942,-592.164754,-9269.755526
937.420041,-740.205942,740.205942,-9039.926876
937.420361,-518.144159,1184.329507,-8963.317327
937.420681,-1628.453072,1184.329507,-9422.974625
937.421001,-1480.411884,740.205942,-9039.926876
937.421321,-1480.411884,148.041188,-9652.803275
937.421641,-1036.288319,-962.267725,-8963.317327
937.421961,-222.061783,-1924.535449,-9039.926876
937.422281,-148.041188,-2072.576638,-9576.193725
937.422601,1110.308913,-444.123565,-9576.193725
937.422920,740.205942,888.247130,-10189.070123
937.423240,-666.185348,2664.741391,-10265.679673
937.423560,370.102971,3034.844362,-10035.851024
937.423880,1702.473667,2442.679609,-10955.165621
937.424200,1850.514855,1406.391290,-10342.289223
937.424520,296.082377,-1258.350101,-10725.336972
937.424840,-1184.329507,-1924.535449,-9576.193725
937.425160,814.226536,-3478.967927,-10725.336972
937.425480,3552.988522,-1110.308913,-10878.556072
937.425800,4219.173869,740.205942,-10572.117872
937.426120,2738.761985,1554.432478,-11261.603821
937.426440,1406.391290,2368.659014,-10572.117872
937.426760,370.102971,1850.514855,-11261.603821
937.427080,1110.308913,1110.308913,-10955.165621
937.427399,370.102971,-740.205942,-9959.241474
937.427719,2072.576638,-2664.741391,-10572.117872
937.428039,3627.009116,-2812.782580,-8963.317327
937.428359,4737.318029,-1036.288319,-10955.165621
937.428679,2516.700203,1406.391290,-10189.070123
937.428999,296.082377,4367.215058,-10342.289223
937.429319,-888.247130,5329.482782,-9806.022374
937.429639,-518.144159,1998.556043,-9806.022374
937.429959,1406.391290,-962.267725,-9652.803275
937.430279,3182.885551,-3182.885551,-9499.584175
937.430599,2146.597232,-4663.297435,-9193.145976
937.430919,74.020594,-3330.926739,-8810.098227
937.431239,370.102971,-1702.473667,-8963.317327
937.431559,1184.329507,518.144159,-9499.584175
937.431879,2220.617826,2960.823768,-10495.508323
937.432198,1110.308913,3701.029710,-10342.289223
937.432518,0.000000,1924.535449,-9729.412825
937.432838,0.000000,0.000000,-10112.460574
937.433158,740.205942,-1110.308913,-9729.412825
937.433478,814.226536,-1776.494261,-9729.412825
937.433798,-296.082377,-1924.535449,-10265.679673
937.434118,-1628.453072,-1480.411884,-10035.851024
937.434438,-2516.700203,222.061783,-10801.946522
937.434758,-2516.700203,1332.370696,-10878.556072
937.435078,-1184.329507,1110.308913,-10725.336972
937.435398,-518.144159,222.061783,-11721.261119
937.435718,814.226536,0.000000,-10495.508323
937.436038,592.164754,1406.391290,-10955.165621
937.436358,814.226536,3997.112087,-11721.261119
937.436678,-592.164754,4811.338623,-11568.042020
937.436997,-1628.453072,3923.091493,-11031.775171
937.437317,-2146.597232,1332.370696,-9959.241474
937.437637,-1628.453072,-2368.659014,-9959.241474
937.437957,-2072.576638,-3108.864956,-9729.412825
937.438277,-2516.700203,-2368.659014,-9729.412825
937.438597,-1850.514855,222.061783,-9193.145976
937.438917,-296.082377,2442.679609,-9729.412825
937.439237,1036.288319,3478.967927,-9576.193725
937.439557,1332.370696,1480.411884,-9499.584175
937.439877,814.226536,444.123565,-9422.974625
937.440197,518.144159,-296.082377,-9116.536426
937.440517,1184.329507,296.082377,-9039.926876
937.440837,1776.494261,74.020594,-8810.098227
937.441157,2294.638420,-1036.288319,-9116.536426
937.441477,1332.370696,-1480.411884,-9729.412825
937.441796,222.061783,-1554.432478,-9269.755526
937.442116,-518.144159,-296.082377,-9346.365076
937.442436,888.247130,0.000000,-9499.584175
937.442756,2146.597232,962.267725,-9882.631924
937.443076,2664.741391,740.205942,-10265.679673
937.443396,3256.906145,-296.082377,-9806.022374
937.443716,4219.173869,0.000000,-10035.851024
937.444036,3923.091493,1628.453072,-10878.556072
937.444356,2590.720797,3256.906145,-11491.432470
937.444676,2146.597232,3997.112087,-11568.042020
937.444996,962.267725,3404.947333,-10265.679673
937.445316,-148.041188,-148.041188,-10725.336972
937.445636,74.020594,-1702.473667,-11031.775171
937.445956,-444.123565,-1554.432478,-10955.165621
937.446275,-1110.308913,444.123565,-10342.289223
937.446595,74.020594,2960.823768,-10955.165621
937.446915,3552.988522,3849.070898,-11644.651570
937.447235,5329.482782,3182.885551,-10955.165621
937.447555,3701.029710,740.205942,-11261.603821
937.447875,1776.494261,-666.185348,-9959.241474
937.448195,-444.123565,222.061783,-10035.851024
937.448515,-814.226536,296.082377,-9729.412825
937.448835,1776.494261,1184.329507,-9576.193725
937.449155,2146.597232,74.020594,-9806.022374
937.449475,0.000000,-1184.329507,-8810.098227
937.449795,-370.102971,-2146.597232,-9346.365076
937.450115,666.185348,-1776.494261,-9116.536426
937.450435,1924.535449,-740.205942,-9499.584175
937.450754,-296.082377,-296.082377,-8963.317327
937.451074,-2442.679609,0.000000,-8656.879127
937.451394,-2516.700203,0.000000,-9576.193725
937.451714,-1110.308913,-592.164754,-8963.317327
937.452034,-518.144159,-444.123565,-9576.193725
937.452354,-1998.556043,-1258.350101,-9499.584175
937.452674,-2590.720797,-1554.432478,-9039.926876
937.452994,-2442.679609,-1036.288319,-10265.679673
937.453314,-1406.391290,-148.041188,-9882.631924
937.453634,-2738.761985,666.185348,-10572.117872
937.453954,-888.247130,1554.432478,-10725.336972
937.454274,-1332.370696,1480.411884,-10418.898773
937.454594,-1110.308913,962.267725,-10801.946522
937.454913,296.082377,0.000000,-12104.308868
937.455233,592.164754,-740.205942,-10725.336972
937.455553,1184.329507,0.000000,-10342.289223
937.455873,2368.659014,962.267725,-11414.822920
937.456193,666.185348,1628.453072,-10572.117872
937.456513,-1850.514855,2590.720797,-11031.775171
937.456833,-2220.617826,2072.576638,-10572.117872
937.457153,-1406.391290,1776.494261,-9882.631924
937.457473,-444.123565,1702.473667,-10648.727422
937.457793,2146.597232,-592.164754,-10342.289223
937.458113,3256.906145,-2072.576638,-9499.584175
937.458433,2886.803174,-1850.514855,-9959.241474
937.458753,2590.720797,-1258.350101,-9422.974625
937.459073,1628.453072,-962.267725,-9806.022374
937.459392,888.247130,148.041188,-9422.974625
937.459712,2368.659014,1776.494261,-9729.412825
937.460032,2738.761985,2368.659014,-9652.803275
937.460352,2960.823768,1998.556043,-9806.022374
937.460672,2590.720797,296.082377,-9729.412825
937.460992,1480.411884,0.000000,-9422.974625
937.461312,0.000000,-666.185348,-9806.022374
937.461632,-296.082377,-2220.617826,-9422.974625
937.461952,74.020594,-3849.070898,-8963.317327
937.462272,0.000000,-2886.803174,-9346.365076
937.462592,-148.041188,-1332.370696,-10112.460574
937.462912,-740.205942,1406.391290,-10189.070123
937.463232,962.267725,3849.070898,-10342.289223
937.463552,3034.844362,4737.318029,-10495.508323
937.463871,3775.050304,2590.720797,-11184.994271
937.464191,3182.885551,1850.514855,-11108.384721
937.464511,1110.308913,0.000000,-10648.727422
937.464831,-1036.288319,-814.226536,-10495.508323
937.465151,370.102971,-1776.494261,-10189.070123
937.465471,1702.473667,-1110.308913,-10418.898773
937.465791,666.185348,-888.247130,-10648.727422
937.466111,-814.226536,1110.308913,-10801.946522
937.466431,-962.267725,1998.556043,-11261.603821
937.466751,3256.906145,2368.659014,-11184.994271
937.467071,4219.173869,2368.659014,-11031.775171
937.467391,1406.391290,1776.494261,-10725.336972
937.467711,-1036.288319,1406.391290,-9959.241474
937.468031,-4145.153275,296.082377,-10495.508323
937.468350,-1850.514855,-814.226536,-9959.241474
937.468670,518.144159,-1406.391290,-9576.193725
937.468990,2590.720797,-666.185348,-9882.631924
937.469310,666.185348,518.144159,-10112.460574
937.469630,1850.514855,3552.988522,-9806.022374
937.469950,740.205942,5033.400406,-10342.289223
937.470270,-1036.288319,3923.091493,-9269.755526
937.470590,-2368.659014,2072.576638,-9652.803275
937.470910,-3034.844362,-3330.926739,-8503.660028
937.471230,-3330.926739,-4663.297435,-8197.221829
937.471550,-592.164754,-4441.235652,-9269.755526
937.471870,962.267725,-2812.782580,-9269.755526
937.472190,1258.350101,-814.226536,-9729.412825
937.472510,740.205942,2072.576638,-9652.803275
937.472829,-1332.370696,2738.761985,-9652.803275
937.473149,-148.041188,1850.514855,-10342.289223
937.473469,814.226536,1110.308913,-10648.727422
937.473789,740.205942,-1628.453072,-9806.022374
937.474109,888.247130,-2442.679609,-10495.508323
937.474429,444.123565,-2072.576638,-10189.070123
937.474749,-370.102971,-1036.288319,-10801.946522
937.475069,-444.123565,1258.350101,-10955.165621
937.475389,-444.123565,2886.803174,-10878.556072
937.475709,592.164754,2960.823768,-11031.775171
937.476029,1554.432478,1998.556043,-11031.775171
937.476349,2516.700203,1554.432478,-10725.336972
937.476669,2368.659014,1406.391290,-11184.994271
937.476988,1702.473667,-370.102971,-10265.679673
937.477308,1480.411884,296.082377,-10572.117872
937.477628,1702.473667,-518.144159,-10648.727422
937.477948,3256.906145,0.000000,-10572.117872
937.478268,3256.906145,1258.350101,-10878.556072
937.478588,1554.432478,74.020594,-9959.241474
937.478908,0.000000,1628.453072,-10035.851024
937.479228,740.205942,1480.411884,-10418.898773
937.479548,370.102971,814.226536,-9346.365076
937.479868,1184.329507,148.041188,-9959.241474
937.480188,1110.308913,-2072.576638,-9499.584175
937.480508,74.020594,-2146.597232,-9729.412825
937.480828,148.041188,-666.185348,-9193.145976
937.481148,-962.267725,1628.453072,-9422.974625
937.481467,962.267725,3256.906145,-10112.460574
937.481787,2516.700203,3034.844362,-10265.679673
937.482107,2886.803174,740.205942,-9652.803275
937.482427,1184.329507,-1776.494261,-9729.412825
937.482747,-592.164754,-2220.617826,-9576.193725
937.483067,-1184.329507,-740.205942,-9806.022374
937.483387,-1258.350101,1406.391290,-10418.898773
937.483707,-444.123565,2368.659014,-10342.289223
937.484027,0.000000,2516.700203,-10495.508323
937.484347,-148.041188,1480.411884,-10878.556072
937.484667,74.020594,1702.473667,-10342.289223
937.484987,-148.041188,1924.535449,-11568.042020
937.485307,-666.185348,1332.370696,-10342.289223
937.485627,-1110.308913,296.082377,-9959.241474
937.485946,-1480.411884,222.061783,-9959.241474
937.486266,-1480.411884,-740.205942,-9806.022374
937.486586,-518.144159,-1184.329507,-10189.070123
937.486906,962.267725,-518.144159,-10418.898773
937.487226,814.226536,962.267725,-10112.460574
937.487546,740.205942,3182.885551,-11951.089769
937.487866,2590.720797,3256.906145,-10418.898773
937.488186,2590.720797,2072.576638,-10648.727422
937.488506,148.041188,222.061783,-9806.022374
937.488826,74.020594,222.061783,-10035.851024
937.489146,2368.659014,444.123565,-11031.775171
937.489466,2738.761985,814.226536,-9806.022374
937.489786,1702.473667,1258.350101,-10342.289223
937.490106,1258.350101,-74.020594,-10189.070123
937.490425,814.226536,-1702.473667,-9576.193725
937.490745,1258.350101,-1184.329507,-9499.584175
937.491065,0.000000,-148.041188,-9346.365076
937.491385,-592.164754,962.267725,-9806.022374
937.491705,518.144159,666.185348,-9499.584175
937.492025,2368.659014,592.164754,-9806.022374
937.492345,1184.329507,-518.144159,-9576.193725
937.492665,0.000000,-1480.411884,-9959.241474
937.492985,-518.144159,-888.247130,-10035.851024
937.493305,1776.494261,296.082377,-9882.631924
937.493625,222.061783,148.041188,-10112.460574
937.493945,-2220.617826,0.000000,-9882.631924
937.494265,-3478.967927,-1850.514855,-10572.117872
937.494585,-1480.411884,-1036.288319,-9959.241474
937.494904,1554.432478,1332.370696,-10112.460574
937.495224,1332.370696,2738.761985,-10801.946522
937.495544,962.267725,2368.659014,-10418.898773
937.495864,-296.082377,1036.288319,-10725.336972
937.496184,-222.061783,-592.164754,-11338.213370
937.496504,-740.205942,-1406.391290,-10265.679673
937.496824,-1998.556043,-962.267725,-10189.070123
937.497144,-1998.556043,74.020594,-9806.022374
937.497464,-1480.411884,592.164754,-10801.946522
937.497784,666.185348,0.000000,-10572.117872
937.498104,888.247130,-222.061783,-10035.851024
937.498424,148.041188,0.000000,-10342.289223
937.498744,962.267725,1554.432478,-9729.412825
937.499063,1924.535449,1258.350101,-11031.775171
937.499383,2220.617826,0.000000,-9806.022374
937.499703,1776.494261,-1258.350101,-9193.145976
937.500023,222.061783,-2960.823768,-9576.193725
937.500343,-518.144159,-1924.535449,-8733.488677
937.500663,1110.308913,296.082377,-10265.679673
937.500983,3701.029710,2886.803174,-10189.070123
937.501303,3701.029710,3627.009116,-9806.022374
937.501623,1184.329507,2220.617826,-9959.241474
937.501943,-1036.288319,1406.391290,-9499.584175
937.502263,-444.123565,-1110.308913,-10112.460574
937.502583,1850.514855,-1628.453072,-9729.412825
937.502903,2516.700203,-1110.308913,-9499.584175
937.503223,1184.329507,0.000000,-9193.145976
937.503542,222.061783,962.267725,-9806.022374
937.503862,2072.576638,222.061783,-10418.898773
937.504182,4737.318029,814.226536,-10495.508323
937.504502,3627.009116,1480.411884,-10342.289223
937.504822,1036.288319,1702.473667,-9806.022374
937.505142,-444.123565,1628.453072,-10878.556072
937.505462,-592.164754,0.000000,-10342.289223
937.505782,-1110.308913,-1036.288319,-10418.898773
937.506102,-1036.288319,-1258.350101,-10418.898773
937.506422,-296.082377,-962.267725,-9959.241474
937.506742,1036.288319,296.082377,-10648.727422
937.507062,1258.350101,2146.597232,-10725.336972
937.507382,-518.144159,3182.885551,-10725.336972
937.507702,-1702.473667,1998.556043,-10495.508323
937.508021,-1702.473667,1406.391290,-9806.022374
937.508341,-1036.288319,444.123565,-10955.165621
937.508661,0.000000,0.000000,-9959.241474
937.508981,-1998.556043,0.000000,-9806.022374
937.509301,-518.144159,74.020594,-9729.412825
937.509621,962.267725,444.123565,-9959.241474
937.509941,1406.391290,1554.432478,-10189.070123
937.510261,-296.082377,1702.473667,-10112.460574
937.510581,-1850.514855,740.205942,-9576.193725
937.510901,-3849.070898,0.000000,-9422.974625
937.511221,-1776.494261,-1406.391290,-9269.755526
937.511541,1332.370696,-1998.556043,-9652.803275
937.511861,2220.617826,740.205942,-9806.022374
937.512181,-1184.329507,1258.350101,-10035.851024
937.512500,-592.164754,1554.432478,-9652.803275
937.512820,962.267725,1258.350101,-9882.631924
937.513140,888.247130,0.000000,-9806.022374
937.513460,0.000000,0.000000,-9959.241474
937.513780,-444.123565,74.020594,-10725.336972
937.514100,-518.144159,-592.164754,-9576.193725
937.514420,148.041188,-1184.329507,-9882.631924
937.514740,148.041188,-296.082377,-10648.727422
937.515060,-444.123565,296.082377,-10418.898773
937.515380,0.000000,1406.391290,-10572.117872
937.515700,2812.782580,2590.720797,-10955.165621
937.516020,5255.462188,2294.638420,-10725.336972
937.516340,5477.523971,814.226536,-10572.117872
937.516660,2738.761985,74.020594,-10572.117872
937.516979,1628.453072,74.020594,-10189.070123
937.517299,518.144159,-296.082377,-10265.679673
937.517619,1184.329507,-1036.288319,-10495.508323
937.517939,1110.308913,-1184.329507,-10035.851024
937.518259,1406.391290,-444.123565,-9576.193725
937.518579,962.267725,2590.720797,-10189.070123
937.518899,2146.597232,3552.988522,-10572.117872
937.519219,2664.741391,2516.700203,-10342.289223
937.519539,3478.967927,-962.267725,-9806.022374
937.519859,1480.411884,-3701.029710,-9652.803275
937.520179,1184.329507,-4145.153275,-9576.193725
937.520499,1776.494261,-1850.514855,-9499.584175
937.520819,2738.761985,74.020594,-10342.289223
937.521138,1998.556043,2886.803174,-9959.241474
937.521458,-444.123565,3478.967927,-10189.070123
937.521778,296.082377,1036.288319,-10112.460574
937.522098,666.185348,-1184.329507,-10725.336972
937.522418,1480.411884,-3108.864956,-10112.460574
937.522738,148.041188,-2220.617826,-9806.022374
937.523058,-74.020594,-592.164754,-10265.679673
937.523378,-1480.411884,0.000000,-11261.603821
937.523698,-1332.370696,-962.267725,-10189.070123
937.524018,-740.205942,888.247130,-10112.460574
937.524338,888.247130,2368.659014,-10878.556072
937.524658,592.164754,2516.700203,-11031.775171
937.524978,-444.123565,1776.494261,-11031.775171
937.525298,-1406.391290,-148.041188,-9959.241474
937.525617,-1702.473667,0.000000,-9652.803275
937.525937,-2590.720797,-370.102971,-10801.946522
937.526257,-2738.761985,148.041188,-10342.289223
937.526577,1480.411884,666.185348,-9576.193725
937.526897,148.041188,-148.041188,-11414.822920
937.527217,2220.617826,370.102971,-9269.755526
937.527537,-2442.679609,740.205942,-9806.022374
937.527857,-2590.720797,-148.041188,-9576.193725
937.528177,-1184.329507,-592.164754,-9652.803275
937.528497,148.041188,-666.185348,-10725.336972
937.528817,-148.041188,666.185348,-9959.241474
937.529137,-148.041188,666.185348,-10572.117872
937.529457,-518.144159,0.000000,-10189.070123
937.529777,740.205942,-222.061783,-10035.851024
937.530096,2072.576638,888.247130,-10112.460574
937.530416,296.082377,1924.535449,-10495.508323
937.530736,148.041188,444.123565,-10112.460574
937.531056,1776.494261,-740.205942,-10189.070123
937.531376,1332.370696,-962.267725,-9729.412825
937.531696,-148.041188,-1480.411884,-10189.070123
937.532016,-1406.391290,888.247130,-10342.289223
937.532336,-740.205942,2072.576638,-9806.022374
937.532656,1554.432478,2072.576638,-9806.022374
937.532976,2220.617826,1554.432478,-10265.679673
937.533296,3182.885551,666.185348,-9729.412825
937.533616,2072.576638,-740.205942,-10112.460574
937.533936,740.205942,-1924.535449,-9116.536426
937.534256,1184.329507,-1036.288319,-9422.974625
937.534575,0.000000,-1184.329507,-9882.631924
937.534895,2368.659014,1628.453072,-9882.631924
937.535215,2368.659014,1184.329507,-10572.117872
937.535535,1184.329507,962.267725,-9269.755526
937.535855,2294.638420,740.205942,-10648.727422
937.536175,2738.761985,148.041188,-10342.289223
937.536495,3627.009116,-814.226536,-10265.679673
937.536815,2072.576638,-444.123565,-10189.070123
937.537135,222.061783,-148.041188,-10342.289223
937.537455,-1258.350101,1628.453072,-10265.679673
937.537775,148.041188,2220.617826,-10342.289223
937.538095,1554.432478,2368.659014,-10801.946522
937.538415,1554.432478,2146.597232,-10265.679673
937.538735,296.082377,-518.144159,-10112.460574
937.539054,1036.288319,-1110.308913,-9806.022374
937.539374,2220.617826,-1258.350101,-10189.070123
937.539694,1480.411884,-444.123565,-10572.117872
937.540014,-444.123565,740.205942,-9959.241474
937.540334,-2368.659014,2516.700203,-9422.974625
937.540654,-1998.556043,2516.700203,-9959.241474
937.540974,2146.597232,1998.556043,-10112.460574
937.541294,-666.185348,0.000000,-10265.679673
937.541614,-2220.617826,-888.247130,-10495.508323
937.541934,-74.020594,-1110.308913,-9959.241474
937.542254,-1110.308913,-1776.494261,-10035.851024
937.542574,222.061783,-518.144159,-9959.241474
937.542894,-1480.411884,1258.350101,-9959.241474
937.543214,-2516.700203,1184.329507,-9652.803275
937.543534,-2146.597232,1776.494261,-9652.803275
937.543854,-1480.411884,222.061783,-10189.070123
937.544174,-888.247130,370.102971,-9652.803275
937.544494,296.082377,-814.226536,-9882.631924
937.544814,1110.308913,-1258.350101,-9193.145976
937.545134,2294.638420,-148.041188,-10495.508323
937.545454,3552.988522,222.061783,-10418.898773
937.545774,1110.308913,1924.535449,-10265.679673
937.546094,-2146.597232,3108.864956,-11031.775171
937.546414,-3849.070898,2590.720797,-9806.022374
937.546734,-1702.473667,962.267725,-9882.631924
937.547054,1998.556043,518.144159,-10189.070123
937.547374,2590.720797,74.020594,-10572.117872
937.547694,518.144159,-370.102971,-10342.289223
937.548014,1258.350101,-518.144159,-10189.070123
937.548334,1480.411884,-296.082377,-10189.070123
937.548654,1110.308913,1184.329507,-10189.070123
937.548974,740.205942,2294.638420,-10112.460574
937.549294,1702.473667,3775.050304,-10572.117872
937.549614,3923.091493,2960.823768,-11108.384721
937.549934,3478.967927,-222.061783,-10189.070123
937.550254,3182.885551,-1554.432478,-10189.070123
937.550574,1702.473667,-1184.329507,-9959.241474
937.550894,-888.247130,-888.247130,-9806.022374
937.551214,740.205942,444.123565,-10035.851024
937.551534,2738.761985,1036.288319,-10342.289223
937.551854,4367.215058,1110.308913,-10725.336972
937.552174,814.226536,666.185348,-9729.412825
937.552494,-518.144159,-370.102971,-9959.241474
937.552814,962.267725,0.000000,-10035.851024
937.553134,2368.659014,370.102971,-10189.070123
937.553454,4663.297435,148.041188,-11031.775171
937.553774,2590.720797,-1184.329507,-10342.289223
937.554094,-1554.432478,-1776.494261,-9652.803275
937.554414,-2590.720797,-1184.329507,-9806.022374
937.554734,888.247130,444.123565,-10035.851024
937.555054,2664.741391,1110.308913,-10418.898773
937.555374,-592.164754,1850.514855,-10418.898773
937.555694,-4737.318029,518.144159,-9652.803275
937.556014,-2368.659014,-888.247130,-10035.851024
937.556334,1258.350101,-1702.473667,-9882.631924
937.556654,-148.041188,-1480.411884,-9806.022374
937.556974,222.061783,-370.102971,-9806.022374
937.557294,1628.453072,0.000000,-9576.193725
937.557614,2220.617826,148.041188,-10112.460574
937.557934,-1554.432478,2368.659014,-10878.556072
937.558254,-3034.844362,1628.453072,-9652.803275
937.558574,-3182.885551,2072.576638,-10648.727422
937.558894,-888.247130,1628.453072,-9652.803275
937.559214,1332.370696,370.102971,-10572.117872
937.559534,2220.617826,-1628.453072,-10265.679673
937.559854,592.164754,-3997.112087,-9576.193725
937.560174,74.020594,-3552.988522,-10112.460574
937.560494,0.000000,-962.267725,-9729.412825
937.560814,1110.308913,2812.782580,-11031.775171
937.561134,3034.844362,4367.215058,-10648.727422
937.561454,1998.556043,4071.132681,-11108.384721
937.561774,1332.370696,2368.659014,-11414.822920
937.562094,-592.164754,-666.185348,-10418.898773
937.562414,-1184.329507,-2590.720797,-10801.946522
937.562734,-2368.659014,-2072.576638,-9806.022374
937.563054,-1480.411884,0.000000,-9806.022374
937.563374,-888.247130,1036.288319,-9806.022374
937.563694,888.247130,2442.679609,-9576.193725
937.564014,1036.288319,1702.473667,-10725.336972
937.564334,1110.308913,74.020594,-9729.412825
937.564654,2664.741391,74.020594,-9959.241474
937.564974,2590.720797,666.185348,-9422.974625
937.565294,2960.823768,370.102971,-9269.755526
937.565614,4145.153275,666.185348,-10112.460574
937.565934,2590.720797,-666.185348,-9499.584175
937.566254,-296.082377,-740.205942,-9729.412825
937.566574,-2294.638420,-962.267725,-9346.365076
937.566894,-2368.659014,-1110.308913,-9576.193725
937.567214,518.144159,296.082377,-9729.412825
937.567534,296.082377,1036.288319,-9346.365076
937.567854,-666.185348,0.000000,-9576.193725
937.568174,666.185348,-370.102971,-10112.460574
937.568494,1332.370696,-1776.494261,-10112.460574
937.568814,3404.947333,-740.205942,-10418.898773
937.569134,2220.617826,370.102971,-9882.631924
937.569454,666.185348,2294.638420,-10648.727422
937.569774,74.020594,3034.844362,-10648.727422
937.570094,1776.494261,2294.638420,-11874.480219
937.570414,3108.864956,3108.864956,-11031.775171
937.570734,518.144159,148.041188,-10725.336972
937.571054,-2442.679609,-740.205942,-10801.946522
937.571374,-2516.700203,-518.144159,-9882.631924
937.571694,-148.041188,666.185348,-11644.651570
937.572014,444.123565,1998.556043,-10878.556072
937.572334,-1554.432478,2442.679609,-10725.336972
937.572654,-1628.453072,74.020594,-10112.460574
937.572974,592.164754,-1258.350101,-9882.631924
937.573294,3330.926739,-962.267725,-9652.803275
937.573614,3034.844362,1184.329507,-10035.851024
937.573934,1332.370696,3775.050304,-10112.460574
937.574254,444.123565,2368.659014,-10342.289223
937.574574,740.205942,-74.020594,-9039.926876
937.574894,-888.247130,-1554.432478,-9499.584175
937.575214,-740.205942,-2146.597232,-8963.317327
937.575534,-2368.659014,-2146.597232,-8733.488677
937.575854,-1850.514855,-592.164754,-9346.365076
937.576174,-370.102971,-296.082377,-9193.145976
937.576494,814.226536,444.123565,-9576.193725
937.576814,444.123565,740.205942,-9652.803275
937.577134,1776.494261,592.164754,-9576.193725
937.577454,1036.288319,1406.391290,-9806.022374
937.577774,1628.453072,592.164754,-9806.022374
937.578094,1776.494261,148.041188,-9959.241474
937.578414,740.205942,-148.041188,-9729.412825
937.578734,222.061783,370.102971,-10265.679673
937.579054,962.267725,888.247130,-10112.460574
937.579374,2368.659014,962.267725,-10648.727422
937.579694,1332.370696,666.185348,-10418.898773
937.580014,592.164754,370.102971,-10572.117872
937.580334,1924.535449,0.000000,-10572.117872
937.580654,1332.370696,-666.185348,-9959.241474
937.580974,1258.350101,1628.453072,-11414.822920
937.581294,222.061783,1628.453072,-10572.117872
937.581614,666.185348,2442.679609,-11184.994271
937.581934,1258.350101,1258.350101,-10878.556072
937.582254,1776.494261,-296.082377,-10342.289223
937.582574,74.020594,0.000000,-10418.898773
937.582894,-1702.473667,-2146.597232,-10112.460574
937.583214,-2442.679609,0.000000,-9422.974625
937.583534,-1554.432478,296.082377,-10495.508323
937.583854,1406.391290,-296.082377,-9882.631924
937.584174,2960.823768,-814.226536,-10112.460574
937.584494,2812.782580,740.205942,-10648.727422
937.584814,1628.453072,-148.041188,-10189.070123
937.585134,2442.679609,-740.205942,-9806.022374
937.585454,1258.350101,0.000000,-9729.412825
937.585774,370.102971,-666.185348,-9806.022374
937.586094,-962.267725,-1332.370696,-8886.707777
937.586414,-2368.659014,-518.144159,-9806.022374
937.586734,-1036.288319,814.226536,-9576.193725
937.587054,-740.205942,1554.432478,-9882.631924
937.587374,-1332.370696,-740.205942,-9576.193725
937.587694,-1628.453072,-2368.659014,-9116.536426
937.588014,-2886.803174,-3256.906145,-9499.584175
937.588334,-2590.720797,-2812.782580,-9806.022374
937.588654,-222.061783,222.061783,-9959.241474
937.588974,888.247130,2664.741391,-10801.946522
937.589294,1702.473667,2442.679609,-10189.070123
937.589614,3627.009116,2220.617826,-11184.994271
937.589934,2294.638420,370.102971,-10955.165621
937.590254,1776.494261,592.164754,-11031.775171
937.590574,-2146.597232,1258.350101,-10418.898773
937.590894,-1776.494261,370.102971,-11031.775171
937.591214,-814.226536,0.000000,-10495.508323
937.591534,296.082377,-2294.638420,-10878.556072
937.591854,1184.329507,-962.267725,-10418.898773
937.592174,-666.185348,2294.638420,-10189.070123
937.592494,0.000000,4515.256246,-11491.432470
937.592814,1406.391290,5033.400406,-10495.508323
937.593134,4367.215058,2294.638420,-10725.336972
937.593454,5033.400406,-2072.576638,-9882.631924
937.593774,2812.782580,-3478.967927,-8963.317327
937.594094,-222.061783,-2664.741391,-9576.193725
937.594414,740.205942,814.226536,-9269.755526
937.594734,2072.576638,4959.379811,-9806.022374
937.595054,3256.906145,5699.585753,-10265.679673
937.595374,1702.473667,3034.844362,-8656.879127
937.595694,888.247130,-888.247130,-9116.536426
937.596014,1036.288319,-3997.112087,-8963.317327
937.596334,814.226536,-4441.235652,-8886.707777
937.596654,222.061783,-2442.679609,-8810.098227
937.596974,2368.659014,-296.082377,-8733.488677
937.597294,3256.906145,666.185348,-9576.193725
937.597614,3849.070898,3552.988522,-10955.165621
937.597934,2812.782580,4071.132681,-10725.336972
937.598254,740.205942,3404.947333,-10035.851024
937.598574,2072.576638,2886.803174,-10495.508323
937.598894,1110.308913,-1332.370696,-10342.289223
937.599214,888.247130,-3701.029710,-10418.898773
937.599534,-1406.391290,-3552.988522,-9806.022374
937.599854,-3404.947333,-2368.659014,-11031.775171
937.600174,-3182.885551,1480.411884,-10878.556072
937.600494,-666.185348,4515.256246,-11644.651570
937.600814,-592.164754,4367.215058,-11261.603821
937.601134,1036.288319,2812.782580,-11108.384721
937.601454,2072.576638,444.123565,-11261.603821
937.601774,74.020594,-1480.411884,-10878.556072
937.602094,2146.597232,-962.267725,-10495.508323
937.602414,1036.288319,888.247130,-11414.822920
937.602734,-3701.029710,3552.988522,-10342.289223
937.603054,-5551.544565,1110.308913,-10035.851024
937.603374,-2664.741391,-1702.473667,-9652.803275
937.603694,444.123565,-1628.453072,-9806.022374
937.604014,-518.144159,-1554.432478,-10189.070123
937.604334,-2960.823768,-296.082377,-8350.440928
937.604654,-2146.597232,-370.102971,-9652.803275
937.604974,-1776.494261,-1406.391290,-8273.831378
937.605294,1480.411884,-1628.453072,-9882.631924
937.605614,1850.514855,-1258.350101,-9116.536426
937.605934,3478.967927,518.144159,-9882.631924
937.606254,1110.308913,2146.597232,-9269.755526
937.606574,3034.844362,1406.391290,-9959.241474
937.606894,888.247130,148.041188,-9039.926876
937.607214,-2442.679609,-1258.350101,-9729.412825
937.607534,-2886.803174,-1850.514855,-8733.488677
937.607854,-2294.638420,-2442.679609,-8886.707777
937.608174,666.185348,-2812.782580,-9269.755526
937.608494,3034.844362,-962.267725,-10265.679673
937.608814,3108.864956,740.205942,-10495.508323
937.609134,3182.885551,1554.432478,-10878.556072
937.609454,1924.535449,2886.803174,-10572.117872
937.609774,3552.988522,3404.947333,-11261.603821
937.610094,4737.318029,3034.844362,-11414.822920
937.610414,3330.926739,1332.370696,-11951.089769
937.610734,740.205942,-1110.308913,-10878.556072
937.611055,888.247130,-2220.617826,-10878.556072
937.611375,148.041188,-1776.494261,-10648.727422
937.611695,1776.494261,518.144159,-10418.898773
937.612015,370.102971,2812.782580,-10878.556072
937.612335,1406.391290,2590.720797,-10648.727422
937.612655,3108.864956,296.082377,-10801.946522
937.612975,2738.761985,-1184.329507,-10265.679673
937.613295,3849.070898,-518.144159,-10035.851024
937.613615,1776.494261,1110.308913,-10801.946522
937.613935,962.267725,2146.597232,-9806.022374
937.614255,740.205942,814.226536,-9729.412825
937.614575,1332.370696,-592.164754,-9576.193725
937.614895,2146.597232,-1184.329507,-10035.851024
937.615215,1480.411884,-1036.288319,-9806.022374
937.615535,1998.556043,222.061783,-9806.022374
937.615855,0.000000,1702.473667,-9422.974625
937.616175,-2590.720797,2664.741391,-9652.803275
937.616495,-3256.906145,592.164754,-9116.536426
937.616815,-3182.885551,-1332.370696,-9346.365076
937.617135,-2960.823768,-3256.906145,-8656.879127
937.617455,-1702.473667,-3775.050304,-9346.365076
937.617775,-222.061783,-1184.329507,-9729.412825
937.618095,1628.453072,1628.453072,-10265.679673
937.618415,1110.308913,3404.947333,-10112.460574
937.618735,0.000000,3701.029710,-10035.851024
937.619055,-1628.453072,1702.473667,-9806.022374
937.619375,-1036.288319,1406.391290,-10495.508323
937.619695,-814.226536,-888.247130,-10572.117872
937.620015,-2738.761985,-2590.720797,-10035.851024
937.620335,-740.205942,-2664.741391,-10189.070123
937.620655,-666.185348,-1554.432478,-10878.556072
937.620975,-444.123565,740.205942,-10418.898773
937.621295,-3108.864956,3627.009116,-10572.117872
937.621615,-1998.556043,5329.482782,-10955.165621
937.621935,1406.391290,3404.947333,-10648.727422
937.622255,3627.009116,-148.041188,-11721.261119
937.622575,814.226536,-3404.947333,-9959.241474
937.622895,-1628.453072,-4145.153275,-9499.584175
937.623215,-1184.329507,-444.123565,-9806.022374
937.623535,1850.514855,2368.659014,-9806.022374
937.623855,3997.112087,5477.523971,-11568.042020
937.624175,2368.659014,5107.421000,-11031.775171
937.624495,148.041188,2220.617826,-9806.022374
937.624815,1110.308913,-592.164754,-9039.926876
937.625135,2516.700203,-2590.720797,-9499.584175
937.625455,1036.288319,-2886.803174,-8733.488677
937.625775,-444.123565,-3108.864956,-9039.926876
937.626095,-518.144159,-3701.029710,-8044.002729
937.626415,3256.906145,-4219.173869,-8580.269578
937.626735,6143.709319,1110.308913,-9269.755526
937.627055,5255.462188,5033.400406,-10801.946522
937.627375,3182.885551,6513.812290,-9806.022374
937.627695,888.247130,4219.173869,-10648.727422
937.628015,148.041188,-1184.329507,-9116.536426
937.628335,74.020594,-5551.544565,-9806.022374
937.628655,0.000000,-5255.462188,-9269.755526
937.628975,74.020594,-3701.029710,-9729.412825
937.629295,1406.391290,74.020594,-10265.679673
937.629615,2516.700203,3997.112087,-10572.117872
937.629935,2812.782580,4959.379811,-11951.089769
937.630255,1258.350101,3108.864956,-10955.165621
937.630575,1110.308913,518.144159,-11108.384721
937.630895,1332.370696,-518.144159,-10878.556072
937.631215,1924.535449,814.226536,-11184.994271
937.631535,296.082377,1628.453072,-11184.994271
937.631855,-1702.473667,1406.391290,-10878.556072
937.632175,-3775.050304,2590.720797,-10878.556072
937.632495,-3404.947333,296.082377,-10572.117872
937.632815,-592.164754,-740.205942,-10955.165621
937.633135,2812.782580,-370.102971,-10418.898773
937.633455,888.247130,962.267725,-10112.460574
937.633775,-1480.411884,518.144159,-9499.584175
937.634095,-3034.844362,0.000000,-9652.803275
937.634415,-2146.597232,-1258.350101,-8733.488677
937.634735,370.102971,-2072.576638,-9576.193725
937.635055,-814.226536,-592.164754,-8733.488677
937.635375,-962.267725,1184.329507,-9882.631924
937.635695,0.000000,2442.679609,-9576.193725
937.636015,-296.082377,3627.009116,-9576.193725
937.636335,-1480.411884,666.185348,-9269.755526
937.636655,-4367.215058,-666.185348,-8273.831378
937.636975,-4737.318029,-3552.988522,-8733.488677
937.637295,-2738.761985,-3849.070898,-8886.707777
937.637615,-2072.576638,-2294.638420,-9346.365076
937.637935,2368.659014,-814.226536,-9882.631924
937.638255,3923.091493,1480.411884,-9729.412825
937.638575,3997.112087,3775.050304,-10189.070123
937.638895,3330.926739,6217.729913,-10955.165621
937.639215,3552.988522,6957.935855,-11031.775171
937.639535,1924.535449,2960.823768,-11338.213370
937.639855,0.000000,-2146.597232,-10342.289223
937.640175,-222.061783,-4145.153275,-9576.193725
937.640495,0.000000,-2886.803174,-10801.946522
937.640815,2442.679609,74.020594,-10878.556072
937.641135,3108.864956,1924.535449,-10801.946522
937.641455,0.000000,4145.153275,-11261.603821
937.641775,-444.123565,4811.338623,-10725.336972
937.642095,2368.659014,2072.576638,-11874.480219
937.642415,5551.544565,-1332.370696,-10112.460574
937.642735,5625.565159,-370.102971,-10878.556072
937.643055,2072.576638,-296.082377,-9959.241474
937.643375,3182.885551,2664.741391,-11031.775171
937.643695,3627.009116,3997.112087,-11261.603821
937.644015,3256.906145,3256.906145,-10189.070123
937.644335,-1184.329507,2516.700203,-9346.365076
937.644655,-2886.803174,666.185348,-9806.022374
937.644975,148.041188,222.061783,-9806.022374
937.645295,1776.494261,-4737.318029,-9193.145976
937.645615,814.226536,-2368.659014,-9806.022374
937.645935,-1850.514855,-2886.803174,-8656.879127
937.646255,0.000000,-296.082377,-9576.193725
937.646575,1332.370696,1332.370696,-9422.974625
937.646895,2220.617826,2960.823768,-10112.460574
937.647215,1110.308913,2664.741391,-10035.851024
937.647534,1776.494261,2294.638420,-10189.070123
937.647854,518.144159,-1036.288319,-9652.803275
937.648174,-2738.761985,-2516.700203,-9882.631924
937.648494,-4737.318029,-4515.256246,-8886.707777
937.648814,-5773.606348,-2368.659014,-10572.117872
937.649134,-5107.421000,-1776.494261,-9039.926876
937.649454,-740.205942,370.102971,-10342.289223
937.649774,-2072.576638,370.102971,-10189.070123
937.650094,-1554.432478,518.144159,-11338.213370
937.650414,-1406.391290,1998.556043,-10112.460574
937.650734,148.041188,1036.288319,-11261.603821
937.651054,-148.041188,592.164754,-10112.460574
937.651374,-666.185348,-814.226536,-10725.336972
937.651694,-1998.556043,-888.247130,-10342.289223
937.652014,-2368.659014,-740.205942,-10342.289223
937.652334,-2664.741391,222.061783,-10648.727422
937.652654,-1924.535449,1776.494261,-10801.946522
937.652974,0.000000,2220.617826,-10342.289223
937.653294,1924.535449,2590.720797,-9806.022374
937.653614,3404.947333,518.144159,-10265.679673
937.653934,2960.823768,-1406.391290,-9882.631924
937.654254,2146.597232,-2960.823768,-9269.755526
937.654574,3552.988522,-2442.679609,-9652.803275
937.654894,2812.782580,-444.123565,-10189.070123
937.655214,1776.494261,1036.288319,-9729.412825
937.655534,1776.494261,2886.803174,-10035.851024
937.655854,2812.782580,3404.947333,-10112.460574
937.656174,3108.864956,4885.359217,-10342.289223
937.656494,1628.453072,1850.514855,-10342.289223
937.656813,1628.453072,-1184.329507,-9882.631924
937.657133,296.082377,-5699.585753,-8886.707777
937.657453,1406.391290,-5699.585753,-10342.289223
937.657773,1480.411884,-3108.864956,-9346.365076
937.658093,814.226536,370.102971,-9652.803275
937.658413,3034.844362,4219.173869,-9959.241474
937.658733,6661.853478,5921.647536,-11031.775171
937.659053,7550.100608,5033.400406,-10801.946522
937.659373,3849.070898,1998.556043,-10189.070123
937.659693,296.082377,-1258.350101,-9882.631924
937.660013,518.144159,-3330.926739,-10112.460574
937.660333,0.000000,-592.164754,-8963.317327
937.660653,-222.061783,1184.329507,-10342.289223
937.660973,-740.205942,3478.967927,-10725.336972
937.661293,-666.185348,3923.091493,-10112.460574
937.661613,666.185348,2886.803174,-11644.651570
937.661933,2294.638420,-370.102971,-10112.460574
937.662253,2146.597232,-2738.761985,-10342.289223
937.662573,-1110.308913,-2072.576638,-9882.631924
937.662893,-3478.967927,0.000000,-10035.851024
937.663213,-1924.535449,2442.679609,-10418.898773
937.663533,-518.144159,3775.050304,-10572.117872
937.663853,-1406.391290,2886.803174,-10265.679673
937.664173,-4663.297435,2220.617826,-10495.508323
937.664493,-3701.029710,0.000000,-10035.851024
937.664813,-592.164754,-1628.453072,-9882.631924
937.665133,-888.247130,-3256.906145,-9729.412825
937.665453,-2220.617826,-2072.576638,-9346.365076
937.665773,-3923.091493,222.061783,-9729.412825
937.666092,-1628.453072,2590.720797,-11338.213370
937.666412,1332.370696,3849.070898,-10035.851024
937.666732,1258.350101,3627.009116,-10495.508323
937.667052,666.185348,1480.411884,-9652.803275
937.667372,888.247130,-1924.535449,-9039.926876
937.667692,740.205942,-2812.782580,-9269.755526
937.668012,592.164754,-2368.659014,-9499.584175
937.668332,444.123565,592.164754,-10189.070123
937.668652,-518.144159,3478.967927,-10112.460574
937.668972,0.000000,2664.741391,-9959.241474
937.669292,222.061783,1184.329507,-10189.070123
937.669612,1702.473667,-444.123565,-10112.460574
937.669932,1776.494261,-1924.535449,-9882.631924
937.670252,962.267725,444.123565,-9652.803275
937.670572,370.102971,888.247130,-9959.241474
937.670892,4515.256246,1850.514855,-9959.241474
937.671212,5329.482782,1850.514855,-10495.508323
937.671532,3849.070898,666.185348,-10572.117872
937.671852,814.226536,0.000000,-9882.631924
937.672172,592.164754,-444.123565,-9882.631924
937.672492,3552.988522,1036.288319,-10189.070123
937.672812,5773.606348,148.041188,-10725.336972
937.673132,4737.318029,-1628.453072,-9959.241474
937.673452,370.102971,-1628.453072,-9959.241474
937.673772,-888.247130,-666.185348,-9959.241474
937.674092,74.020594,0.000000,-10112.460574
937.674412,814.226536,1628.453072,-9729.412825
937.674732,1110.308913,222.061783,-10418.898773
937.675052,1110.308913,-1184.329507,-10418.898773
937.675371,814.226536,-666.185348,-9806.022374
937.675691,2146.597232,296.082377,-10265.679673
937.676011,1628.453072,1184.329507,-9193.145976
937.676331,1924.535449,1332.370696,-10342.289223
937.676651,74.020594,-592.164754,-10265.679673
937.676971,-1184.329507,-2072.576638,-9576.193725
937.677291,-3256.906145,-1850.514855,-9729.412825
937.677611,-2220.617826,-1406.391290,-10112.460574
937.677931,0.000000,0.000000,-9882.631924
937.678251,0.000000,296.082377,-10342.289223
937.678571,-1480.411884,-444.123565,-9576.193725
937.678891,-296.082377,518.144159,-11491.432470
937.679211,-518.144159,-592.164754,-10418.898773
937.679531,-3034.844362,0.000000,-10342.289223
937.679851,-3997.112087,-296.082377,-9576.193725
937.680171,-1850.514855,-222.061783,-10035.851024
937.680491,-1480.411884,592.164754,-9422.974625
937.680811,-222.061783,1036.288319,-10878.556072
937.681131,-1036.288319,0.000000,-9806.022374
937.681451,-1924.535449,-740.205942,-9806.022374
937.681771,-148.041188,-1110.308913,-10265.679673
937.682091,2516.700203,-1332.370696,-9576.193725
937.682411,1554.432478,148.041188,-10418.898773
937.682731,-370.102971,1184.329507,-10189.070123
937.683051,-1628.453072,0.000000,-8733.488677
937.683371,-740.205942,1184.329507,-9652.803275
937.683691,1702.473667,1110.308913,-10725.336972
937.684011,1924.535449,74.020594,-9882.631924
937.684330,888.247130,296.082377,-10342.289223
937.684650,-222.061783,2220.617826,-9959.241474
937.684970,666.185348,2442.679609,-9882.631924
937.685290,1776.494261,2886.803174,-10648.727422
937.685610,1184.329507,2812.782580,-10495.508323
937.685930,444.123565,-888.247130,-9806.022374
937.686250,-444.123565,-2368.659014,-8656.879127
937.686570,1776.494261,-2294.638420,-9959.241474
937.686890,2590.720797,-888.247130,-10035.851024
937.687210,1998.556043,962.267725,-10265.679673
937.687530,2738.761985,2072.576638,-10189.070123
937.687850,4959.379811,3330.926739,-11108.384721
937.688170,4737.318029,2146.597232,-10112.460574
937.688490,3478.967927,518.144159,-10189.070123
937.688810,1480.411884,222.061783,-8656.879127
937.689130,1110.308913,-888.247130,-9959.241474
937.689450,3034.844362,-1332.370696,-9882.631924
937.689770,4219.173869,222.061783,-10112.460574
937.690090,3478.967927,296.082377,-10801.946522
937.690410,1702.473667,1184.329507,-9269.755526
937.690730,1184.329507,2960.823768,-10878.556072
937.691050,962.267725,3997.112087,-10342.289223
937.691370,888.247130,3034.844362,-11031.775171
937.691690,-296.082377,1480.411884,-10265.679673
937.692010,-2368.659014,-1628.453072,-9806.022374
937.692330,-3404.947333,-2442.679609,-9269.755526
937.692650,-1998.556043,-962.267725,-9652.803275
937.692970,1110.308913,148.041188,-11108.384721
937.693290,1998.556043,1406.391290,-10878.556072
937.693609,74.020594,814.226536,-9806.022374
937.693929,-1480.411884,1628.453072,-9652.803275
937.694249,-370.102971,1110.308913,-10495.508323
937.694569,444.123565,1258.350101,-10648.727422
937.694889,-1850.514855,1406.391290,-10112.460574
937.695209,-4441.235652,592.164754,-9882.631924
937.695529,-3849.070898,-370.102971,-9116.536426
937.695849,-1776.494261,-2664.741391,-9422.974625
937.696169,-1110.308913,-1924.535449,-10342.289223
937.696489,-1628.453072,-1406.391290,-9806.022374
937.696809,-1776.494261,-296.082377,-9652.803275
937.697129,-888.247130,1628.453072,-8963.317327
937.697449,-1406.391290,3478.967927,-10572.117872
937.697769,-222.061783,2146.597232,-10801.946522
937.698089,-222.061783,-1184.329507,-9039.926876
937.698409,-444.123565,-4589.276840,-9269.755526
937.698729,0.000000,-3256.906145,-9039.926876
937.699049,1850.514855,-1628.453072,-10648.727422
937.699369,1924.535449,222.061783,-11184.994271
937.699689,592.164754,2886.803174,-9576.193725
937.700009,-1258.350101,4441.235652,-10878.556072
937.700329,-814.226536,1998.556043,-10342.289223
937.700649,740.205942,0.000000,-10495.508323
937.700969,814.226536,-2738.761985,-10265.679673
937.701289,2442.679609,-3108.864956,-9346.365076
937.701609,2590.720797,-2516.700203,-10189.070123
937.701929,1628.453072,-592.164754,-10495.508323
937.702249,2368.659014,962.267725,-10572.117872
937.702569,2368.659014,3997.112087,-11414.822920
937.702888,1850.514855,2812.782580,-10265.679673
937.703208,1850.514855,1258.350101,-9959.241474
937.703528,2220.617826,0.000000,-10342.289223
937.703848,4145.153275,-740.205942,-10418.898773
937.704168,4219.173869,-1702.473667,-10265.679673
937.704488,2220.617826,-370.102971,-10112.460574
937.704808,370.102971,-222.061783,-9806.022374
937.705128,2590.720797,222.061783,-11108.384721
937.705448,4441.235652,1554.432478,-10725.336972
937.705768,2590.720797,2664.741391,-10495.508323
937.706088,-666.185348,1924.535449,-9422.974625
937.706408,0.000000,296.082377,-9806.022374
937.706728,3552.988522,0.000000,-10495.508323
937.707048,4737.318029,-814.226536,-10189.070123
937.707368,296.082377,-518.144159,-9193.145976
937.707688,-2368.659014,-1702.473667,-10035.851024
937.708008,-1258.350101,-222.061783,-9882.631924
937.708328,1406.391290,1406.391290,-10189.070123
937.708648,2072.576638,2590.720797,-10035.851024
937.708968,-1776.494261,2072.576638,-9422.974625
937.709288,-3849.070898,2072.576638,-10035.851024
937.709608,-1036.288319,296.082377,-9576.193725
937.709928,1702.473667,-962.267725,-10265.679673
937.710248,740.205942,-962.267725,-9422.974625
937.710568,-1184.329507,-222.061783,-9499.584175
937.710888,-2368.659014,1554.432478,-9806.022374
937.711208,-1184.329507,1036.288319,-10265.679673
937.711528,296.082377,1036.288319,-9882.631924
937.711848,-592.164754,222.061783,-9499.584175
937.712167,-2664.741391,-740.205942,-9806.022374
937.712487,-2072.576638,222.061783,-9806.022374
937.712807,-518.144159,592.164754,-10418.898773
937.713127,222.061783,1702.473667,-10725.336972
937.713447,-1554.432478,1332.370696,-9806.022374
937.713767,-1998.556043,296.082377,-9959.241474
937.714087,-592.164754,-1554.432478,-10112.460574
937.714407,444.123565,-1480.411884,-10265.679673
937.714727,-1332.370696,1036.288319,-10265.679673
937.715047,-2960.823768,1628.453072,-10265.679673
937.715367,-1628.453072,2072.576638,-10342.289223
937.715687,1036.288319,518.144159,-10878.556072
937.716007,3775.050304,2442.679609,-10418.898773
937.716327,1702.473667,2960.823768,-10878.556072
937.716647,-148.041188,3478.967927,-10189.070123
937.716967,592.164754,2812.782580,-10418.898773
937.717287,3108.864956,1628.453072,-9116.536426
937.717607,2960.823768,-148.041188,-10035.851024
937.717927,1406.391290,-2220.617826,-10342.289223
937.718247,814.226536,-1628.453072,-9576.193725
937.718567,962.267725,-962.267725,-10342.289223
937.718887,3627.009116,1406.391290,-9652.803275
937.719207,3330.926739,1406.391290,-10112.460574
937.719527,740.205942,1850.514855,-9729.412825
937.719847,-592.164754,0.000000,-9039.926876
937.720167,-296.082377,-222.061783,-9882.631924
937.720487,4145.153275,-518.144159,-10112.460574
937.720807,5403.503377,-1036.288319,-9882.631924
937.721126,3478.967927,-1184.329507,-10035.851024
937.721446,74.020594,-296.082377,-8656.879127
937.721766,-1110.308913,370.102971,-9959.241474
937.722086,1406.391290,444.123565,-9959.241474
937.722406,2442.679609,148.041188,-10035.851024
937.722726,2368.659014,-370.102971,-10035.851024
937.723046,0.000000,-592.164754,-10035.851024
937.723366,222.061783,-1332.370696,-10342.289223
937.723686,592.164754,-888.247130,-10572.117872
937.724006,592.164754,370.102971,-9806.022374
937.724326,-1184.329507,1924.535449,-10189.070123
937.724646,-1110.308913,1702.473667,-10495.508323
937.724966,740.205942,888.247130,-10572.117872
937.725286,888.247130,148.041188,-11261.603821
937.725606,-740.205942,-814.226536,-9806.022374
937.725926,-1554.432478,-1258.350101,-10955.165621
937.726246,-2590.720797,-2220.617826,-10112.460574
937.726566,-1332.370696,-1332.370696,-9576.193725
937.726886,-814.226536,-370.102971,-10572.117872
937.727206,-370.102971,1110.308913,-10189.070123
937.727526,518.144159,1480.411884,-10648.727422
937.727846,962.267725,666.185348,-10955.165621
937.728166,2516.700203,1258.350101,-10648.727422
937.728486,-444.123565,1036.288319,-10112.460574
937.728806,-4663.297435,592.164754,-9193.145976
937.729126,-4663.297435,0.000000,-9422.974625
937.729446,-666.185348,-370.102971,-9959.241474
937.729766,2664.741391,-814.226536,-10035.851024
937.730086,1036.288319,148.041188,-9576.193725
937.730405,-148.041188,-296.082377,-9959.241474
937.730725,-370.102971,518.144159,-9346.365076
937.731045,1332.370696,1850.514855,-10112.460574
937.731365,2886.803174,2516.700203,-9959.241474
937.731685,1776.494261,2294.638420,-9959.241474
937.732005,370.102971,1406.391290,-9959.241474
937.732325,740.205942,962.267725,-9882.631924
937.732645,1554.432478,592.164754,-9652.803275
937.732965,1332.370696,1998.556043,-9806.022374
937.733285,370.102971,2072.576638,-10418.898773
937.733605,1332.370696,1332.370696,-9959.241474
937.733925,1850.514855,0.000000,-10189.070123
937.734245,1480.411884,-740.205942,-9959.241474
937.734565,888.247130,-1036.288319,-9806.022374
937.734885,-222.061783,148.041188,-10189.070123
937.735205,1036.288319,2072.576638,-9576.193725
937.735525,2516.700203,2516.700203,-10265.679673
937.735845,3627.009116,3108.864956,-10725.336972
937.736165,6365.771101,1406.391290,-10878.556072
937.736485,6069.688724,1258.350101,-10418.898773
937.736805,2960.823768,2590.720797,-10342.289223
937.737125,1702.473667,3108.864956,-10189.070123
937.737445,222.061783,3182.885551,-10801.946522
937.737765,814.226536,1628.453072,-10418.898773
937.738085,592.164754,74.020594,-9882.631924
937.738405,-1480.411884,-222.061783,-9499.584175
937.738725,666.185348,0.000000,-10955.165621
937.739045,3775.050304,2886.803174,-10265.679673
937.739365,4663.297435,3997.112087,-10801.946522
937.739684,3701.029710,3478.967927,-10265.679673
937.740004,1258.350101,1628.453072,-8886.707777
937.740324,1406.391290,296.082377,-9729.412825
937.740644,1924.535449,1776.494261,-9499.584175
937.740964,1776.494261,3552.988522,-10265.679673
937.741284,-518.144159,3034.844362,-9959.241474
937.741604,-444.123565,740.205942,-7967.393179
937.741924,444.123565,-888.247130,-9576.193725
937.742244,962.267725,-888.247130,-9652.803275
937.742564,814.226536,370.102971,-10189.070123
937.742884,-740.205942,2442.679609,-9576.193725
937.743204,-592.164754,2812.782580,-10342.289223
937.743524,1036.288319,2960.823768,-9806.022374
937.743844,1332.370696,2738.761985,-9806.022374
937.744164,1998.556043,1924.535449,-10648.727422
937.744484,2886.803174,2812.782580,-10112.460574
937.744804,3108.864956,2664.741391,-10572.117872
937.745124,4145.153275,2146.597232,-10725.336972
937.745443,2072.576638,1850.514855,-9652.803275
937.745763,-370.102971,1480.411884,-10265.679673
937.746083,296.082377,1332.370696,-9806.022374
937.746403,666.185348,1702.473667,-9959.241474
937.746723,3256.906145,2294.638420,-11031.775171
937.747043,3775.050304,3034.844362,-9346.365076
937.747363,4145.153275,3849.070898,-10955.165621
937.747683,4145.153275,3404.947333,-10725.336972
937.748003,4959.379811,3256.906145,-9729.412825
937.748322,4441.235652,3627.009116,-11184.994271
937.748642,3034.844362,3478.967927,-10342.289223
937.748962,2220.617826,3256.906145,-9499.584175
937.749282,1332.370696,3701.029710,-10725.336972
937.749602,1924.535449,3256.906145,-9806.022374
937.749922,2294.638420,3034.844362,-10189.070123
937.750242,2812.782580,2146.597232,-10572.117872
937.750562,3034.844362,888.247130,-9346.365076
937.750882,3034.844362,1110.308913,-9576.193725
937.751202,6587.832884,1110.308913,-10648.727422
937.751521,6587.832884,1702.473667,-9039.926876
937.751841,5181.441594,2590.720797,-10572.117872
937.752161,3404.947333,3034.844362,-10112.460574
937.752481,3552.988522,3256.906145,-10035.851024
937.752801,2146.597232,3552.988522,-10648.727422
937.753121,2590.720797,2516.700203,-9499.584175
937.753441,2516.700203,2294.638420,-10265.679673
937.753761,2590.720797,1406.391290,-9882.631924
937.754081,1850.514855,1184.329507,-10189.070123
937.754400,1184.329507,814.226536,-10418.898773
937.754720,962.267725,3256.906145,-9729.412825
937.755040,1406.391290,3552.988522,-10035.851024
937.755360,2368.659014,3849.070898,-9806.022374
937.755680,2812.782580,3256.906145,-10112.460574
937.756000,3404.947333,2886.803174,-10342.289223
937.756320,3108.864956,2516.700203,-10342.289223
937.756640,1924.535449,3404.947333,-10189.070123
937.756960,74.020594,3997.112087,-9729.412825
937.757280,-444.123565,2886.803174,-9346.365076
937.757599,1110.308913,2590.720797,-9806.022374
937.757919,1480.411884,1702.473667,-9806.022374
937.758239,1924.535449,2442.679609,-9269.755526
937.758559,2072.576638,3552.988522,-10648.727422
937.758879,962.267725,3478.967927,-9882.631924
937.759199,592.164754,2738.761985,-9576.193725
937.759519,1332.370696,1406.391290,-9882.631924
937.759839,1776.494261,888.247130,-10035.851024
937.760159,1184.329507,1184.329507,-10342.289223
937.760478,1110.308913,3182.885551,-10495.508323
937.760798,962.267725,4367.215058,-10342.289223
937.761118,296.082377,5107.421000,-10648.727422
937.761438,-592.164754,3923.091493,-10572.117872
937.761758,-666.185348,1480.411884,-9729.412825
937.762078,1110.308913,-296.082377,-10418.898773
937.762398,2738.761985,-444.123565,-9882.631924
937.762718,3034.844362,888.247130,-9959.241474
937.763038,4145.153275,2294.638420,-10112.460574
937.763358,5329.482782,3552.988522,-10265.679673
937.763677,4145.153275,5033.400406,-10572.117872
937.763997,2664.741391,4959.379811,-10572.117872
937.764317,3034.844362,5033.400406,-10418.898773
937.764637,4663.297435,3478.967927,-10801.946522
937.764957,4663.297435,2368.659014,-10342.289223
937.765277,3404.947333,962.267725,-10189.070123
937.765597,2146.597232,888.247130,-9269.755526
937.765917,1406.391290,1776.494261,-9806.022374
937.766237,1702.473667,3034.844362,-9806.022374
937.766556,888.247130,3923.091493,-9959.241474
937.766876,2146.597232,3404.947333,-9499.584175
937.767196,4071.132681,2738.761985,-9806.022374
937.767516,6217.729913,1850.514855,-10189.070123
937.767836,6143.709319,1850.514855,-10112.460574
937.768156,4441.235652,2368.659014,-10035.851024
937.768476,4441.235652,3997.112087,-10572.117872
937.768796,5403.503377,4145.153275,-10265.679673
937.769116,4737.318029,3997.112087,-10648.727422
937.769436,2738.761985,2886.803174,-10495.508323
937.769755,1036.288319,1628.453072,-9882.631924
937.770075,740.205942,888.247130,-10725.336972
937.770395,1628.453072,1332.370696,-10035.851024
937.770715,1702.473667,1110.308913,-10035.851024
937.771035,1036.288319,1332.370696,-9806.022374
937.771355,962.267725,2146.597232,-10035.851024
937.771675,2146.597232,2960.823768,-9652.803275
937.771995,3923.091493,3849.070898,-10801.946522
937.772315,4885.359217,3701.029710,-10725.336972
937.772634,3701.029710,3849.070898,-10189.070123
937.772954,1332.370696,2738.761985,-10265.679673
937.773274,-592.164754,2516.700203,-9729.412825
937.773594,296.082377,1406.391290,-10035.851024
937.773914,1332.370696,444.123565,-10342.289223
937.774234,592.164754,444.123565,-9499.584175
937.774554,-814.226536,1332.370696,-10342.289223
937.774874,-1628.453072,2368.659014,-9959.241474
937.775194,-148.041188,3330.926739,-10112.460574
937.775514,2516.700203,3552.988522,-10418.898773
937.775833,4663.297435,2294.638420,-9882.631924
937.776153,4441.235652,2368.659014,-10112.460574
937.776473,2368.659014,2960.823768,-10495.508323
937.776793,740.205942,3034.844362,-10035.851024
937.777113,296.082377,3478.967927,-9729.412825
937.777433,1110.308913,1998.556043,-9959.241474
937.777753,1850.514855,370.102971,-9499.584175
937.778073,1850.514855,-444.123565,-9959.241474
937.778393,2072.576638,888.247130,-9882.631924
937.778712,2146.597232,2960.823768,-9729.412825
937.779032,1258.350101,4811.338623,-10418.898773
937.779352,2220.617826,3923.091493,-9806.022374
937.779672,3997.112087,1332.370696,-10035.851024
937.779992,4663.297435,0.000000,-10112.460574
937.780312,3552.988522,740.205942,-10189.070123
937.780632,2368.659014,2516.700203,-10189.070123
937.780952,2664.741391,3997.112087,-10572.117872
937.781272,2146.597232,4367.215058,-9882.631924
937.781592,1776.494261,3108.864956,-10035.851024
937.781911,2294.638420,1480.411884,-9806.022374
937.782231,3182.885551,740.205942,-10035.851024
937.782551,4589.276840,1110.308913,-10112.460574
937.782871,4145.153275,2442.679609,-10418.898773
937.783191,4885.359217,3478.967927,-10035.851024
937.783511,5181.441594,4589.276840,-10189.070123
937.783831,4071.132681,5403.503377,-10801.946522
937.784151,1480.411884,5403.503377,-10572.117872
937.784471,148.041188,4145.153275,-10418.898773
937.784790,814.226536,1554.432478,-9806.022374
937.785110,1850.514855,-592.164754,-9806.022374
937.785430,2294.638420,-1628.453072,-9576.193725
937.785750,2220.617826,-296.082377,-9652.803275
937.786070,2738.761985,2812.782580,-9806.022374
937.786390,3923.091493,5995.668130,-10189.070123
937.786710,5329.482782,7328.038826,-10572.117872
937.787030,5699.585753,6439.791695,-10648.727422
937.787350,4071.132681,3552.988522,-10265.679673
937.787670,1850.514855,1184.329507,-9959.241474
937.787989,-666.185348,148.041188,-9652.803275
937.788309,-1406.391290,0.000000,-9499.584175
937.788629,-518.144159,740.205942,-9269.755526
937.788949,296.082377,1036.288319,-9499.584175
937.789269,444.123565,2146.597232,-9806.022374
937.789589,1406.391290,3404.947333,-10035.851024
937.789909,3330.926739,5033.400406,-10342.289223
937.790229,5107.421000,5847.626942,-10418.898773
937.790549,5995.668130,5477.523971,-10112.460574
937.790868,4589.276840,3775.050304,-10342.289223
937.791188,2516.700203,2516.700203,-9882.631924
937.791508,1332.370696,2146.597232,-10418.898773
937.791828,148.041188,2960.823768,-10112.460574
937.792148,-444.123565,3478.967927,-9806.022374
937.792468,-962.267725,2590.720797,-9882.631924
937.792788,-1702.473667,1480.411884,-9652.803275
937.793108,-1184.329507,222.061783,-9652.803275
937.793428,592.164754,666.185348,-9959.241474
937.793748,3330.926739,1998.556043,-10035.851024
937.794067,5625.565159,3701.029710,-10112.460574
937.794387,6809.894666,5033.400406,-10112.460574
937.794707,6661.853478,5477.523971,-10189.070123
937.795027,4885.359217,5847.626942,-10955.165621
937.795347,3034.844362,5107.421000,-10801.946522
937.795667,1406.391290,4071.132681,-10495.508323
937.795987,1036.288319,2220.617826,-10265.679673
937.796307,888.247130,0.000000,-9806.022374
937.796627,-222.061783,-666.185348,-9806.022374
937.796946,-888.247130,0.000000,-9499.584175
937.797266,74.020594,1554.432478,-10342.289223
937.797586,1850.514855,2960.823768,-9959.241474
937.797906,4367.215058,3552.988522,-9882.631924
937.798226,6217.729913,2590.720797,-9959.241474
937.798546,7031.956449,1702.473667,-11261.603821
937.798866,5403.503377,1184.329507,-9959.241474
937.799186,3330.926739,2220.617826,-10265.679673
937.799506,962.267725,2738.761985,-10112.460574
937.799826,-814.226536,2886.803174,-10495.508323
937.800145,-1776.494261,1776.494261,-9882.631924
937.800465,-1332.370696,-518.144159,-9959.241474
937.800785,-444.123565,-1628.453072,-9806.022374
937.801105,666.185348,-1184.329507,-9806.022374
937.801425,1480.411884,1110.308913,-10648.727422
937.801745,2738.761985,2886.803174,-10418.898773
937.802065,3997.112087,4441.235652,-10495.508323
937.802385,4663.297435,4663.297435,-10648.727422
937.802705,3775.050304,3997.112087,-10112.460574
937.803024,2812.782580,3478.967927,-10801.946522
937.803344,2442.679609,2590.720797,-10572.117872
937.803664,1406.391290,1776.494261,-10112.460574
937.803984,222.061783,740.205942,-9806.022374
937.804304,-222.061783,148.041188,-9806.022374
937.804624,370.102971,148.041188,-9806.022374
937.804944,1480.411884,1702.473667,-9806.022374
937.805264,2368.659014,2664.741391,-9959.241474
937.805584,4145.153275,3701.029710,-9959.241474
937.805903,5403.503377,4145.153275,-10035.851024
937.806223,6883.915261,4293.194464,-10035.851024
937.806543,7624.121203,4441.235652,-10265.679673
937.806863,7031.956449,5107.421000,-10495.508323
937.807183,5107.421000,5551.544565,-10112.460574
937.807503,2368.659014,4737.318029,-10035.851024
937.807823,0.000000,3256.906145,-9806.022374
937.808143,-1110.308913,1332.370696,-9269.755526
937.808463,-592.164754,444.123565,-9422.974625
937.808783,592.164754,-740.205942,-9346.365076
937.809102,2368.659014,222.061783,-9729.412825
937.809422,3849.070898,2590.720797,-9806.022374
937.809742,5181.441594,5107.421000,-9729.412825
937.810062,5403.503377,7476.080014,-9882.631924
937.810382,6439.791695,7328.038826,-10495.508323
937.810702,5551.544565,6735.874072,-10648.727422
937.811022,4293.194464,4811.338623,-10342.289223
937.811342,4145.153275,2664.741391,-10265.679673
937.811662,2146.597232,2146.597232,-10342.289223
937.811981,-444.123565,2220.617826,-10035.851024
937.812301,-2812.782580,2886.803174,-10112.460574
937.812621,-2960.823768,3330.926739,-9882.631924
937.812941,-888.247130,3108.864956,-10112.460574
937.813261,1554.432478,2516.700203,-10189.070123
937.813581,2886.803174,2516.700203,-10342.289223
937.813901,3108.864956,2442.679609,-9959.241474
937.814221,3627.009116,4071.132681,-9959.241474
937.814541,4441.235652,5625.565159,-10418.898773
937.814861,5773.606348,6217.729913,-10648.727422
937.815180,5625.565159,5255.462188,-10725.336972
937.815500,2368.659014,3997.112087,-10342.289223
937.815820,-2072.576638,2664.741391,-9806.022374
937.816140,-3775.050304,1480.411884,-9652.803275
937.816460,-2442.679609,814.226536,-9576.193725
937.816780,-592.164754,-296.082377,-9269.755526
937.817100,0.000000,592.164754,-8963.317327
937.817420,888.247130,0.000000,-9039.926876
937.817740,3997.112087,1702.473667,-9652.803275
937.818059,6661.853478,4515.256246,-10418.898773
937.818379,6513.812290,6513.812290,-10495.508323
937.818699,5847.626942,6809.894666,-10801.946522
937.819019,4589.276840,4885.359217,-10189.070123
937.819339,2516.700203,2516.700203,-10112.460574
937.819659,1110.308913,370.102971,-9652.803275
937.819979,444.123565,-1036.288319,-9346.365076
937.820299,444.123565,-518.144159,-9806.022374
937.820619,148.041188,0.000000,-9806.022374
937.820939,-296.082377,1480.411884,-9806.022374
937.821258,666.185348,2738.761985,-9806.022374
937.821578,3552.988522,2960.823768,-10342.289223
937.821898,5773.606348,2738.761985,-10572.117872
937.822218,7994.224174,2516.700203,-10495.508323
937.822538,7994.224174,2590.720797,-10725.336972
937.822858,6291.750507,3478.967927,-9729.412825
937.823178,3552.988522,3923.091493,-10495.508323
937.823498,1036.288319,3552.988522,-10725.336972
937.823818,74.020594,2072.576638,-10189.070123
937.824137,296.082377,74.020594,-10189.070123
937.824457,148.041188,-1184.329507,-10342.289223
937.824777,-592.164754,-1184.329507,-9882.631924
937.825097,-962.267725,0.000000,-9652.803275
937.825417,370.102971,1702.473667,-10112.460574
937.825737,3108.864956,2886.803174,-9422.974625
937.826057,5255.462188,2664.741391,-10112.460574
937.826377,6439.791695,2960.823768,-10878.556072
937.826697,6291.750507,3108.864956,-10035.851024
937.827017,4737.318029,4441.235652,-10418.898773
937.827336,3330.926739,4737.318029,-10572.117872
937.827656,2442.679609,3552.988522,-10112.460574
937.827976,0.000000,1480.411884,-10035.851024
937.828296,-2516.700203,-666.185348,-9806.022374
937.828616,-3627.009116,-2220.617826,-8886.707777
937.828936,-3552.988522,-1554.432478,-9806.022374
937.829256,296.082377,-888.247130,-9499.584175
937.829576,4145.153275,814.226536,-9576.193725
937.829896,4885.359217,3478.967927,-10265.679673
937.830215,3775.050304,4441.235652,-9652.803275
937.830535,3034.844362,5551.544565,-10112.460574
937.830855,4885.359217,6069.688724,-10955.165621
937.831175,5847.626942,5329.482782,-10572.117872
937.831495,3404.947333,3182.885551,-10955.165621
937.831815,0.000000,1184.329507,-9882.631924
937.832135,-1628.453072,0.000000,-9806.022374
937.832455,-1776.494261,148.041188,-10418.898773
937.832775,-666.185348,1184.329507,-9806.022374
937.833095,-814.226536,2072.576638,-9576.193725
937.833414,1184.329507,2368.659014,-10342.289223
937.833734,5551.544565,2220.617826,-9806.022374
937.834054,7846.182985,3627.009116,-10878.556072
937.834374,6883.915261,4737.318029,-10878.556072
937.834694,4811.338623,6143.709319,-10418.898773
937.835014,4737.318029,5773.606348,-10418.898773
937.835334,5699.585753,5477.523971,-10572.117872
937.835654,4589.276840,4441.235652,-10112.460574
937.835974,1332.370696,4071.132681,-10265.679673
937.836293,-740.205942,2442.679609,-10112.460574
937.836613,-1998.556043,1924.535449,-10035.851024
937.836933,-2146.597232,740.205942,-10035.851024
937.837253,-1480.411884,666.185348,-8503.660028
937.837573,962.267725,1184.329507,-9269.755526
937.837893,4737.318029,2368.659014,-9729.412825
937.838213,6365.771101,4367.215058,-9882.631924
937.838533,6661.853478,6365.771101,-9652.803275
937.838853,8364.327145,6587.832884,-9959.241474
937.839173,9178.553681,6883.915261,-10418.898773
937.839492,7105.977043,5551.544565,-10495.508323
937.839812,2368.659014,4737.318029,-9806.022374
937.840132,-592.164754,3034.844362,-9959.241474
937.840452,-1036.288319,592.164754,-9499.584175
937.840772,-2590.720797,-148.041188,-8886.707777
937.841092,-2738.761985,-1406.391290,-9346.365076
937.841412,-222.061783,-2294.638420,-8963.317327
937.841732,1258.350101,888.247130,-9959.241474
937.842052,2516.700203,4145.153275,-10112.460574
937.842371,3256.906145,6883.915261,-10648.727422
937.842691,4515.256246,8216.285956,-10265.679673
937.843011,5551.544565,7105.977043,-10725.336972
937.843331,4663.297435,5699.585753,-10878.556072
937.843651,2368.659014,3701.029710,-10418.898773
937.843971,1110.308913,1406.391290,-10265.679673
937.844291,888.247130,74.020594,-9882.631924
937.844611,592.164754,-444.123565,-10495.508323
937.844931,-888.247130,0.000000,-9806.022374
937.845251,-2442.679609,888.247130,-9116.536426
937.845570,-814.226536,2960.823768,-9576.193725
937.845890,1480.411884,4219.173869,-10418.898773
937.846210,2664.741391,4071.132681,-10342.289223
937.846530,5847.626942,3627.009116,-10035.851024
937.846850,7105.977043,3034.844362,-10342.289223
937.847170,7402.059420,3923.091493,-9806.022374
937.847490,4811.338623,3923.091493,-10648.727422
937.847810,2146.597232,3256.906145,-10572.117872
937.848130,74.020594,3034.844362,-9806.022374
937.848450,148.041188,2146.597232,-10495.508323
937.848770,0.000000,0.000000,-10035.851024
937.849090,0.000000,-1702.473667,-9959.241474
937.849410,518.144159,-2294.638420,-9652.803275
937.849730,740.205942,-2146.597232,-9806.022374
937.850050,1480.411884,1480.411884,-10035.851024
937.850370,2664.741391,4663.297435,-10495.508323
937.850690,5551.544565,7031.956449,-11184.994271
937.851010,7550.100608,6143.709319,-10878.556072
937.851330,7179.997637,4885.359217,-10572.117872
937.851650,4293.194464,3330.926739,-10495.508323
937.851970,2442.679609,1628.453072,-9652.803275
937.852290,888.247130,666.185348,-10495.508323
937.852610,1110.308913,-148.041188,-9959.241474
937.852930,1554.432478,-1036.288319,-9346.365076
937.853250,-222.061783,370.102971,-10035.851024
937.853570,-814.226536,1036.288319,-9806.022374
937.853890,0.000000,2442.679609,-9576.193725
937.854210,74.020594,4441.235652,-10648.727422
937.854530,3775.050304,3182.885551,-10035.851024
937.854850,6661.853478,444.123565,-9806.022374
937.855170,7105.977043,0.000000,-10418.898773
937.855490,7994.224174,-592.164754,-10265.679673
937.855810,4293.194464,2590.720797,-10265.679673
937.856130,2442.679609,4811.338623,-11261.603821
937.856450,3034.844362,4737.318029,-10189.070123
937.856770,740.205942,1998.556043,-10572.117872
937.857090,-1924.535449,-1924.535449,-10572.117872
937.857410,-4515.256246,-2146.597232,-9576.193725
937.857730,-2960.823768,-2664.741391,-10035.851024
937.858050,2294.638420,-1998.556043,-9729.412825
937.858370,4959.379811,444.123565,-9576.193725
937.858690,4885.359217,2146.597232,-10725.336972
937.859010,3182.885551,3997.112087,-9806.022374
937.859330,1776.494261,5329.482782,-10801.946522
937.859650,1554.432478,4959.379811,-10495.508323
937.859970,2368.659014,3034.844362,-9346.365076
937.860290,2368.659014,444.123565,-10648.727422
937.860610,1480.411884,-2220.617826,-9729.412825
937.860930,-1406.391290,-1850.514855,-9576.193725
937.861250,-3775.050304,-370.102971,-10648.727422
937.861570,-3627.009116,1554.432478,-8810.098227
937.861890,-2516.700203,3108.864956,-10495.508323
937.862210,0.000000,1998.556043,-10265.679673
937.862530,1406.391290,666.185348,-9499.584175
937.862850,1776.494261,666.185348,-11644.651570
937.863170,888.247130,1110.308913,-9499.584175
937.863490,1480.411884,2738.761985,-10265.679673
937.863810,2886.803174,3552.988522,-10495.508323
937.864130,4515.256246,1776.494261,-10035.851024
937.864450,2220.617826,666.185348,-11031.775171
937.864770,-1776.494261,222.061783,-9959.241474
937.865090,-5107.421000,1850.514855,-10801.946522
937.865410,-4071.132681,3330.926739,-10878.556072
937.865730,-1924.535449,3108.864956,-10112.460574
937.866050,-518.144159,2220.617826,-9806.022374
937.866370,1184.329507,-740.205942,-10495.508323
937.866690,3849.070898,-3182.885551,-9499.584175
937.867010,4367.215058,-2516.700203,-10189.070123
937.867330,3775.050304,444.123565,-10112.460574
937.867650,1110.308913,3182.885551,-10112.460574
937.867970,296.082377,3923.091493,-10265.679673
937.868290,1850.514855,2812.782580,-9882.631924
937.868610,2442.679609,2220.617826,-10648.727422
937.868930,888.247130,1776.494261,-9729.412825
937.869250,-1702.473667,888.247130,-9576.193725
937.869570,-2960.823768,-962.267725,-9346.365076
937.869890,-592.164754,-5921.647536,-8350.440928
937.870210,666.185348,-6365.771101,-8273.831378
937.870530,1184.329507,-4885.359217,-9269.755526
937.870850,518.144159,-592.164754,-8810.098227
937.871170,1406.391290,3108.864956,-9346.365076
937.871490,4441.235652,5699.585753,-10035.851024
937.871810,6883.915261,5107.421000,-10035.851024
937.872130,7105.977043,3552.988522,-10955.165621
937.872450,5181.441594,148.041188,-10342.289223
937.872770,2072.576638,-1702.473667,-10112.460574
937.873090,-370.102971,-1184.329507,-10035.851024
937.873410,-1480.411884,-1480.411884,-9882.631924
937.873730,-1406.391290,-962.267725,-10265.679673
937.874050,-1036.288319,-1628.453072,-11414.822920
937.874370,-1702.473667,-1036.288319,-9959.241474
937.874690,-592.164754,1480.411884,-11338.213370
937.875010,370.102971,3478.967927,-11184.994271
937.875330,962.267725,3552.988522,-11184.994271
937.875650,1776.494261,2812.782580,-11414.822920
937.875970,1776.494261,592.164754,-11338.213370
937.876289,222.061783,-74.020594,-10878.556072
937.876609,-1406.391290,0.000000,-10035.851024
937.876929,-1480.411884,0.000000,-9959.241474
937.877249,222.061783,444.123565,-10189.070123
937.877569,0.000000,296.082377,-10189.070123
937.877889,-2072.576638,-592.164754,-10189.070123
937.878209,-2738.761985,-1554.432478,-9422.974625
937.878529,-1480.411884,-1998.556043,-9576.193725
937.878849,-1258.350101,74.020594,-9269.755526
937.879169,962.267725,518.144159,-9499.584175
937.879489,2442.679609,1702.473667,-9806.022374
937.879809,2442.679609,3034.844362,-9806.022374
937.880129,1554.432478,3182.885551,-9729.412825
937.880449,0.000000,2590.720797,-9959.241474
937.880769,0.000000,962.267725,-9806.022374
937.881089,0.000000,-1554.432478,-9039.926876
937.881409,-2368.659014,-2886.803174,-8963.317327
937.881729,-3997.112087,-3256.906145,-9422.974625
937.882049,-2368.659014,-3404.947333,-8503.660028
937.882369,-1554.432478,-2294.638420,-9882.631924
937.882689,1036.288319,-518.144159,-9882.631924
937.883009,1184.329507,2294.638420,-10112.460574
937.883329,1184.329507,2442.679609,-10955.165621
937.883649,1480.411884,3775.050304,-10955.165621
937.883969,4145.153275,1850.514855,-10495.508323
937.884289,4589.276840,888.247130,-11184.994271
937.884609,3256.906145,-666.185348,-10725.336972
937.884929,296.082377,-1184.329507,-10112.460574
937.885249,-2664.741391,-370.102971,-11031.775171
937.885569,-2072.576638,1628.453072,-10189.070123
937.885889,-1628.453072,1850.514855,-10648.727422
937.886209,-148.041188,740.205942,-10572.117872
937.886529,148.041188,-1036.288319,-9729.412825
937.886849,1924.535449,-1998.556043,-9882.631924
937.887169,4885.359217,-1406.391290,-10189.070123
937.887489,7031.956449,74.020594,-10572.117872
937.887809,5181.441594,3108.864956,-10572.117872
937.888129,2146.597232,3997.112087,-10342.289223
937.888449,962.267725,3108.864956,-9729.412825
937.888769,1850.514855,1110.308913,-10801.946522
937.889089,148.041188,-1628.453072,-9652.803275
937.889409,-1480.411884,-3182.885551,-8656.879127
937.889729,-2294.638420,-4145.153275,-9576.193725
937.890049,-1332.370696,-3404.947333,-9422.974625
937.890369,-1776.494261,-1850.514855,-9576.193725
937.890689,-2738.761985,-222.061783,-9729.412825
937.891009,-1480.411884,740.205942,-9269.755526
937.891329,2812.782580,1924.535449,-10265.679673
937.891649,4589.276840,1924.535449,-10342.289223
937.891969,4441.235652,1258.350101,-10112.460574
937.892289,3108.864956,370.102971,-9882.631924
937.892609,1924.535449,148.041188,-10265.679673
937.892929,-444.123565,370.102971,-10418.898773
937.893249,-2812.782580,666.185348,-10035.851024
937.893569,-3552.988522,666.185348,-9652.803275
937.893889,-3552.988522,222.061783,-10342.289223
937.894209,-2146.597232,-1184.329507,-10189.070123
937.894529,-518.144159,-1628.453072,-10418.898773
937.894849,1036.288319,-888.247130,-10112.460574
937.895169,1776.494261,1628.453072,-10418.898773
937.895489,740.205942,3997.112087,-11261.603821
937.895809,592.164754,4663.297435,-10725.336972
937.896129,962.267725,3997.112087,-10801.946522
937.896449,814.226536,1776.494261,-10801.946522
937.896769,0.000000,370.102971,-9959.241474
937.897089,-1110.308913,-888.247130,-9959.241474
937.897409,-1554.432478,-1480.411884,-9652.803275
937.897729,-2072.576638,-740.205942,-9576.193725
937.898049,-1998.556043,-444.123565,-10342.289223
937.898369,-1554.432478,1036.288319,-9806.022374
937.898689,-1036.288319,-740.205942,-10265.679673
937.899009,296.082377,-1702.473667,-9499.584175
937.899329,1702.473667,-1258.350101,-9652.803275
937.899649,3256.906145,1480.411884,-10648.727422
937.899969,3775.050304,5107.421000,-10342.289223
937.900289,2368.659014,6809.894666,-11031.775171
937.900609,2516.700203,6809.894666,-11108.384721
937.900929,2516.700203,4589.276840,-11031.775171
937.901249,1258.350101,666.185348,-9729.412825
937.901569,-592.164754,-4663.297435,-8963.317327
937.901889,-814.226536,-7402.059420,-8656.879127
937.902209,-296.082377,-6217.729913,-9499.584175
937.902529,2442.679609,-3330.926739,-9269.755526
937.902849,5181.441594,2072.576638,-9959.241474
937.903169,4071.132681,5699.585753,-10648.727422
937.903489,2516.700203,7328.038826,-10572.117872
937.903809,2516.700203,4737.318029,-10572.117872
937.904129,3034.844362,1332.370696,-9882.631924
937.904449,3034.844362,-3108.864956,-9652.803275
937.904769,2072.576638,-5551.544565,-9652.803275
937.905089,-148.041188,-4737.318029,-9652.803275
937.905409,-1258.350101,-2368.659014,-9499.584175
937.905729,-1184.329507,148.041188,-9806.022374
937.906049,-888.247130,2738.761985,-10035.851024
937.906369,-1406.391290,2960.823768,-10265.679673
937.906689,0.000000,814.226536,-9729.412825
937.907009,1628.453072,-518.144159,-10801.946522
937.907329,3775.050304,-1924.535449,-10955.165621
937.907649,3182.885551,-1110.308913,-10035.851024
937.907969,518.144159,-962.267725,-10801.946522
937.908289,-666.185348,1406.391290,-10418.898773
937.908609,-2146.597232,3256.906145,-11184.994271
937.908929,-2738.761985,3404.947333,-10955.165621
937.909249,-4663.297435,2220.617826,-10112.460574
937.909569,-5847.626942,-1036.288319,-10801.946522
937.909889,-4071.132681,-3330.926739,-10189.070123
937.910209,-2294.638420,-4071.132681,-10189.070123
937.910529,-1628.453072,-4145.153275,-10265.679673
937.910849,-1850.514855,-1924.535449,-9729.412825
937.911169,-592.164754,1184.329507,-9806.022374
937.911489,740.205942,3997.112087,-10572.117872
937.911809,3404.947333,4515.256246,-10572.117872
937.912129,4589.276840,3552.988522,-10648.727422
937.912449,2516.700203,-296.082377,-10572.117872
937.912769,148.041188,-3256.906145,-9193.145976
937.913088,-1702.473667,-4589.276840,-9806.022374
937.913408,-4811.338623,-4219.173869,-8963.317327
937.913728,-2960.823768,-2886.803174,-9116.536426
937.914048,-3997.112087,-1036.288319,-9806.022374
937.914368,-1924.535449,370.102971,-9116.536426
937.914688,-370.102971,1332.370696,-9576.193725
937.915008,2960.823768,592.164754,-10572.117872
937.915328,4589.276840,-1702.473667,-9193.145976
937.915648,4959.379811,-740.205942,-10801.946522
937.915968,4737.318029,-296.082377,-9806.022374
937.916288,5403.503377,888.247130,-10112.460574
937.916608,4071.132681,2368.659014,-10725.336972
937.916928,-518.144159,3330.926739,-10035.851024
937.917248,-2220.617826,1406.391290,-10265.679673
937.917568,-444.123565,-962.267725,-10189.070123
937.917888,2960.823768,-3478.967927,-9959.241474
937.918208,3701.029710,-3330.926739,-10955.165621
937.918528,3478.967927,-1332.370696,-10648.727422
937.918848,3478.967927,1702.473667,-10495.508323
937.919168,3034.844362,3775.050304,-10955.165621
937.919488,3701.029710,4811.338623,-10725.336972
937.919808,3997.112087,3478.967927,-12027.699319
937.920128,1998.556043,1628.453072,-10495.508323
937.920448,888.247130,-370.102971,-11108.384721
937.920768,0.000000,-888.247130,-10035.851024
937.921088,888.247130,-814.226536,-9959.241474
937.921408,-296.082377,74.020594,-10035.851024
937.921728,-3627.009116,74.020594,-9806.022374
937.922048,-4515.256246,0.000000,-9422.974625
937.922368,0.000000,888.247130,-9116.536426
937.922688,2960.823768,740.205942,-10418.898773
937.923008,3182.885551,814.226536,-10265.679673
937.923328,814.226536,1628.453072,-9959.241474
937.923648,222.061783,1776.494261,-9576.193725
937.923968,-740.205942,2442.679609,-9729.412825
937.924288,0.000000,2664.741391,-9959.241474
937.924608,-1998.556043,2368.659014,-10035.851024
937.924928,-3182.885551,-1036.288319,-9193.145976
937.925248,-3404.947333,-1332.370696,-9729.412825
937.925568,-3701.029710,-1406.391290,-9039.926876
937.925888,-2146.597232,-1406.391290,-9269.755526
937.926208,-444.123565,74.020594,-9576.193725
937.926528,2368.659014,1406.391290,-10189.070123
937.926848,3775.050304,2442.679609,-11568.042020
937.927168,2072.576638,2442.679609,-10955.165621
937.927488,1776.494261,3404.947333,-11108.384721
937.927808,0.000000,3404.947333,-10878.556072
937.928128,-592.164754,2590.720797,-10572.117872
937.928448,-2146.597232,666.185348,-9806.022374
937.928768,-3478.967927,-1554.432478,-9729.412825
937.929088,-3182.885551,-2738.761985,-10495.508323
937.929408,-962.267725,-1924.535449,-10265.679673
937.929728,296.082377,-1184.329507,-10189.070123
937.930048,-370.102971,1184.329507,-10035.851024
937.930368,-296.082377,2960.823768,-10418.898773
937.930688,2294.638420,2590.720797,-10648.727422
937.931008,3034.844362,962.267725,-10035.851024
937.931328,3478.967927,-370.102971,-10495.508323
937.931648,1850.514855,-2368.659014,-10112.460574
937.931968,2590.720797,-3627.009116,-9729.412825
937.932288,4367.215058,-962.267725,-10418.898773
937.932608,3478.967927,0.000000,-9806.022374
937.932928,2442.679609,888.247130,-10189.070123
937.933248,592.164754,1776.494261,-9806.022374
937.933568,148.041188,2664.741391,-10495.508323
937.933888,-518.144159,2368.659014,-10342.289223
937.934208,518.144159,-888.247130,-10035.851024
937.934528,1258.350101,-3775.050304,-9806.022374
937.934848,2294.638420,-5921.647536,-9039.926876
937.935168,2738.761985,-4145.153275,-9806.022374
937.935488,2664.741391,-814.226536,-9806.022374
937.935808,1850.514855,2886.803174,-10572.117872
937.936128,888.247130,5403.503377,-11031.775171
937.936448,0.000000,4219.173869,-10265.679673
937.936768,1998.556043,2072.576638,-11184.994271
937.937088,1924.535449,-1480.411884,-9806.022374
937.937408,1184.329507,-2812.782580,-10112.460574
937.937728,1110.308913,-4737.318029,-10112.460574
937.938048,-962.267725,-4663.297435,-9576.193725
937.938368,-1776.494261,-2294.638420,-10648.727422
937.938688,-1776.494261,-370.102971,-9729.412825
937.939008,-1184.329507,3404.947333,-10035.851024
937.939328,-1554.432478,4811.338623,-11644.651570
937.939648,-1850.514855,3330.926739,-12104.308868
937.939968,-1110.308913,-666.185348,-10189.070123
937.940288,-518.144159,-3849.070898,-10418.898773
937.940608,0.000000,-5551.544565,-9116.536426
937.940928,370.102971,-4293.194464,-9422.974625
937.941248,962.267725,-518.144159,-10189.070123
937.941568,814.226536,3552.988522,-10725.336972
937.941888,1776.494261,4959.379811,-10878.556072
937.942208,-296.082377,3330.926739,-10418.898773
937.942528,-1258.350101,1924.535449,-10189.070123
937.942848,-370.102971,-888.247130,-10342.289223
937.943168,1184.329507,-2886.803174,-9499.584175
937.943488,1258.350101,-3627.009116,-9959.241474
937.943808,-1776.494261,-1332.370696,-9806.022374
937.944128,-2738.761985,1850.514855,-10495.508323
937.944448,-2516.700203,3330.926739,-10801.946522
937.944768,-518.144159,4219.173869,-10648.727422
937.945088,-1924.535449,2960.823768,-9499.584175
937.945408,-2812.782580,518.144159,-9806.022374
937.945728,0.000000,-3849.070898,-9346.365076
937.946047,5107.421000,-4145.153275,-9652.803275
937.946367,6143.709319,-2368.659014,-10035.851024
937.946687,4737.318029,-1184.329507,-9346.365076
937.947007,2368.659014,2294.638420,-9806.022374
937.947327,444.123565,4663.297435,-11261.603821
937.947647,1702.473667,4885.359217,-9882.631924
937.947967,3478.967927,3997.112087,-10955.165621
937.948287,3701.029710,1258.350101,-10112.460574
937.948607,444.123565,-1480.411884,-9806.022374
937.948927,-296.082377,-3775.050304,-9269.755526
937.949247,1480.411884,-3923.091493,-9729.412825
937.949567,2294.638420,-888.247130,-10801.946522
937.949887,1776.494261,3701.029710,-10572.117872
937.950207,1776.494261,6513.812290,-10725.336972
937.950527,3478.967927,6439.791695,-11338.213370
937.950847,1998.556043,3330.926739,-10265.679673
937.951167,592.164754,296.082377,-10189.070123
937.951486,-518.144159,-2072.576638,-9652.803275
937.951806,-444.123565,-3552.988522,-9652.803275
937.952126,1332.370696,-814.226536,-10189.070123
937.952446,148.041188,518.144159,-9882.631924
937.952766,0.000000,1554.432478,-10418.898773
937.953086,-888.247130,2368.659014,-9576.193725
937.953406,0.000000,2220.617826,-10342.289223
937.953726,814.226536,1258.350101,-9806.022374
937.954046,2738.761985,518.144159,-9269.755526
937.954366,1924.535449,444.123565,-10265.679673
937.954686,-1776.494261,-370.102971,-9806.022374
937.955006,-2590.720797,-444.123565,-10035.851024
937.955326,-3256.906145,-888.247130,-9346.365076
937.955646,-1776.494261,-962.267725,-9729.412825
937.955966,-2516.700203,-962.267725,-9039.926876
937.956286,-962.267725,-370.102971,-10035.851024
937.956606,296.082377,-518.144159,-9959.241474
937.956926,74.020594,814.226536,-9882.631924
937.957245,-1184.329507,518.144159,-10265.679673
937.957565,-1332.370696,-148.041188,-9806.022374
937.957885,1332.370696,814.226536,-10189.070123
937.958205,2664.741391,518.144159,-11568.042020
937.958525,1036.288319,0.000000,-9959.241474
937.958845,-814.226536,1332.370696,-11184.994271
937.959165,-3478.967927,1036.288319,-10495.508323
937.959485,-1258.350101,-296.082377,-10495.508323
937.959805,592.164754,-666.185348,-9806.022374
937.960125,-2294.638420,-2294.638420,-10265.679673
937.960445,-2960.823768,-1554.432478,-10189.070123
937.960765,-2294.638420,-1406.391290,-9652.803275
937.961085,2146.597232,-222.061783,-10725.336972
937.961405,5181.441594,148.041188,-10189.070123
937.961725,4959.379811,1036.288319,-10648.727422
937.962045,2294.638420,1184.329507,-10418.898773
937.962365,2220.617826,1258.350101,-10572.117872
937.962684,3552.988522,370.102971,-10878.556072
937.963004,3478.967927,-296.082377,-10725.336972
937.963324,814.226536,-2590.720797,-9652.803275
937.963644,-444.123565,-2812.782580,-9882.631924
937.963964,0.000000,-3627.009116,-9806.022374
937.964284,1998.556043,-1850.514855,-9729.412825
937.964604,3256.906145,0.000000,-10265.679673
937.964924,4589.276840,2812.782580,-10495.508323
937.965244,1480.411884,4219.173869,-10112.460574
937.965564,592.164754,2664.741391,-10725.336972
937.965884,444.123565,444.123565,-10342.289223
937.966204,1776.494261,-1998.556043,-9882.631924
937.966524,3108.864956,-2960.823768,-9882.631924
937.966844,2664.741391,-1998.556043,-9576.193725
937.967164,-740.205942,888.247130,-10265.679673
937.967484,-3108.864956,3997.112087,-10189.070123
937.967804,-2812.782580,4367.215058,-10418.898773
937.968124,-1184.329507,3627.009116,-10189.070123
937.968443,-740.205942,296.082377,-10801.946522
937.968763,-666.185348,-2590.720797,-9499.584175
937.969083,-518.144159,-3182.885551,-10189.070123
937.969403,-444.123565,-2368.659014,-9116.536426
937.969723,666.185348,1184.329507,-9806.022374
937.970043,0.000000,3182.885551,-10572.117872
937.970363,666.185348,4367.215058,-10418.898773
937.970683,296.082377,4663.297435,-11031.775171
937.971003,222.061783,3552.988522,-10725.336972
937.971323,592.164754,1628.453072,-10112.460574
937.971643,-444.123565,-592.164754,-10035.851024
937.971963,-148.041188,-1036.288319,-10035.851024
937.972283,296.082377,-1554.432478,-9499.584175
937.972603,-444.123565,1332.370696,-10035.851024
937.972923,74.020594,6069.688724,-10878.556072
937.973243,1184.329507,7846.182985,-10418.898773
937.973563,1480.411884,7920.203579,-11568.042020
937.973882,814.226536,4219.173869,-9729.412825
937.974202,-2442.679609,-2368.659014,-8886.707777
937.974522,-2960.823768,-6291.750507,-8503.660028
937.974842,-1480.411884,-7105.977043,-8197.221829
937.975162,1554.432478,-2960.823768,-8886.707777
937.975482,1998.556043,0.000000,-9729.412825
937.975802,-666.185348,3182.885551,-9806.022374
937.976122,0.000000,4515.256246,-9806.022374
937.976442,1036.288319,2960.823768,-10035.851024
937.976762,3849.070898,1850.514855,-11031.775171
937.977082,2590.720797,-518.144159,-10189.070123
937.977402,0.000000,-2738.761985,-9806.022374
937.977722,-296.082377,-3552.988522,-9116.536426
937.978042,518.144159,-2960.823768,-8810.098227
937.978362,2368.659014,-1332.370696,-9882.631924
937.978682,1924.535449,1850.514855,-10495.508323
937.979002,1036.288319,4293.194464,-11261.603821
