#time,accel_x,accel_y,accel_z
884.047885,1332.370696,-296.082377,-9959.241474
884.048205,444.123565,74.020594,-9959.241474
884.048525,666.185348,148.041188,-10112.460574
884.048845,444.123565,222.061783,-10112.460574
884.049165,222.061783,296.082377,-9882.631924
884.049486,222.061783,222.061783,-10035.851024
884.049806,444.123565,74.020594,-10035.851024
884.050126,370.102971,0.000000,-9959.241474
884.050446,740.205942,222.061783,-9806.022374
884.050767,888.247130,444.123565,-9959.241474
884.051087,1110.308913,296.082377,-10112.460574
884.051407,518.144159,222.061783,-10035.851024
884.051727,444.123565,296.082377,-9882.631924
884.052047,444.123565,-296.082377,-9346.365076
884.052368,740.205942,0.000000,-10189.070123
884.052688,740.205942,0.000000,-10342.289223
884.053008,-148.041188,222.061783,-9882.631924
884.053328,-296.082377,518.144159,-10035.851024
884.053648,148.041188,1036.288319,-9806.022374
884.053969,814.226536,592.164754,-10035.851024
884.054289,518.144159,444.123565,-10418.898773
884.054609,-296.082377,74.020594,-10189.070123
884.054929,444.123565,-222.061783,-10112.460574
884.055249,814.226536,148.041188,-10189.070123
884.055570,592.164754,0.000000,-10189.070123
884.055890,-444.123565,-518.144159,-10342.289223
884.056210,-740.205942,0.000000,-9959.241474
884.056530,0.000000,-370.102971,-9882.631924
884.056850,-222.061783,-518.144159,-10342.289223
884.057171,-814.226536,-666.185348,-10112.460574
884.057491,-1036.288319,-740.205942,-10035.851024
884.057811,0.000000,-666.185348,-10112.460574
884.058131,-444.123565,0.000000,-10035.851024
884.058451,-1110.308913,-592.164754,-10035.851024
884.058772,-1036.288319,-962.267725,-9806.022374
884.059092,-592.164754,-1184.329507,-10189.070123
884.059412,-1776.494261,-740.205942,-9959.241474
884.059732,-1406.391290,-1554.432478,-9959.241474
884.060052,-1850.514855,-1628.453072,-10189.070123
884.060373,-1406.391290,-1406.391290,-9882.631924
884.060693,-444.123565,-1184.329507,-9729.412825
884.061013,-1480.411884,-740.205942,-9959.241474
884.061333,-1776.494261,-1258.350101,-9959.241474
884.061653,-1184.329507,-1332.370696,-9806.022374
884.061974,0.000000,-1110.308913,-10035.851024
884.062294,-518.144159,-1332.370696,-9729.412825
884.062614,-2294.638420,-2368.659014,-10112.460574
884.062934,-2738.761985,-3552.988522,-9729.412825
884.063254,-2294.638420,-3775.050304,-9806.022374
884.063575,-1184.329507,-3478.967927,-9806.022374
884.063895,-1702.473667,-3034.844362,-9806.022374
884.064215,-2294.638420,-2886.803174,-9882.631924
884.064535,-1850.514855,-2960.823768,-9806.022374
884.064855,0.000000,-2886.803174,-9882.631924
884.065176,1110.308913,-1628.453072,-10189.070123
884.065496,0.000000,-1554.432478,-10572.117872
884.065816,-1184.329507,-1480.411884,-10342.289223
884.066136,-2146.597232,-1850.514855,-10495.508323
884.066456,-2886.803174,-1702.473667,-10648.727422
884.066777,-4515.256246,-3108.864956,-9959.241474
884.067097,-5255.462188,-4219.173869,-9806.022374
884.067417,-4367.215058,-5255.462188,-9806.022374
884.067737,-1998.556043,-5699.585753,-9576.193725
884.068057,-296.082377,-4663.297435,-9806.022374
884.068378,444.123565,-2442.679609,-10189.070123
884.068698,444.123565,-444.123565,-10265.679673
884.069018,2146.597232,1036.288319,-10495.508323
884.069338,1554.432478,1184.329507,-10648.727422
884.069659,1036.288319,0.000000,-10495.508323
884.069979,-814.226536,-1776.494261,-10035.851024
884.070299,-2294.638420,-3478.967927,-10035.851024
884.070619,-3108.864956,-4811.338623,-9806.022374
884.070939,-5329.482782,-4219.173869,-9499.584175
884.071260,-5329.482782,-5107.421000,-9116.536426
884.071580,-3923.091493,-5847.626942,-9269.755526
884.071900,-814.226536,-5403.503377,-9806.022374
884.072220,1184.329507,-2812.782580,-10418.898773
884.072540,2072.576638,-740.205942,-10342.289223
884.072861,3256.906145,2146.597232,-10342.289223
884.073181,4441.235652,2960.823768,-10955.165621
884.073501,3256.906145,2886.803174,-12257.527968
884.073821,0.000000,592.164754,-10878.556072
884.074141,-4219.173869,-2146.597232,-10495.508323
884.074462,-5995.668130,-4589.276840,-9882.631924
884.074782,-5329.482782,-6513.812290,-9882.631924
884.075102,-4145.153275,-7179.997637,-9499.584175
884.075422,-3627.009116,-6291.750507,-9346.365076
884.075742,-2294.638420,-3552.988522,-9806.022374
884.076063,296.082377,148.041188,-10495.508323
884.076383,1258.350101,3552.988522,-10648.727422
884.076703,1850.514855,4367.215058,-10725.336972
884.077023,2072.576638,3552.988522,-10801.946522
884.077343,2146.597232,1184.329507,-10648.727422
884.077664,1406.391290,-592.164754,-10878.556072
884.077984,-1554.432478,-1776.494261,-9499.584175
884.078304,-4367.215058,-2442.679609,-9882.631924
884.078624,-4959.379811,-1998.556043,-9806.022374
884.078944,-5995.668130,-2590.720797,-9806.022374
884.079265,-7328.038826,-4589.276840,-8733.488677
884.079585,-6661.853478,-5847.626942,-8810.098227
884.079905,-2664.741391,-5773.606348,-9116.536426
884.080225,2146.597232,-3775.050304,-9422.974625
884.080545,4367.215058,-444.123565,-10035.851024
884.080866,3182.885551,2738.761985,-10342.289223
884.081186,1332.370696,4663.297435,-10112.460574
884.081506,1702.473667,4663.297435,-10801.946522
884.081826,1702.473667,2220.617826,-10725.336972
884.082146,-666.185348,-1110.308913,-11644.651570
884.082467,-4811.338623,-4145.153275,-10265.679673
884.082787,-7698.141797,-5329.482782,-10112.460574
884.083107,-8956.491898,-4589.276840,-9269.755526
884.083427,-7994.224174,-3923.091493,-9806.022374
884.083747,-4737.318029,-3701.029710,-9193.145976
884.084068,-444.123565,-3108.864956,-9806.022374
884.084388,2516.700203,-1036.288319,-10801.946522
884.084708,3404.947333,222.061783,-10725.336972
884.085028,4441.235652,1924.535449,-10572.117872
884.085348,5033.400406,3108.864956,-10572.117872
884.085669,4441.235652,3108.864956,-10801.946522
884.085989,1332.370696,1702.473667,-11108.384721
884.086309,-2368.659014,-1258.350101,-10112.460574
884.086629,-5773.606348,-4219.173869,-9729.412825
884.086950,-7476.080014,-6513.812290,-9806.022374
884.087270,-7328.038826,-7994.224174,-8963.317327
884.087590,-6143.709319,-8882.471304,-8733.488677
884.087910,-4367.215058,-7105.977043,-8810.098227
884.088230,-2072.576638,-4737.318029,-9193.145976
884.088551,1480.411884,-1036.288319,-9959.241474
884.088871,4959.379811,2072.576638,-10342.289223
884.089191,5699.585753,3627.009116,-11491.432470
884.089511,3182.885551,2368.659014,-10801.946522
884.089831,-814.226536,-222.061783,-10189.070123
884.090152,-2960.823768,-2590.720797,-10112.460574
884.090472,-3108.864956,-4219.173869,-10035.851024
884.090792,-4515.256246,-6143.709319,-9959.241474
884.091112,-6957.935855,-7846.182985,-9269.755526
884.091432,-6883.915261,-7402.059420,-9116.536426
884.091753,-4515.256246,-5255.462188,-9882.631924
884.092073,-1924.535449,-3034.844362,-10265.679673
884.092393,-518.144159,-814.226536,-10648.727422
884.092713,0.000000,0.000000,-10035.851024
884.093033,1332.370696,962.267725,-10572.117872
884.093354,3256.906145,962.267725,-10342.289223
884.093674,3330.926739,-296.082377,-10801.946522
884.093994,740.205942,-444.123565,-10265.679673
884.094314,-1406.391290,-2294.638420,-10265.679673
884.094634,-2590.720797,-3108.864956,-10342.289223
884.094955,-3478.967927,-3404.947333,-10265.679673
884.095275,-5921.647536,-4737.318029,-10035.851024
884.095595,-6439.791695,-4293.194464,-9499.584175
884.095915,-4367.215058,-4959.379811,-9576.193725
884.096235,-1258.350101,-4663.297435,-9882.631924
884.096556,444.123565,-2220.617826,-10035.851024
884.096876,1776.494261,-518.144159,-10648.727422
884.097196,2516.700203,1036.288319,-11338.213370
884.097516,2812.782580,1332.370696,-10878.556072
884.097836,2590.720797,814.226536,-10189.070123
884.098157,1776.494261,-592.164754,-10342.289223
884.098477,666.185348,-1998.556043,-10035.851024
884.098797,-2442.679609,-3552.988522,-10112.460574
884.099117,-5033.400406,-4589.276840,-9576.193725
884.099437,-5329.482782,-3478.967927,-9806.022374
884.099758,-5403.503377,-3404.947333,-9882.631924
884.100078,-4145.153275,-2442.679609,-9269.755526
884.100398,-2220.617826,-3627.009116,-8810.098227
884.100718,370.102971,-3552.988522,-8656.879127
884.101038,1258.350101,-2738.761985,-9882.631924
884.101359,3849.070898,-1554.432478,-9806.022374
884.101679,2294.638420,1554.432478,-10265.679673
884.101999,0.000000,2664.741391,-9806.022374
884.102319,-814.226536,3108.864956,-10112.460574
884.102639,148.041188,1258.350101,-10725.336972
884.102960,-814.226536,-296.082377,-10265.679673
884.103280,-3701.029710,-4589.276840,-9959.241474
884.103600,-3701.029710,-5329.482782,-9729.412825
884.103920,-4293.194464,-3701.029710,-9576.193725
884.104241,-4885.359217,-1480.411884,-10035.851024
884.104561,-4441.235652,-370.102971,-10035.851024
884.104881,-1850.514855,222.061783,-9806.022374
884.105201,2294.638420,1332.370696,-10572.117872
884.105521,4071.132681,1110.308913,-11568.042020
884.105841,2812.782580,1184.329507,-11261.603821
884.106161,2664.741391,2146.597232,-10495.508323
884.106481,-444.123565,1702.473667,-10648.727422
884.106801,444.123565,2072.576638,-10189.070123
884.107121,-740.205942,1554.432478,-11031.775171
884.107441,-2738.761985,-1850.514855,-10495.508323
884.107761,-3478.967927,-4737.318029,-9576.193725
884.108081,-5033.400406,-4885.359217,-9499.584175
884.108401,-4515.256246,-3404.947333,-8733.488677
884.108721,-1776.494261,-2886.803174,-9269.755526
884.109041,2294.638420,-1406.391290,-9576.193725
884.109361,2590.720797,0.000000,-9882.631924
884.109681,2664.741391,1332.370696,-10572.117872
884.110001,2072.576638,2294.638420,-10342.289223
884.110321,2368.659014,2738.761985,-10189.070123
884.110641,2442.679609,962.267725,-9882.631924
884.110961,-148.041188,-1924.535449,-9652.803275
884.111281,-1480.411884,-3627.009116,-9576.193725
884.111601,-3108.864956,-4885.359217,-9729.412825
884.111921,-3108.864956,-4071.132681,-9193.145976
884.112241,-2886.803174,-370.102971,-9729.412825
884.112561,-2072.576638,-148.041188,-10189.070123
884.112881,888.247130,-1850.514855,-9806.022374
884.113201,2442.679609,-1998.556043,-10035.851024
884.113521,1554.432478,-518.144159,-11031.775171
884.113841,0.000000,2072.576638,-10265.679673
884.114161,1258.350101,3478.967927,-11108.384721
884.114481,3701.029710,3256.906145,-10572.117872
884.114801,4737.318029,2072.576638,-10801.946522
884.115121,2738.761985,-370.102971,-11414.822920
884.115441,-1554.432478,-2960.823768,-10418.898773
884.115761,-4515.256246,-1924.535449,-10035.851024
884.116081,-6291.750507,-518.144159,-9652.803275
884.116401,-2368.659014,0.000000,-9882.631924
884.116721,814.226536,-518.144159,-9806.022374
884.117041,592.164754,-2590.720797,-10418.898773
884.117361,0.000000,-2664.741391,-10265.679673
884.117681,814.226536,-592.164754,-9269.755526
884.118001,3404.947333,2812.782580,-9882.631924
884.118321,4145.153275,4441.235652,-10342.289223
884.118641,2368.659014,3627.009116,-11031.775171
884.118961,1850.514855,592.164754,-10189.070123
884.119281,-962.267725,-3034.844362,-10418.898773
884.119601,-1850.514855,-3034.844362,-9806.022374
884.119921,-2664.741391,-2960.823768,-9116.536426
884.120241,0.000000,-1554.432478,-9729.412825
884.120561,814.226536,-1110.308913,-10418.898773
884.120881,962.267725,-1628.453072,-9729.412825
884.121201,370.102971,-962.267725,-9882.631924
884.121521,444.123565,518.144159,-10035.851024
884.121841,2442.679609,2072.576638,-9193.145976
884.122161,4663.297435,3552.988522,-9576.193725
884.122481,4959.379811,962.267725,-10035.851024
884.122801,4145.153275,-1258.350101,-9882.631924
884.123121,1554.432478,-2146.597232,-10189.070123
884.123441,370.102971,-814.226536,-10035.851024
884.123761,592.164754,1036.288319,-9806.022374
884.124081,444.123565,-296.082377,-9652.803275
884.124401,-1184.329507,-2442.679609,-9882.631924
884.124721,-2886.803174,-2294.638420,-9806.022374
884.125041,-2146.597232,-1628.453072,-9959.241474
884.125362,740.205942,0.000000,-10418.898773
884.125682,3330.926739,1776.494261,-10189.070123
884.126002,5107.421000,2886.803174,-11184.994271
884.126322,4885.359217,1998.556043,-9806.022374
884.126642,1850.514855,444.123565,-10648.727422
884.126962,0.000000,1554.432478,-10265.679673
884.127282,-1480.411884,1554.432478,-11031.775171
884.127602,-666.185348,1036.288319,-10572.117872
884.127922,-1554.432478,1258.350101,-10342.289223
884.128242,-3034.844362,962.267725,-10342.289223
884.128562,-4441.235652,-370.102971,-10495.508323
884.128882,-2664.741391,-1184.329507,-9882.631924
884.129202,-814.226536,-1332.370696,-9652.803275
884.129522,2294.638420,148.041188,-9806.022374
884.129842,2738.761985,814.226536,-9806.022374
884.130162,888.247130,1258.350101,-10648.727422
884.130482,-962.267725,2516.700203,-11338.213370
884.130802,-1776.494261,2738.761985,-10801.946522
884.131122,444.123565,1332.370696,-9959.241474
884.131442,444.123565,0.000000,-9652.803275
884.131762,-370.102971,-1998.556043,-9729.412825
884.132082,-1110.308913,-3552.988522,-9193.145976
884.132402,-2368.659014,-2368.659014,-9882.631924
884.132722,-2072.576638,-814.226536,-9652.803275
884.133042,-814.226536,888.247130,-9729.412825
884.133362,740.205942,1480.411884,-9193.145976
884.133682,814.226536,1110.308913,-9729.412825
884.134002,888.247130,0.000000,-9806.022374
884.134322,1036.288319,-74.020594,-9882.631924
884.134642,2886.803174,740.205942,-10342.289223
884.134962,4885.359217,74.020594,-10189.070123
884.135282,5477.523971,-148.041188,-10418.898773
884.135602,3627.009116,1480.411884,-10572.117872
884.135922,-888.247130,3034.844362,-10572.117872
884.136242,-2368.659014,3330.926739,-9806.022374
884.136562,-1406.391290,2368.659014,-10189.070123
884.136882,0.000000,-518.144159,-9806.022374
884.137202,2738.761985,-2812.782580,-10342.289223
884.137522,2812.782580,-1998.556043,-9882.631924
884.137842,2368.659014,-518.144159,-10572.117872
884.138162,1480.411884,2442.679609,-10648.727422
884.138482,2072.576638,3182.885551,-10648.727422
884.138802,4441.235652,4145.153275,-10725.336972
884.139122,2664.741391,5033.400406,-12257.527968
884.139442,1184.329507,1184.329507,-10342.289223
884.139762,814.226536,444.123565,-10112.460574
884.140082,370.102971,-888.247130,-10495.508323
884.140402,962.267725,-740.205942,-10189.070123
884.140722,1406.391290,-888.247130,-10572.117872
884.141042,740.205942,-2368.659014,-9576.193725
884.141362,0.000000,-2368.659014,-9499.584175
884.141682,-296.082377,0.000000,-9882.631924
884.142002,1406.391290,1850.514855,-9959.241474
884.142322,2738.761985,518.144159,-9652.803275
884.142642,3034.844362,148.041188,-9806.022374
884.142962,1850.514855,-1036.288319,-9193.145976
884.143282,0.000000,-222.061783,-9652.803275
884.143602,-888.247130,0.000000,-9882.631924
884.143922,-1480.411884,1110.308913,-9806.022374
884.144242,-518.144159,1554.432478,-10418.898773
884.144562,-1036.288319,-1110.308913,-10112.460574
884.144882,-1628.453072,-3108.864956,-9806.022374
884.145202,-1702.473667,-3849.070898,-9422.974625
884.145522,-888.247130,-2516.700203,-9806.022374
884.145842,-1110.308913,-222.061783,-9959.241474
884.146162,-1110.308913,2368.659014,-10189.070123
884.146482,1554.432478,2886.803174,-10878.556072
884.146802,1184.329507,2072.576638,-10801.946522
884.147122,-296.082377,1998.556043,-10955.165621
884.147442,-962.267725,1406.391290,-10725.336972
884.147762,-296.082377,74.020594,-10725.336972
884.148082,518.144159,-1036.288319,-10955.165621
884.148402,-1036.288319,-1998.556043,-10648.727422
884.148722,-3404.947333,-2220.617826,-10418.898773
884.149042,-4441.235652,-2368.659014,-10342.289223
884.149362,-2590.720797,-1554.432478,-10342.289223
884.149682,1258.350101,2220.617826,-9959.241474
884.150002,2590.720797,1924.535449,-11108.384721
884.150322,1332.370696,222.061783,-9882.631924
884.150642,-2072.576638,962.267725,-9652.803275
884.150963,-1406.391290,0.000000,-10189.070123
884.151283,1184.329507,370.102971,-9652.803275
884.151603,2664.741391,0.000000,-10342.289223
884.151923,4071.132681,-1332.370696,-9346.365076
884.152243,2368.659014,-2664.741391,-9652.803275
884.152563,74.020594,-1776.494261,-9576.193725
884.152883,-666.185348,222.061783,-9346.365076
884.153203,-592.164754,1110.308913,-9729.412825
884.153523,1406.391290,1702.473667,-9576.193725
884.153843,1406.391290,-222.061783,-10189.070123
884.154163,1998.556043,-1776.494261,-9652.803275
884.154483,1850.514855,-444.123565,-9806.022374
884.154803,4145.153275,2960.823768,-10418.898773
884.155123,5847.626942,1850.514855,-9882.631924
884.155443,4145.153275,740.205942,-10342.289223
884.155763,-592.164754,740.205942,-9422.974625
884.156083,-2442.679609,-666.185348,-9959.241474
884.156403,1036.288319,1184.329507,-10725.336972
884.156723,592.164754,1554.432478,-10955.165621
884.157043,814.226536,518.144159,-10801.946522
884.157363,-814.226536,0.000000,-10342.289223
884.157683,-1554.432478,-370.102971,-10801.946522
884.158003,-518.144159,592.164754,-10265.679673
884.158323,222.061783,1036.288319,-10572.117872
884.158643,2072.576638,1776.494261,-10418.898773
884.158963,2516.700203,2294.638420,-10725.336972
884.159283,2368.659014,1036.288319,-11031.775171
884.159603,1702.473667,0.000000,-9882.631924
884.159923,-1554.432478,0.000000,-9882.631924
884.160243,-1554.432478,1480.411884,-10265.679673
884.160563,592.164754,1332.370696,-9806.022374
884.160883,-148.041188,296.082377,-9499.584175
884.161203,2516.700203,-740.205942,-10265.679673
884.161523,444.123565,-1998.556043,-9269.755526
884.161843,-444.123565,-2960.823768,-9116.536426
884.162163,-296.082377,-814.226536,-8963.317327
884.162483,962.267725,1850.514855,-9806.022374
884.162803,1554.432478,3108.864956,-9499.584175
884.163123,962.267725,2886.803174,-10801.946522
884.163443,1480.411884,1776.494261,-10112.460574
884.163763,814.226536,1258.350101,-9806.022374
884.164083,888.247130,1332.370696,-10265.679673
884.164403,444.123565,1554.432478,-9882.631924
884.164723,-1406.391290,1258.350101,-10801.946522
884.165043,-2368.659014,888.247130,-10495.508323
884.165363,-2590.720797,-962.267725,-10418.898773
884.165683,-370.102971,-814.226536,-11031.775171
884.166003,1184.329507,74.020594,-10112.460574
884.166323,2072.576638,1628.453072,-11031.775171
884.166643,2368.659014,2294.638420,-10725.336972
884.166963,1332.370696,3108.864956,-11414.822920
884.167283,592.164754,2442.679609,-11108.384721
884.167603,74.020594,1554.432478,-11491.432470
884.167923,-962.267725,962.267725,-10955.165621
884.168243,666.185348,0.000000,-9652.803275
884.168563,1924.535449,-1480.411884,-10189.070123
884.168883,0.000000,-1776.494261,-9499.584175
884.169203,-1184.329507,-814.226536,-10342.289223
884.169523,-592.164754,296.082377,-10035.851024
884.169843,740.205942,1110.308913,-9806.022374
884.170163,1258.350101,2442.679609,-10035.851024
884.170483,888.247130,2368.659014,-9652.803275
884.170803,444.123565,296.082377,-9346.365076
884.171123,222.061783,0.000000,-9116.536426
884.171443,2960.823768,-296.082377,-9193.145976
884.171763,4145.153275,-518.144159,-10189.070123
884.172083,3108.864956,-1480.411884,-9499.584175
884.172403,518.144159,-1110.308913,-9116.536426
884.172723,-1776.494261,814.226536,-9269.755526
884.173043,-2368.659014,1850.514855,-9652.803275
884.173363,-1184.329507,1702.473667,-9959.241474
884.173683,740.205942,518.144159,-9576.193725
884.174003,2886.803174,444.123565,-10342.289223
884.174323,2220.617826,74.020594,-10265.679673
884.174643,1406.391290,296.082377,-9882.631924
884.174963,1258.350101,962.267725,-10495.508323
884.175283,1184.329507,2072.576638,-10725.336972
884.175603,1184.329507,1776.494261,-10725.336972
884.175923,0.000000,2516.700203,-10418.898773
884.176243,-1554.432478,962.267725,-10955.165621
884.176563,-1850.514855,-518.144159,-10648.727422
884.176884,518.144159,-2442.679609,-10418.898773
884.177204,2664.741391,-1258.350101,-11031.775171
884.177524,2146.597232,444.123565,-10265.679673
884.177844,888.247130,962.267725,-11108.384721
884.178164,-370.102971,1628.453072,-10801.946522
884.178484,-888.247130,1406.391290,-10572.117872
884.178804,740.205942,888.247130,-10035.851024
884.179124,1850.514855,-296.082377,-9806.022374
884.179444,1850.514855,-518.144159,-10495.508323
884.179764,592.164754,-296.082377,-9959.241474
884.180084,222.061783,518.144159,-9729.412825
884.180404,518.144159,814.226536,-9193.145976
884.180724,518.144159,-666.185348,-9269.755526
884.181044,592.164754,-1480.411884,-9576.193725
884.181364,-222.061783,-814.226536,-9576.193725
884.181684,-518.144159,222.061783,-9193.145976
884.182004,518.144159,-148.041188,-9346.365076
884.182324,2294.638420,-666.185348,-9116.536426
884.182644,1184.329507,-296.082377,-9652.803275
884.182964,2368.659014,-296.082377,-9806.022374
884.183284,592.164754,1406.391290,-10189.070123
884.183604,-1776.494261,1776.494261,-10035.851024
884.183924,-1776.494261,1258.350101,-9576.193725
884.184244,370.102971,888.247130,-10035.851024
884.184564,2812.782580,-518.144159,-10495.508323
884.184884,666.185348,-1332.370696,-10418.898773
884.185204,-1998.556043,-2590.720797,-10112.460574
884.185524,-2960.823768,-2516.700203,-9806.022374
884.185844,-1554.432478,370.102971,-9806.022374
884.186164,0.000000,1998.556043,-10878.556072
884.186484,148.041188,2664.741391,-10955.165621
884.186804,518.144159,1480.411884,-10418.898773
884.187124,-888.247130,-148.041188,-11108.384721
884.187444,-814.226536,148.041188,-9039.926876
884.187764,-222.061783,370.102971,-10112.460574
884.188084,1480.411884,888.247130,-10418.898773
884.188404,2368.659014,592.164754,-10265.679673
884.188724,592.164754,296.082377,-10725.336972
884.189044,-740.205942,-444.123565,-9193.145976
884.189364,-1554.432478,0.000000,-9729.412825
884.189684,148.041188,2146.597232,-10035.851024
884.190004,1406.391290,3849.070898,-10112.460574
884.190324,2368.659014,2812.782580,-9729.412825
884.190644,1258.350101,888.247130,-9882.631924
884.190964,1480.411884,-1184.329507,-9269.755526
884.191284,1702.473667,-1850.514855,-9039.926876
884.191604,1776.494261,-1184.329507,-9652.803275
884.191924,1406.391290,1554.432478,-9116.536426
884.192244,962.267725,1628.453072,-9806.022374
884.192564,1554.432478,888.247130,-9959.241474
884.192884,370.102971,592.164754,-9346.365076
884.193204,-444.123565,1110.308913,-9806.022374
884.193524,1554.432478,-444.123565,-9422.974625
884.193844,3108.864956,-222.061783,-9959.241474
884.194164,3404.947333,666.185348,-10112.460574
884.194484,1406.391290,-518.144159,-10189.070123
884.194804,-148.041188,-296.082377,-10265.679673
884.195124,74.020594,666.185348,-10572.117872
884.195444,1036.288319,222.061783,-11261.603821
884.195764,2442.679609,1554.432478,-11108.384721
884.196084,1776.494261,3034.844362,-10878.556072
884.196404,1258.350101,3256.906145,-11031.775171
884.196724,-666.185348,4515.256246,-10572.117872
884.197044,-296.082377,3775.050304,-11261.603821
884.197364,1184.329507,2738.761985,-10418.898773
884.197684,1258.350101,-1258.350101,-9959.241474
884.198004,2072.576638,-3108.864956,-10189.070123
884.198324,962.267725,-5107.421000,-9269.755526
884.198644,-296.082377,-814.226536,-9652.803275
884.198964,-1924.535449,1480.411884,-9729.412825
884.199284,74.020594,2886.803174,-10112.460574
884.199604,740.205942,2590.720797,-9806.022374
884.199924,-2220.617826,1776.494261,-10342.289223
884.200244,-2368.659014,-222.061783,-10418.898773
884.200564,-740.205942,-1480.411884,-9806.022374
884.200884,1924.535449,-2146.597232,-9959.241474
884.201204,888.247130,-1628.453072,-9346.365076
884.201524,-1036.288319,-444.123565,-9422.974625
884.201844,-3108.864956,666.185348,-10648.727422
884.202164,-2516.700203,1628.453072,-9652.803275
884.202485,-296.082377,1850.514855,-10189.070123
884.202805,1628.453072,370.102971,-9576.193725
884.203125,2072.576638,-2368.659014,-9959.241474
884.203445,666.185348,-3627.009116,-10035.851024
884.203765,-740.205942,-3404.947333,-9806.022374
884.204002,-3478.967927,-1110.308913,-9576.193725
884.204322,-2738.761985,888.247130,-10265.679673
884.204642,740.205942,1184.329507,-10112.460574
884.204962,1924.535449,1258.350101,-10955.165621
884.205282,1406.391290,222.061783,-10572.117872
884.205602,-888.247130,-592.164754,-10955.165621
884.205922,-1184.329507,-518.144159,-10801.946522
884.206241,370.102971,-666.185348,-10572.117872
884.206561,1702.473667,74.020594,-10878.556072
884.206881,1628.453072,2664.741391,-11031.775171
884.207201,370.102971,4811.338623,-11644.651570
884.207521,370.102971,5403.503377,-11031.775171
884.207841,1258.350101,3701.029710,-11414.822920
884.208161,1480.411884,518.144159,-10265.679673
884.208481,2368.659014,-2738.761985,-9576.193725
884.208801,2886.803174,-3923.091493,-8810.098227
884.209120,2072.576638,-4145.153275,-9652.803275
884.209440,1776.494261,148.041188,-10189.070123
884.209760,1554.432478,2220.617826,-9806.022374
884.210080,1258.350101,2886.803174,-9882.631924
884.210400,1184.329507,1406.391290,-9193.145976
884.210720,1258.350101,-1110.308913,-9039.926876
884.211040,740.205942,-2886.803174,-8810.098227
884.211360,1924.535449,-2442.679609,-9193.145976
884.211680,5033.400406,-1406.391290,-8886.707777
884.212000,4737.318029,-592.164754,-9806.022374
884.212319,3478.967927,1406.391290,-9422.974625
884.212639,-370.102971,2146.597232,-10265.679673
884.212959,-1850.514855,3034.844362,-9346.365076
884.213279,-1628.453072,1702.473667,-9729.412825
884.213599,-296.082377,740.205942,-9652.803275
884.213919,2368.659014,-1036.288319,-9499.584175
884.214239,2442.679609,-2220.617826,-9959.241474
884.214559,-444.123565,-148.041188,-10418.898773
884.214879,-740.205942,814.226536,-10418.898773
884.215199,-666.185348,1998.556043,-10801.946522
884.215518,1184.329507,3552.988522,-10955.165621
884.215838,888.247130,4515.256246,-10955.165621
884.216158,-370.102971,3404.947333,-11261.603821
884.216478,-1036.288319,1850.514855,-11184.994271
884.216798,-296.082377,222.061783,-10648.727422
884.217118,962.267725,-814.226536,-10725.336972
884.217438,962.267725,-1406.391290,-10342.289223
884.217758,296.082377,-518.144159,-10035.851024
884.218078,-2146.597232,1036.288319,-10035.851024
884.218398,-3034.844362,2368.659014,-10955.165621
884.218717,-1998.556043,2368.659014,-9882.631924
884.219037,148.041188,1702.473667,-10495.508323
884.219357,2072.576638,888.247130,-10265.679673
884.219677,1406.391290,-222.061783,-9806.022374
884.219997,74.020594,-1184.329507,-10035.851024
884.220317,-592.164754,-1850.514855,-9652.803275
884.220637,-962.267725,-1184.329507,-9499.584175
884.220957,-888.247130,148.041188,-9652.803275
884.221277,0.000000,1036.288319,-9193.145976
884.221597,0.000000,2294.638420,-11338.213370
884.221916,-1184.329507,1258.350101,-9882.631924
884.222236,-740.205942,666.185348,-9576.193725
884.222556,-1036.288319,-666.185348,-9499.584175
884.222876,0.000000,-2516.700203,-9576.193725
884.223196,1628.453072,-1036.288319,-9959.241474
884.223516,0.000000,0.000000,-9806.022374
884.223836,-592.164754,1628.453072,-10189.070123
884.224156,0.000000,2072.576638,-10572.117872
884.224476,296.082377,1628.453072,-10648.727422
884.224795,518.144159,888.247130,-10112.460574
884.225115,814.226536,814.226536,-11184.994271
884.225435,296.082377,444.123565,-10648.727422
884.225755,1480.411884,1184.329507,-10495.508323
884.226075,2220.617826,-518.144159,-10955.165621
884.226395,1554.432478,-592.164754,-10648.727422
884.226715,1776.494261,296.082377,-11261.603821
884.227035,1850.514855,814.226536,-10878.556072
884.227355,1406.391290,2442.679609,-10725.336972
884.227675,-148.041188,1776.494261,-10495.508323
884.227994,370.102971,1184.329507,-10495.508323
884.228314,1406.391290,-1036.288319,-10189.070123
884.228634,2738.761985,-2294.638420,-9882.631924
884.228954,1406.391290,-888.247130,-10418.898773
884.229274,592.164754,0.000000,-10265.679673
884.229594,74.020594,1332.370696,-9959.241474
884.229914,148.041188,1480.411884,-9882.631924
884.230234,888.247130,1184.329507,-9806.022374
884.230554,1258.350101,-370.102971,-9729.412825
884.230874,1924.535449,-1184.329507,-9882.631924
884.231193,888.247130,-1258.350101,-9652.803275
884.231513,814.226536,-1258.350101,-9269.755526
884.231833,2072.576638,-444.123565,-9806.022374
884.232153,2442.679609,-1110.308913,-9346.365076
884.232473,1332.370696,-666.185348,-9729.412825
884.232793,-740.205942,-296.082377,-9729.412825
884.233113,-740.205942,-666.185348,-10265.679673
884.233433,0.000000,888.247130,-10035.851024
884.233753,0.000000,2072.576638,-10648.727422
884.234073,814.226536,1406.391290,-10955.165621
884.234392,2146.597232,592.164754,-9422.974625
884.234712,1332.370696,2072.576638,-11031.775171
884.235032,1184.329507,1998.556043,-11414.822920
884.235352,0.000000,1258.350101,-10801.946522
884.235672,1480.411884,-1406.391290,-10112.460574
884.235992,444.123565,-2812.782580,-10342.289223
884.236312,-1332.370696,-2738.761985,-10189.070123
884.236632,-1776.494261,-1480.411884,-10801.946522
884.236952,-1628.453072,1406.391290,-10189.070123
884.237272,-1628.453072,4293.194464,-10495.508323
884.237591,0.000000,3034.844362,-10878.556072
884.237911,74.020594,-370.102971,-9652.803275
884.238231,-1406.391290,-2812.782580,-9422.974625
884.238551,-962.267725,-2960.823768,-9346.365076
884.238871,-296.082377,-1702.473667,-9193.145976
884.239191,-962.267725,0.000000,-9806.022374
884.239511,1628.453072,370.102971,-9116.536426
884.239831,2220.617826,-370.102971,-8963.317327
884.240151,814.226536,0.000000,-9729.412825
884.240470,148.041188,-666.185348,-9269.755526
884.240790,-814.226536,-666.185348,-9193.145976
884.241110,0.000000,1850.514855,-9576.193725
884.241430,-222.061783,0.000000,-9116.536426
884.241750,0.000000,-222.061783,-9576.193725
884.242070,-2220.617826,-1628.453072,-9499.584175
884.242390,-962.267725,-1184.329507,-9346.365076
884.242710,962.267725,1036.288319,-9806.022374
884.243030,2368.659014,1850.514855,-10418.898773
884.243350,1628.453072,2220.617826,-10189.070123
884.243669,0.000000,814.226536,-10035.851024
884.243989,1110.308913,-444.123565,-10648.727422
884.244309,1776.494261,-296.082377,-10035.851024
884.244629,1258.350101,1258.350101,-10878.556072
884.244949,1258.350101,2442.679609,-11261.603821
884.245269,2442.679609,1554.432478,-11414.822920
884.245589,2886.803174,2368.659014,-11414.822920
884.245909,2146.597232,2368.659014,-11108.384721
884.246229,814.226536,2738.761985,-10801.946522
884.246549,1036.288319,1110.308913,-10878.556072
884.246868,1850.514855,-370.102971,-10342.289223
884.247188,666.185348,-1036.288319,-10955.165621
884.247508,-296.082377,-518.144159,-10342.289223
884.247828,-518.144159,-814.226536,-9806.022374
884.248148,1702.473667,1554.432478,-10035.851024
884.248468,5477.523971,1628.453072,-11031.775171
884.248788,4737.318029,1554.432478,-10265.679673
884.249108,1332.370696,444.123565,-9729.412825
884.249428,-888.247130,-592.164754,-9576.193725
884.249748,-888.247130,-1258.350101,-8810.098227
884.250067,-740.205942,-1850.514855,-9269.755526
884.250387,0.000000,-1554.432478,-9499.584175
884.250707,814.226536,-518.144159,-9039.926876
884.251027,0.000000,-518.144159,-10112.460574
884.251347,370.102971,740.205942,-9652.803275
884.251667,-592.164754,1406.391290,-9806.022374
884.251987,-666.185348,888.247130,-9729.412825
884.252307,740.205942,296.082377,-9806.022374
884.252627,222.061783,-1036.288319,-9652.803275
884.252947,148.041188,-1110.308913,-10572.117872
884.253266,-814.226536,-814.226536,-10112.460574
884.253586,-962.267725,296.082377,-10035.851024
884.253906,1110.308913,1110.308913,-10495.508323
884.254226,1332.370696,518.144159,-10265.679673
884.254546,148.041188,740.205942,-10801.946522
884.254866,-1702.473667,-1258.350101,-10648.727422
884.255186,-1332.370696,-1480.411884,-10342.289223
884.255506,-1480.411884,-444.123565,-10418.898773
884.255826,-222.061783,518.144159,-9959.241474
884.256145,888.247130,518.144159,-10801.946522
884.256465,296.082377,-74.020594,-10572.117872
884.256785,-444.123565,-962.267725,-11031.775171
884.257105,-666.185348,222.061783,-9806.022374
884.257425,296.082377,592.164754,-10801.946522
884.257745,-370.102971,-148.041188,-10342.289223
884.258065,0.000000,0.000000,-10035.851024
884.258385,-666.185348,-518.144159,-10342.289223
884.258705,-1184.329507,-518.144159,-9576.193725
884.259025,-1258.350101,222.061783,-9882.631924
884.259344,-592.164754,1110.308913,-10035.851024
884.259664,1406.391290,814.226536,-10112.460574
884.259984,2294.638420,-1184.329507,-9959.241474
884.260304,740.205942,-1850.514855,-9882.631924
884.260624,-296.082377,-1850.514855,-9422.974625
884.260944,-1036.288319,-1480.411884,-9499.584175
884.261264,-444.123565,148.041188,-9576.193725
884.261584,0.000000,370.102971,-9806.022374
884.261904,888.247130,740.205942,-10112.460574
884.262224,1258.350101,370.102971,-9959.241474
884.262543,1702.473667,-148.041188,-9729.412825
884.262863,1554.432478,962.267725,-9576.193725
884.263183,3034.844362,444.123565,-10112.460574
884.263503,3404.947333,0.000000,-10418.898773
884.263823,2442.679609,-444.123565,-10648.727422
884.264143,666.185348,0.000000,-10342.289223
884.264463,-222.061783,740.205942,-9959.241474
884.264783,1036.288319,1924.535449,-10495.508323
884.265103,2072.576638,1924.535449,-10878.556072
884.265423,1702.473667,1184.329507,-10265.679673
884.265742,1554.432478,1036.288319,-10572.117872
884.266062,666.185348,1480.411884,-10418.898773
884.266382,296.082377,1258.350101,-10265.679673
884.266702,3182.885551,666.185348,-10342.289223
884.267022,2664.741391,-296.082377,-9882.631924
884.267342,1480.411884,814.226536,-9729.412825
884.267662,814.226536,1110.308913,-10725.336972
884.267982,296.082377,2442.679609,-10189.070123
884.268302,-444.123565,2220.617826,-9806.022374
884.268622,-666.185348,1924.535449,-9806.022374
884.268941,1332.370696,-222.061783,-9729.412825
884.269261,1332.370696,-1332.370696,-9729.412825
884.269581,1258.350101,-1110.308913,-10112.460574
884.269901,74.020594,370.102971,-9576.193725
884.270221,-222.061783,1776.494261,-9806.022374
884.270541,1554.432478,1924.535449,-9882.631924
884.270861,740.205942,1184.329507,-10342.289223
884.271181,0.000000,370.102971,-10189.070123
884.271501,-666.185348,740.205942,-10112.460574
884.271820,-1258.350101,1776.494261,-9959.241474
884.272140,-1184.329507,1406.391290,-9576.193725
884.272460,888.247130,-814.226536,-9882.631924
884.272780,1554.432478,-1406.391290,-8963.317327
884.273100,740.205942,-1332.370696,-9806.022374
884.273420,-1036.288319,0.000000,-9806.022374
884.273740,-2368.659014,1776.494261,-9882.631924
884.274060,1110.308913,1554.432478,-10342.289223
884.274380,2368.659014,370.102971,-9806.022374
884.274700,592.164754,-962.267725,-10112.460574
884.275019,-1184.329507,-370.102971,-10342.289223
884.275339,-1776.494261,1036.288319,-10418.898773
884.275659,-740.205942,1998.556043,-10189.070123
884.275979,1702.473667,1998.556043,-10725.336972
884.276299,2442.679609,888.247130,-10189.070123
884.276619,740.205942,-888.247130,-10265.679673
884.276939,-1480.411884,-1258.350101,-10265.679673
884.277259,-3256.906145,0.000000,-9806.022374
884.277579,-888.247130,518.144159,-10265.679673
884.277899,1036.288319,592.164754,-10112.460574
884.278218,222.061783,0.000000,-9882.631924
884.278538,-814.226536,-814.226536,-10495.508323
884.278858,-1332.370696,-666.185348,-10265.679673
884.279178,-814.226536,444.123565,-10342.289223
884.279498,-1406.391290,592.164754,-10112.460574
884.279818,0.000000,592.164754,-9729.412825
884.280138,1628.453072,74.020594,-10035.851024
884.280458,2960.823768,-1332.370696,-10112.460574
884.280778,2368.659014,-888.247130,-10648.727422
884.281098,1332.370696,0.000000,-9882.631924
884.281417,1628.453072,148.041188,-9806.022374
884.281737,2368.659014,370.102971,-10189.070123
884.282057,1924.535449,740.205942,-10035.851024
884.282377,1258.350101,-740.205942,-10035.851024
884.282697,962.267725,-1258.350101,-10265.679673
884.283017,1406.391290,-814.226536,-10418.898773
884.283337,962.267725,740.205942,-10265.679673
884.283657,74.020594,74.020594,-10189.070123
884.283977,1332.370696,-370.102971,-10265.679673
884.284297,2072.576638,-444.123565,-10342.289223
884.284616,1406.391290,814.226536,-10265.679673
884.284936,-740.205942,2442.679609,-10342.289223
884.285256,1480.411884,2516.700203,-11031.775171
884.285576,4367.215058,962.267725,-10189.070123
884.285896,3552.988522,0.000000,-10495.508323
884.286216,1258.350101,-2516.700203,-9652.803275
884.286536,74.020594,-1332.370696,-9806.022374
884.286856,-592.164754,-370.102971,-9959.241474
884.287176,592.164754,888.247130,-9269.755526
884.287495,2146.597232,2368.659014,-10189.070123
884.287815,370.102971,592.164754,-10112.460574
884.288135,0.000000,-666.185348,-9652.803275
884.288455,0.000000,-888.247130,-9652.803275
884.288775,518.144159,518.144159,-9882.631924
884.289095,666.185348,1184.329507,-9729.412825
884.289415,962.267725,1036.288319,-10495.508323
884.289735,1110.308913,-518.144159,-9652.803275
884.290055,0.000000,-1332.370696,-10342.289223
884.290375,-296.082377,-1776.494261,-9729.412825
884.290694,-1332.370696,0.000000,-9729.412825
884.291014,0.000000,1776.494261,-10112.460574
884.291334,592.164754,2072.576638,-9499.584175
884.291654,1184.329507,1110.308913,-11031.775171
884.291974,1406.391290,-518.144159,-9806.022374
884.292294,-1554.432478,0.000000,-10189.070123
884.292614,-814.226536,-1184.329507,-9729.412825
884.292934,1406.391290,0.000000,-9806.022374
884.293254,-592.164754,1850.514855,-10878.556072
884.293574,-1110.308913,2664.741391,-10495.508323
884.293893,-3182.885551,592.164754,-10801.946522
884.294213,-2886.803174,0.000000,-10035.851024
884.294533,-1036.288319,-666.185348,-10189.070123
884.294853,1110.308913,962.267725,-10189.070123
884.295173,2072.576638,2590.720797,-11108.384721
884.295493,0.000000,2590.720797,-10801.946522
884.295813,-1184.329507,1184.329507,-9806.022374
884.296133,-1480.411884,-296.082377,-9652.803275
884.296453,148.041188,-1480.411884,-9729.412825
884.296773,1850.514855,-1776.494261,-9806.022374
884.297092,1480.411884,888.247130,-10265.679673
884.297412,74.020594,1702.473667,-10112.460574
884.297732,0.000000,2294.638420,-9729.412825
884.298052,-814.226536,1184.329507,-9652.803275
884.298372,222.061783,444.123565,-9499.584175
884.298692,1554.432478,-1258.350101,-9806.022374
884.299012,2294.638420,-592.164754,-9806.022374
884.299332,666.185348,0.000000,-9576.193725
884.299652,74.020594,-518.144159,-9729.412825
884.299972,0.000000,-1406.391290,-9576.193725
884.300291,74.020594,-1628.453072,-9422.974625
884.300611,1480.411884,-222.061783,-9882.631924
884.300931,814.226536,740.205942,-10189.070123
884.301251,666.185348,2590.720797,-10265.679673
884.301571,1406.391290,2590.720797,-10801.946522
884.301891,2886.803174,2516.700203,-10189.070123
884.302211,2220.617826,814.226536,-10342.289223
884.302531,1406.391290,-518.144159,-10648.727422
884.302851,0.000000,-1480.411884,-9882.631924
884.303170,296.082377,-592.164754,-10112.460574
884.303490,740.205942,74.020594,-10035.851024
884.303810,1776.494261,962.267725,-10035.851024
884.304130,3034.844362,1480.411884,-11338.213370
884.304450,2738.761985,2960.823768,-11108.384721
884.304770,1850.514855,2368.659014,-10495.508323
884.305090,888.247130,2590.720797,-10725.336972
884.305410,-296.082377,1480.411884,-10342.289223
884.305730,296.082377,1258.350101,-10342.289223
884.306050,0.000000,-740.205942,-10342.289223
884.306370,4737.318029,-1554.432478,-10265.679673
884.306690,1554.432478,-1332.370696,-10342.289223
884.307010,-1406.391290,-222.061783,-9576.193725
884.307330,-1998.556043,1776.494261,-9422.974625
884.307649,1480.411884,1628.453072,-10572.117872
884.307969,2516.700203,814.226536,-10572.117872
884.308289,1998.556043,296.082377,-10572.117872
884.308609,-296.082377,962.267725,-10189.070123
884.308929,-666.185348,222.061783,-9806.022374
884.309249,296.082377,296.082377,-10035.851024
884.309569,296.082377,-222.061783,-10035.851024
884.309889,1036.288319,0.000000,-10878.556072
884.310209,444.123565,-444.123565,-9806.022374
884.310529,-814.226536,444.123565,-9959.241474
884.310849,-2146.597232,1258.350101,-10342.289223
884.311169,-1406.391290,1332.370696,-9499.584175
884.311489,-1998.556043,444.123565,-9806.022374
884.311809,-1036.288319,-444.123565,-9882.631924
884.312129,-1924.535449,-1776.494261,-9882.631924
884.312449,-1850.514855,-1184.329507,-9959.241474
884.312769,-222.061783,0.000000,-9882.631924
884.313089,-444.123565,1036.288319,-9499.584175
884.313409,296.082377,1110.308913,-10189.070123
884.313729,-962.267725,222.061783,-10112.460574
884.314049,-1554.432478,-1036.288319,-9806.022374
884.314369,-962.267725,-1110.308913,-9806.022374
884.314689,-296.082377,444.123565,-10035.851024
884.315009,592.164754,1332.370696,-9806.022374
884.315329,592.164754,1110.308913,-10648.727422
884.315649,0.000000,1258.350101,-10189.070123
884.315969,-962.267725,1406.391290,-10572.117872
884.316289,-148.041188,1776.494261,-10342.289223
884.316609,-444.123565,1850.514855,-10418.898773
884.316929,666.185348,1480.411884,-10189.070123
884.317249,1850.514855,518.144159,-10495.508323
884.317569,2664.741391,370.102971,-10265.679673
884.317889,1628.453072,-296.082377,-10418.898773
884.318209,962.267725,666.185348,-10801.946522
884.318529,1924.535449,1776.494261,-11491.432470
884.318849,2590.720797,2738.761985,-10495.508323
884.319169,2368.659014,2738.761985,-10418.898773
884.319489,1924.535449,1036.288319,-10189.070123
884.319809,740.205942,444.123565,-10035.851024
884.320129,1406.391290,-888.247130,-10112.460574
884.320449,2516.700203,-1110.308913,-9269.755526
884.320769,3923.091493,-296.082377,-9499.584175
884.321089,2738.761985,222.061783,-9729.412825
884.321409,1776.494261,-666.185348,-9652.803275
884.321729,0.000000,888.247130,-9576.193725
884.322049,592.164754,1332.370696,-9652.803275
884.322369,1924.535449,1184.329507,-9193.145976
884.322689,3404.947333,888.247130,-9039.926876
884.323009,3478.967927,148.041188,-9806.022374
884.323329,1702.473667,222.061783,-9806.022374
884.323649,0.000000,-296.082377,-10035.851024
884.323969,888.247130,-1702.473667,-9882.631924
884.324289,1554.432478,-1554.432478,-9499.584175
884.324609,1184.329507,-592.164754,-10112.460574
884.324929,0.000000,296.082377,-10189.070123
884.325249,-1332.370696,1628.453072,-10189.070123
884.325569,-518.144159,2294.638420,-10648.727422
884.325889,1628.453072,1110.308913,-10648.727422
884.326209,666.185348,-814.226536,-11031.775171
884.326529,-1110.308913,-1554.432478,-10112.460574
884.326849,-2294.638420,-2516.700203,-10112.460574
884.327169,518.144159,-1406.391290,-10801.946522
884.327489,1332.370696,-666.185348,-11184.994271
884.327808,740.205942,814.226536,-11108.384721
884.328128,-1554.432478,1776.494261,-11184.994271
884.328448,-1776.494261,1924.535449,-10878.556072
884.328768,-962.267725,1924.535449,-10801.946522
884.329088,-370.102971,296.082377,-10418.898773
884.329408,-444.123565,-740.205942,-9959.241474
884.329728,296.082377,-2368.659014,-9959.241474
884.330048,962.267725,-3552.988522,-9806.022374
884.330368,-444.123565,-3256.906145,-9116.536426
884.330688,-2812.782580,0.000000,-9499.584175
884.331008,-2664.741391,2442.679609,-9806.022374
884.331328,444.123565,2960.823768,-9729.412825
884.331648,1406.391290,370.102971,-9806.022374
884.331968,1480.411884,-1702.473667,-9652.803275
884.332288,-518.144159,-3330.926739,-8963.317327
884.332608,-740.205942,-962.267725,-9346.365076
884.332928,-1110.308913,74.020594,-9576.193725
884.333248,-74.020594,888.247130,-9729.412825
884.333568,1554.432478,1406.391290,-9806.022374
884.333888,1036.288319,1258.350101,-10112.460574
884.334208,74.020594,1702.473667,-9729.412825
884.334528,-222.061783,1110.308913,-10342.289223
884.334848,-148.041188,0.000000,-10112.460574
884.335168,296.082377,-148.041188,-10342.289223
884.335488,740.205942,-592.164754,-10572.117872
884.335808,518.144159,-592.164754,-10265.679673
884.336128,814.226536,-814.226536,-9959.241474
884.336448,2220.617826,1406.391290,-11184.994271
884.336768,2368.659014,2664.741391,-10342.289223
884.337088,1924.535449,3552.988522,-10801.946522
884.337408,518.144159,1184.329507,-10572.117872
884.337728,-148.041188,-444.123565,-10035.851024
884.338048,1184.329507,-962.267725,-10112.460574
884.338368,2072.576638,-148.041188,-10342.289223
884.338688,2516.700203,518.144159,-10342.289223
884.339008,2146.597232,2590.720797,-10342.289223
884.339328,370.102971,3256.906145,-10265.679673
884.339648,666.185348,3849.070898,-9729.412825
884.339968,1628.453072,3108.864956,-9806.022374
884.340288,2146.597232,1554.432478,-9806.022374
884.340608,1628.453072,0.000000,-9652.803275
884.340928,2220.617826,-814.226536,-9652.803275
884.341248,2368.659014,-370.102971,-9499.584175
884.341568,-518.144159,888.247130,-9269.755526
884.341888,-1628.453072,2442.679609,-9806.022374
884.342208,296.082377,3330.926739,-9882.631924
884.342528,2590.720797,3701.029710,-9882.631924
884.342848,1480.411884,1998.556043,-9882.631924
884.343168,222.061783,-1480.411884,-10035.851024
884.343488,0.000000,-2220.617826,-9729.412825
884.343808,74.020594,-888.247130,-10112.460574
884.344128,0.000000,1110.308913,-10495.508323
884.344448,0.000000,2442.679609,-10342.289223
884.344768,888.247130,2590.720797,-10725.336972
884.345088,1036.288319,962.267725,-10801.946522
884.345408,1628.453072,444.123565,-10725.336972
884.345728,1036.288319,1258.350101,-11031.775171
884.346048,222.061783,-370.102971,-10265.679673
884.346368,666.185348,-518.144159,-10112.460574
884.346688,-296.082377,-370.102971,-10572.117872
884.347008,-1480.411884,-814.226536,-9806.022374
884.347328,0.000000,-518.144159,-10112.460574
884.347648,666.185348,148.041188,-10418.898773
884.347967,962.267725,1110.308913,-10265.679673
884.348287,-1776.494261,1850.514855,-10418.898773
884.348607,-2368.659014,1702.473667,-10342.289223
884.348927,-2664.741391,0.000000,-9729.412825
884.349247,-2442.679609,-1036.288319,-9652.803275
884.349567,-296.082377,-2368.659014,-9576.193725
884.349887,296.082377,-2886.803174,-8273.831378
884.350207,370.102971,-2368.659014,-9652.803275
884.350527,-74.020594,-592.164754,-9729.412825
884.350847,-444.123565,1258.350101,-9499.584175
884.351167,-1702.473667,2220.617826,-10035.851024
884.351487,-740.205942,1184.329507,-9882.631924
884.351807,0.000000,-370.102971,-10035.851024
884.352127,-222.061783,-1480.411884,-10342.289223
884.352447,-222.061783,-2368.659014,-9499.584175
884.352767,-1332.370696,-1554.432478,-10495.508323
884.353087,-1406.391290,74.020594,-10265.679673
884.353407,222.061783,962.267725,-10418.898773
884.353727,592.164754,1554.432478,-11031.775171
884.354047,222.061783,888.247130,-11108.384721
884.354367,0.000000,740.205942,-10572.117872
884.354687,814.226536,888.247130,-10801.946522
884.355007,2146.597232,1332.370696,-10648.727422
884.355327,1776.494261,-444.123565,-9422.974625
884.355647,2146.597232,-1480.411884,-9959.241474
884.355967,2590.720797,-1998.556043,-10112.460574
884.356287,2812.782580,-592.164754,-10342.289223
884.356607,2886.803174,1480.411884,-10648.727422
884.356927,3182.885551,1554.432478,-10418.898773
884.357247,3330.926739,2072.576638,-10495.508323
884.357567,2072.576638,1406.391290,-10189.070123
884.357887,962.267725,1702.473667,-10342.289223
884.358207,518.144159,2368.659014,-9882.631924
884.358527,1924.535449,2146.597232,-9959.241474
884.358847,3478.967927,370.102971,-10342.289223
884.359167,3701.029710,-962.267725,-9269.755526
884.359487,1258.350101,-2368.659014,-9269.755526
884.359807,0.000000,-1480.411884,-8350.440928
884.360127,888.247130,370.102971,-9039.926876
884.360447,2072.576638,1258.350101,-9576.193725
884.360767,1850.514855,-148.041188,-9346.365076
884.361087,1702.473667,-370.102971,-9422.974625
884.361407,1110.308913,-1480.411884,-9652.803275
884.361727,296.082377,-962.267725,-9269.755526
884.362047,74.020594,888.247130,-9959.241474
884.362367,888.247130,1110.308913,-10418.898773
884.362687,740.205942,962.267725,-10955.165621
884.363007,0.000000,-592.164754,-10725.336972
884.363327,-74.020594,-1924.535449,-10112.460574
884.363647,-962.267725,-2294.638420,-9806.022374
884.363967,-1036.288319,-1406.391290,-10801.946522
884.364287,-296.082377,444.123565,-10725.336972
884.364607,-592.164754,1406.391290,-10725.336972
884.364927,0.000000,1406.391290,-11414.822920
884.365247,-740.205942,962.267725,-11108.384721
884.365567,-888.247130,296.082377,-10572.117872
884.365887,-296.082377,740.205942,-11184.994271
884.366207,370.102971,592.164754,-10342.289223
884.366527,-1184.329507,666.185348,-10648.727422
884.366847,-1554.432478,1184.329507,-10418.898773
884.367167,-2220.617826,0.000000,-10265.679673
884.367487,-1480.411884,-148.041188,-9959.241474
884.367807,-222.061783,0.000000,-10342.289223
884.368126,666.185348,-740.205942,-10495.508323
884.368446,0.000000,-444.123565,-10725.336972
884.368766,-1184.329507,-370.102971,-9576.193725
884.369086,-2368.659014,370.102971,-9729.412825
884.369406,-1776.494261,1332.370696,-9576.193725
884.369726,1110.308913,888.247130,-9806.022374
884.370046,1924.535449,1110.308913,-9806.022374
884.370366,814.226536,2442.679609,-9882.631924
884.370686,296.082377,1924.535449,-10035.851024
884.371006,1554.432478,1332.370696,-9193.145976
884.371326,1998.556043,-1258.350101,-9729.412825
884.371646,518.144159,-2812.782580,-9116.536426
884.371966,-1036.288319,-3330.926739,-8963.317327
884.372286,-2146.597232,-2442.679609,-9039.926876
884.372606,-1480.411884,0.000000,-9346.365076
884.372926,444.123565,2590.720797,-10035.851024
884.373246,2072.576638,2812.782580,-10495.508323
884.373566,3478.967927,1406.391290,-10495.508323
884.373886,3256.906145,-1036.288319,-9882.631924
884.374206,1628.453072,-1184.329507,-10035.851024
884.374526,518.144159,666.185348,-10342.289223
884.374846,-1110.308913,2368.659014,-10801.946522
884.375166,2368.659014,2886.803174,-11414.822920
884.375486,3182.885551,1554.432478,-9882.631924
884.375806,2146.597232,222.061783,-10648.727422
884.376126,370.102971,0.000000,-10725.336972
884.376446,222.061783,1332.370696,-10342.289223
884.376766,740.205942,3627.009116,-11261.603821
884.377086,1998.556043,4145.153275,-10955.165621
884.377406,1258.350101,2960.823768,-10418.898773
884.377726,740.205942,0.000000,-10189.070123
884.378046,148.041188,-1850.514855,-9959.241474
884.378366,0.000000,-2516.700203,-9269.755526
884.378686,1406.391290,-962.267725,-9729.412825
884.379006,2664.741391,-222.061783,-9193.145976
884.379326,2664.741391,1184.329507,-9806.022374
884.379646,1332.370696,1110.308913,-10035.851024
884.379966,444.123565,2072.576638,-9806.022374
884.380286,-444.123565,2664.741391,-9806.022374
884.380606,-222.061783,666.185348,-10035.851024
884.380926,888.247130,-814.226536,-9039.926876
884.381246,2220.617826,-3256.906145,-9039.926876
884.381566,2738.761985,-3330.926739,-9806.022374
884.381886,1406.391290,-1184.329507,-9729.412825
884.382206,370.102971,2442.679609,-10648.727422
884.382526,-740.205942,3552.988522,-9193.145976
884.382846,-148.041188,2960.823768,-10189.070123
884.383166,0.000000,1406.391290,-10572.117872
884.383486,1110.308913,-1406.391290,-9806.022374
884.383806,962.267725,-1480.411884,-10648.727422
884.384126,-222.061783,-2072.576638,-10189.070123
884.384446,-962.267725,-1110.308913,-10418.898773
884.384766,-888.247130,-518.144159,-10495.508323
884.385086,-814.226536,888.247130,-10572.117872
884.385406,-518.144159,2294.638420,-10878.556072
884.385726,-2146.597232,3256.906145,-10878.556072
884.386046,-1628.453072,3701.029710,-11338.213370
884.386366,-1110.308913,814.226536,-10418.898773
884.386686,-962.267725,-1480.411884,-10342.289223
884.387006,-666.185348,-2516.700203,-10725.336972
884.387326,-518.144159,-3478.967927,-9806.022374
884.387646,-740.205942,-814.226536,-9882.631924
884.387966,-592.164754,888.247130,-10418.898773
884.388286,-444.123565,1850.514855,-10342.289223
884.388605,-592.164754,1480.411884,-9806.022374
884.388925,-222.061783,444.123565,-10189.070123
884.389245,0.000000,-222.061783,-9346.365076
884.389565,740.205942,-444.123565,-9652.803275
884.389885,1554.432478,-1776.494261,-9959.241474
884.390205,2738.761985,-1924.535449,-9576.193725
884.390525,1998.556043,-592.164754,-9959.241474
884.390845,888.247130,1036.288319,-9959.241474
884.391165,444.123565,2220.617826,-9499.584175
884.391485,592.164754,2516.700203,-9959.241474
884.391805,2516.700203,1258.350101,-9806.022374
884.392125,3478.967927,-1850.514855,-9806.022374
884.392445,3330.926739,-2294.638420,-9959.241474
884.392765,1924.535449,-2886.803174,-9652.803275
884.393085,444.123565,-1554.432478,-9806.022374
884.393405,518.144159,1332.370696,-10572.117872
884.393725,1110.308913,2664.741391,-10189.070123
884.394045,1036.288319,3701.029710,-9806.022374
884.394365,1702.473667,2960.823768,-11108.384721
884.394685,1110.308913,1406.391290,-10572.117872
884.395005,740.205942,370.102971,-10265.679673
884.395325,1850.514855,-1110.308913,-11568.042020
884.395645,2294.638420,-2220.617826,-9959.241474
884.395965,2072.576638,-222.061783,-10342.289223
884.396285,1110.308913,2442.679609,-10342.289223
884.396605,592.164754,4737.318029,-10495.508323
884.396925,592.164754,5181.441594,-12027.699319
884.397245,666.185348,2368.659014,-10572.117872
884.397565,1554.432478,-1110.308913,-9576.193725
884.397885,1110.308913,-3108.864956,-9882.631924
884.398205,296.082377,-4071.132681,-9576.193725
884.398525,-1258.350101,-2442.679609,-9346.365076
884.398845,-1480.411884,296.082377,-9806.022374
884.399165,-814.226536,1036.288319,-9729.412825
884.399485,-1184.329507,2146.597232,-9806.022374
884.399805,0.000000,1480.411884,-9882.631924
884.400125,444.123565,444.123565,-9959.241474
884.400445,962.267725,-1406.391290,-9422.974625
884.400765,1258.350101,-3108.864956,-10112.460574
884.401085,592.164754,-3182.885551,-9499.584175
884.401405,74.020594,-3108.864956,-9193.145976
884.401725,-444.123565,0.000000,-10265.679673
884.402045,-1332.370696,2220.617826,-9959.241474
884.402365,-888.247130,2960.823768,-10342.289223
884.402685,74.020594,2516.700203,-10189.070123
884.403005,-296.082377,0.000000,-10112.460574
884.403325,-1554.432478,-1776.494261,-9882.631924
884.403645,-1554.432478,-3256.906145,-10189.070123
884.403965,222.061783,-3182.885551,-10265.679673
884.404285,814.226536,-1036.288319,-10418.898773
884.404605,-148.041188,666.185348,-10495.508323
884.404925,-1036.288319,1036.288319,-10189.070123
884.405245,-962.267725,1776.494261,-10035.851024
884.405565,-74.020594,1850.514855,-10878.556072
884.405885,370.102971,1110.308913,-10725.336972
884.406205,0.000000,-444.123565,-10725.336972
884.406525,0.000000,-1036.288319,-10342.289223
884.406845,740.205942,-1628.453072,-9882.631924
884.407165,370.102971,148.041188,-10189.070123
884.407485,-1184.329507,2294.638420,-10035.851024
884.407804,-1332.370696,3701.029710,-10265.679673
884.408124,444.123565,2960.823768,-11031.775171
884.408444,3627.009116,-444.123565,-9729.412825
884.408764,4589.276840,-2886.803174,-10189.070123
884.409084,1998.556043,-3256.906145,-10189.070123
884.409404,592.164754,-2368.659014,-10035.851024
884.409724,-666.185348,962.267725,-10189.070123
884.410044,1776.494261,1776.494261,-10342.289223
884.410364,1776.494261,2590.720797,-9959.241474
884.410684,1554.432478,1702.473667,-10265.679673
884.411004,1480.411884,962.267725,-10495.508323
884.411324,2368.659014,296.082377,-9882.631924
884.411644,2516.700203,0.000000,-10265.679673
884.411964,3182.885551,-296.082377,-10189.070123
884.412284,2368.659014,-1628.453072,-9422.974625
884.412604,740.205942,-1406.391290,-9422.974625
884.412924,222.061783,814.226536,-9576.193725
884.413244,1628.453072,3627.009116,-9806.022374
884.413564,2368.659014,4367.215058,-10112.460574
884.413884,3478.967927,2886.803174,-9039.926876
884.414204,1258.350101,666.185348,-10189.070123
884.414524,-592.164754,-1850.514855,-9652.803275
884.414844,-962.267725,-2294.638420,-9193.145976
884.415164,-666.185348,148.041188,-9729.412825
884.415484,-74.020594,2442.679609,-9806.022374
884.415804,1036.288319,2738.761985,-10035.851024
884.416124,1628.453072,1776.494261,-10342.289223
884.416444,1406.391290,1258.350101,-10112.460574
884.416764,1184.329507,1850.514855,-11568.042020
884.417084,444.123565,2368.659014,-10572.117872
884.417404,-370.102971,2368.659014,-10648.727422
884.417724,-370.102971,962.267725,-10189.070123
884.418044,-666.185348,-296.082377,-10418.898773
884.418364,-1628.453072,-1258.350101,-10495.508323
884.418684,-1332.370696,-518.144159,-10035.851024
884.419004,-888.247130,1998.556043,-10342.289223
884.419324,888.247130,2368.659014,-11031.775171
884.419644,2294.638420,1850.514855,-9729.412825
884.419964,1480.411884,1036.288319,-10495.508323
884.420284,-666.185348,0.000000,-10495.508323
884.420604,-2072.576638,-1332.370696,-9806.022374
884.420924,-740.205942,-1850.514855,-10035.851024
884.421244,148.041188,-962.267725,-9806.022374
884.421563,-1036.288319,-962.267725,-9806.022374
884.421883,-2072.576638,296.082377,-9806.022374
884.422203,-1332.370696,-222.061783,-9882.631924
884.422523,-592.164754,222.061783,-9806.022374
884.422843,-444.123565,814.226536,-10572.117872
884.423163,74.020594,-962.267725,-9806.022374
884.423483,666.185348,-1480.411884,-9729.412825
884.423803,-296.082377,-1554.432478,-9269.755526
884.424123,-2220.617826,-1406.391290,-9346.365076
884.424443,-1406.391290,-222.061783,-9576.193725
884.424763,888.247130,1702.473667,-10342.289223
884.425083,2516.700203,592.164754,-10035.851024
884.425403,1702.473667,814.226536,-9269.755526
884.425723,148.041188,-740.205942,-10648.727422
884.426043,0.000000,-814.226536,-9806.022374
884.426363,1036.288319,-1258.350101,-10112.460574
884.426683,2812.782580,444.123565,-10418.898773
884.427003,2368.659014,814.226536,-9959.241474
884.427323,-148.041188,1850.514855,-11261.603821
884.427643,-1036.288319,1850.514855,-10955.165621
884.427963,-888.247130,1406.391290,-10418.898773
884.428283,1406.391290,1184.329507,-11031.775171
884.428603,3182.885551,-592.164754,-10189.070123
884.428923,3627.009116,-2220.617826,-10495.508323
884.429243,2072.576638,-1554.432478,-10495.508323
884.429563,518.144159,-962.267725,-10112.460574
884.429883,-666.185348,814.226536,-10572.117872
884.430203,518.144159,296.082377,-10418.898773
884.430523,1776.494261,74.020594,-9729.412825
884.430843,1998.556043,740.205942,-9882.631924
884.431163,2368.659014,74.020594,-10112.460574
884.431483,2442.679609,-518.144159,-9806.022374
884.431803,1480.411884,-814.226536,-9806.022374
884.432123,1258.350101,-2368.659014,-9116.536426
884.432443,1850.514855,-2220.617826,-8733.488677
884.432763,296.082377,-814.226536,-9576.193725
884.433083,-1184.329507,1480.411884,-9422.974625
884.433403,-814.226536,3775.050304,-9806.022374
884.433723,962.267725,3923.091493,-10035.851024
884.434043,1776.494261,2368.659014,-9806.022374
884.434363,1480.411884,0.000000,-9806.022374
884.434683,0.000000,-2368.659014,-9806.022374
884.435003,444.123565,-2886.803174,-9806.022374
884.435323,814.226536,-1480.411884,-9422.974625
884.435642,814.226536,1332.370696,-9882.631924
884.435962,518.144159,3923.091493,-10878.556072
884.436282,1110.308913,4219.173869,-10801.946522
884.436602,814.226536,2220.617826,-11874.480219
884.436922,0.000000,0.000000,-10648.727422
884.437242,1258.350101,-814.226536,-10189.070123
884.437562,814.226536,-444.123565,-11184.994271
884.437882,1184.329507,74.020594,-10342.289223
884.438202,-1776.494261,1258.350101,-12257.527968
884.438522,-962.267725,1628.453072,-11108.384721
884.438842,296.082377,0.000000,-10035.851024
884.439162,74.020594,296.082377,-10572.117872
884.439482,2516.700203,1702.473667,-10189.070123
884.439802,296.082377,1850.514855,-10572.117872
884.440122,-962.267725,1998.556043,-10572.117872
884.440442,-444.123565,296.082377,-10265.679673
884.440762,-370.102971,-518.144159,-9806.022374
884.441082,0.000000,-888.247130,-9959.241474
884.441402,-592.164754,74.020594,-9806.022374
884.441722,-888.247130,962.267725,-9193.145976
884.442042,0.000000,1776.494261,-9882.631924
884.442362,0.000000,888.247130,-9729.412825
884.442682,-666.185348,-1184.329507,-8427.050478
884.443002,-222.061783,-1702.473667,-10342.289223
884.443322,-444.123565,-1184.329507,-9193.145976
884.443642,-1628.453072,740.205942,-9729.412825
884.443962,-2368.659014,3627.009116,-9806.022374
884.444282,-1480.411884,3775.050304,-9806.022374
884.444602,814.226536,2368.659014,-10112.460574
884.444922,3034.844362,592.164754,-10495.508323
884.445242,2960.823768,-2146.597232,-9269.755526
884.445562,222.061783,-1480.411884,-9959.241474
884.445882,222.061783,-1184.329507,-10189.070123
884.446202,1554.432478,0.000000,-9499.584175
884.446522,370.102971,-148.041188,-10495.508323
884.446842,296.082377,0.000000,-10112.460574
884.447162,666.185348,-740.205942,-10189.070123
884.447482,1110.308913,-666.185348,-10801.946522
884.447802,2072.576638,1184.329507,-10955.165621
884.448122,1480.411884,2220.617826,-10342.289223
884.448442,1554.432478,1702.473667,-11184.994271
884.448762,2960.823768,0.000000,-10342.289223
884.449082,3034.844362,-1036.288319,-10801.946522
884.449402,1776.494261,-888.247130,-9193.145976
884.449721,444.123565,-296.082377,-10189.070123
884.450041,-296.082377,1110.308913,-9346.365076
884.450361,740.205942,0.000000,-10112.460574
884.450681,2368.659014,74.020594,-9882.631924
884.451001,2072.576638,-296.082377,-9499.584175
884.451321,148.041188,518.144159,-9959.241474
884.451641,-1702.473667,1406.391290,-10189.070123
884.451961,-592.164754,1036.288319,-9882.631924
884.452281,962.267725,444.123565,-9806.022374
884.452601,2960.823768,-1776.494261,-9039.926876
884.452921,3404.947333,-1332.370696,-9652.803275
884.453241,1406.391290,-592.164754,-9959.241474
884.453561,-518.144159,0.000000,-9499.584175
884.453881,-814.226536,2294.638420,-9576.193725
884.454201,-888.247130,888.247130,-9806.022374
884.454521,592.164754,-296.082377,-10035.851024
884.454841,-962.267725,-1480.411884,-9959.241474
884.455161,-962.267725,-2516.700203,-10265.679673
884.455481,148.041188,74.020594,-10112.460574
884.455801,1258.350101,1554.432478,-10878.556072
884.456121,518.144159,1480.411884,-10265.679673
884.456441,74.020594,1184.329507,-9959.241474
884.456761,1036.288319,370.102971,-10801.946522
884.457081,1184.329507,0.000000,-11108.384721
884.457401,-518.144159,148.041188,-10112.460574
884.457721,-1628.453072,0.000000,-10572.117872
884.458041,-1184.329507,148.041188,-9193.145976
884.458361,-740.205942,-1850.514855,-9652.803275
884.458681,-592.164754,-592.164754,-10418.898773
884.459001,-1924.535449,740.205942,-10112.460574
884.459321,-1850.514855,2738.761985,-10035.851024
884.459641,666.185348,2220.617826,-10189.070123
884.459961,1998.556043,74.020594,-9499.584175
884.460281,518.144159,-1184.329507,-9882.631924
884.460601,-370.102971,-3108.864956,-9576.193725
884.460921,222.061783,-1924.535449,-9499.584175
884.461241,222.061783,962.267725,-9729.412825
884.461561,1184.329507,2812.782580,-9959.241474
884.461881,1554.432478,3923.091493,-10035.851024
884.462201,-1480.411884,1850.514855,-10801.946522
884.462521,-1184.329507,0.000000,-9499.584175
884.462841,-148.041188,-296.082377,-9576.193725
884.463161,-1110.308913,-1998.556043,-9576.193725
884.463480,370.102971,-2072.576638,-9193.145976
884.463800,2886.803174,0.000000,-10189.070123
884.464120,2072.576638,1554.432478,-10418.898773
884.464440,-222.061783,2442.679609,-10418.898773
884.464760,-1480.411884,2072.576638,-10112.460574
884.465080,-962.267725,2368.659014,-10342.289223
884.465400,0.000000,1036.288319,-9729.412825
884.465720,518.144159,-444.123565,-10189.070123
884.466040,1406.391290,-518.144159,-10265.679673
884.466360,1406.391290,-222.061783,-10342.289223
884.466680,3034.844362,0.000000,-10418.898773
884.467000,3627.009116,1184.329507,-10342.289223
884.467320,3627.009116,1036.288319,-10112.460574
884.467640,1924.535449,1332.370696,-10112.460574
884.467960,-222.061783,1924.535449,-10801.946522
884.468280,370.102971,1554.432478,-10189.070123
884.468600,444.123565,888.247130,-10112.460574
884.468920,2072.576638,222.061783,-10572.117872
884.469240,4145.153275,-444.123565,-10035.851024
884.469560,2368.659014,1924.535449,-10418.898773
884.469880,592.164754,1554.432478,-10418.898773
884.470200,444.123565,1110.308913,-9346.365076
884.470520,888.247130,2146.597232,-10648.727422
884.470840,814.226536,518.144159,-9959.241474
884.471160,1184.329507,-222.061783,-10035.851024
884.471480,518.144159,-666.185348,-10035.851024
884.471800,74.020594,-666.185348,-9422.974625
884.472120,666.185348,592.164754,-9652.803275
884.472440,1850.514855,1332.370696,-10265.679673
884.472760,2886.803174,1406.391290,-9729.412825
884.473080,1776.494261,0.000000,-9576.193725
884.473400,148.041188,-962.267725,-10265.679673
884.473720,-1554.432478,-962.267725,-8427.050478
884.474040,-1628.453072,0.000000,-9806.022374
884.474360,-296.082377,-148.041188,-9959.241474
884.474680,1036.288319,0.000000,-9652.803275
884.475000,1480.411884,0.000000,-10495.508323
884.475320,1258.350101,-814.226536,-10342.289223
884.475640,-1480.411884,518.144159,-9882.631924
884.475960,-2960.823768,666.185348,-10342.289223
884.476280,-1184.329507,-296.082377,-10189.070123
884.476600,148.041188,-1258.350101,-9806.022374
884.476920,-666.185348,-1406.391290,-10801.946522
884.477240,-592.164754,-1406.391290,-10418.898773
884.477559,-962.267725,-444.123565,-10495.508323
884.477879,-148.041188,1184.329507,-10955.165621
884.478199,1480.411884,2072.576638,-10801.946522
884.478519,1110.308913,1850.514855,-10112.460574
884.478839,-444.123565,296.082377,-10955.165621
884.479159,-2072.576638,-222.061783,-10112.460574
884.479479,-2812.782580,0.000000,-10112.460574
884.479799,-888.247130,-1036.288319,-10418.898773
884.480119,1406.391290,-2146.597232,-9346.365076
884.480439,2368.659014,-1554.432478,-9806.022374
884.480759,666.185348,962.267725,-9269.755526
884.481079,74.020594,1628.453072,-9729.412825
884.481399,-2368.659014,3849.070898,-10112.460574
884.481719,-1850.514855,3330.926739,-10035.851024
884.482039,-1184.329507,1924.535449,-9116.536426
884.482359,-370.102971,-1332.370696,-9346.365076
884.482679,962.267725,-3108.864956,-9576.193725
884.482999,3256.906145,-3478.967927,-9039.926876
884.483319,3034.844362,-1628.453072,-10035.851024
884.483639,2886.803174,222.061783,-9422.974625
884.483959,3034.844362,1850.514855,-10035.851024
884.484279,2072.576638,2516.700203,-10112.460574
884.484599,1110.308913,2368.659014,-10648.727422
884.484919,666.185348,962.267725,-10035.851024
884.485239,1702.473667,0.000000,-10418.898773
884.485559,3256.906145,-1480.411884,-10265.679673
884.485879,2590.720797,-1332.370696,-10342.289223
884.486199,1554.432478,-296.082377,-10342.289223
884.486519,-888.247130,666.185348,-10265.679673
884.486839,74.020594,2146.597232,-10342.289223
884.487159,1036.288319,2664.741391,-10495.508323
884.487479,2368.659014,592.164754,-10418.898773
884.487799,1332.370696,-148.041188,-10342.289223
884.488119,-222.061783,-1406.391290,-9806.022374
884.488439,-592.164754,-740.205942,-9499.584175
884.488759,296.082377,666.185348,-10495.508323
884.489079,1480.411884,1184.329507,-9806.022374
884.489399,2960.823768,1702.473667,-10418.898773
884.489719,1554.432478,2072.576638,-10112.460574
884.490039,-814.226536,1036.288319,-10342.289223
884.490359,-1628.453072,814.226536,-9499.584175
884.490679,-1036.288319,444.123565,-10265.679673
884.490999,592.164754,0.000000,-10418.898773
884.491319,148.041188,-518.144159,-9576.193725
884.491638,-1036.288319,-962.267725,-10495.508323
884.491958,-1554.432478,0.000000,-9652.803275
884.492278,-962.267725,1998.556043,-10648.727422
884.492598,0.000000,2664.741391,-10495.508323
884.492918,666.185348,1110.308913,-9652.803275
884.493238,888.247130,74.020594,-10112.460574
884.493558,-518.144159,-814.226536,-11261.603821
884.493878,-592.164754,-1924.535449,-9806.022374
884.494198,-962.267725,370.102971,-10189.070123
884.494518,-592.164754,1258.350101,-10495.508323
884.494838,962.267725,1036.288319,-10418.898773
884.495158,740.205942,592.164754,-10725.336972
884.495478,-370.102971,444.123565,-10495.508323
884.495798,-740.205942,666.185348,-10342.289223
884.496118,-1184.329507,1258.350101,-10112.460574
884.496438,-1258.350101,-592.164754,-10189.070123
884.496758,592.164754,296.082377,-9806.022374
884.497078,1110.308913,-370.102971,-10112.460574
884.497398,2590.720797,222.061783,-10342.289223
884.497718,444.123565,2442.679609,-9806.022374
884.498038,-592.164754,2886.803174,-10648.727422
884.498358,814.226536,814.226536,-10035.851024
884.498678,1406.391290,-1332.370696,-9652.803275
884.498998,1628.453072,-1332.370696,-9882.631924
884.499318,0.000000,-2442.679609,-9652.803275
884.499638,148.041188,370.102971,-9652.803275
884.499958,-888.247130,2072.576638,-10342.289223
884.500278,1480.411884,2146.597232,-9806.022374
884.500598,2368.659014,1776.494261,-9806.022374
884.500918,1776.494261,666.185348,-10265.679673
884.501238,2072.576638,-1184.329507,-9499.584175
884.501558,888.247130,-1332.370696,-9269.755526
884.501878,1480.411884,-1332.370696,-9729.412825
884.502198,3701.029710,-888.247130,-8963.317327
884.502518,3701.029710,-962.267725,-9729.412825
884.502838,1850.514855,-296.082377,-10725.336972
884.503158,-148.041188,2146.597232,-10035.851024
884.503478,-1332.370696,2664.741391,-10648.727422
884.503798,740.205942,2072.576638,-10418.898773
884.504118,888.247130,370.102971,-10265.679673
884.504438,740.205942,-1184.329507,-10725.336972
884.504758,1110.308913,-1332.370696,-10648.727422
884.505078,370.102971,444.123565,-10265.679673
884.505398,-518.144159,888.247130,-10878.556072
884.505717,-666.185348,1850.514855,-10495.508323
884.506037,74.020594,2368.659014,-10189.070123
884.506357,0.000000,2146.597232,-10725.336972
884.506677,-814.226536,666.185348,-10572.117872
884.506997,-1110.308913,-222.061783,-10112.460574
884.507317,370.102971,-592.164754,-10342.289223
884.507637,2590.720797,-1702.473667,-9729.412825
884.507957,3404.947333,-1998.556043,-9959.241474
884.508277,1036.288319,0.000000,-9959.241474
884.508597,74.020594,814.226536,-9576.193725
884.508917,-1036.288319,2368.659014,-9652.803275
884.509237,-2072.576638,1258.350101,-9959.241474
884.509557,-444.123565,-444.123565,-9116.536426
884.509877,-74.020594,-1628.453072,-9576.193725
884.510197,-74.020594,-2368.659014,-9806.022374
884.510517,0.000000,-1184.329507,-9729.412825
884.510837,-296.082377,666.185348,-9959.241474
884.511157,0.000000,1184.329507,-10495.508323
884.511477,962.267725,2590.720797,-10189.070123
884.511796,1480.411884,2072.576638,-10801.946522
884.512116,666.185348,740.205942,-10725.336972
884.512436,-962.267725,-1554.432478,-9729.412825
884.512756,-962.267725,-1406.391290,-10878.556072
884.513076,-666.185348,-1258.350101,-10878.556072
884.513396,1036.288319,592.164754,-10495.508323
884.513716,1332.370696,2442.679609,-11338.213370
884.514036,-814.226536,1110.308913,-10878.556072
884.514356,-1184.329507,1332.370696,-10955.165621
884.514676,-296.082377,1036.288319,-11261.603821
884.514996,888.247130,0.000000,-11644.651570
884.515316,296.082377,-518.144159,-10189.070123
884.515636,-1036.288319,222.061783,-10878.556072
884.515956,-814.226536,-296.082377,-10035.851024
884.516276,814.226536,-370.102971,-9806.022374
884.516596,592.164754,74.020594,-10112.460574
884.516915,518.144159,370.102971,-9652.803275
884.517235,1702.473667,1554.432478,-10265.679673
884.517555,-444.123565,1332.370696,-10265.679673
884.517875,0.000000,-1332.370696,-8503.660028
884.518195,148.041188,-666.185348,-9499.584175
884.518515,888.247130,-1850.514855,-9039.926876
884.518835,1998.556043,-518.144159,-8656.879127
884.519155,2516.700203,962.267725,-10112.460574
884.519475,2886.803174,1554.432478,-9806.022374
884.519795,1184.329507,888.247130,-9193.145976
884.520115,-296.082377,370.102971,-10112.460574
884.520435,518.144159,-740.205942,-8963.317327
884.520755,1332.370696,370.102971,-9422.974625
884.521075,814.226536,2294.638420,-10265.679673
884.521395,740.205942,1998.556043,-10035.851024
884.521714,1702.473667,1036.288319,-9959.241474
884.522034,2368.659014,-1184.329507,-10495.508323
884.522354,2960.823768,-2738.761985,-9576.193725
884.522674,2368.659014,-1184.329507,-10342.289223
884.522994,814.226536,1776.494261,-11184.994271
884.523314,740.205942,4145.153275,-11184.994271
884.523634,-148.041188,4589.276840,-11108.384721
884.523954,1184.329507,2886.803174,-11261.603821
884.524274,1702.473667,814.226536,-10648.727422
884.524594,1332.370696,-148.041188,-11184.994271
884.524914,1332.370696,666.185348,-11414.822920
884.525234,1702.473667,814.226536,-9806.022374
884.525554,-74.020594,1480.411884,-11031.775171
884.525874,0.000000,1110.308913,-10035.851024
884.526194,962.267725,1258.350101,-10418.898773
884.526514,1776.494261,1036.288319,-10342.289223
884.526833,-296.082377,444.123565,-9806.022374
884.527153,0.000000,-222.061783,-9193.145976
884.527473,592.164754,1110.308913,-9806.022374
884.527793,1332.370696,-740.205942,-8810.098227
884.528113,1776.494261,-666.185348,-9576.193725
884.528433,222.061783,222.061783,-9806.022374
884.528753,-592.164754,-666.185348,-9346.365076
884.529073,444.123565,222.061783,-9422.974625
884.529393,-222.061783,-148.041188,-9576.193725
884.529713,-962.267725,-666.185348,-9116.536426
884.530033,-962.267725,-1332.370696,-9269.755526
884.530353,0.000000,-1110.308913,-10189.070123
884.530673,-370.102971,-296.082377,-9346.365076
884.530993,-962.267725,0.000000,-10189.070123
884.531313,0.000000,-740.205942,-10495.508323
884.531632,-592.164754,-1184.329507,-9959.241474
884.531952,-1702.473667,-370.102971,-10801.946522
884.532272,-1998.556043,962.267725,-10801.946522
884.532592,-2072.576638,1258.350101,-10189.070123
884.532912,444.123565,1036.288319,-11721.261119
884.533232,518.144159,888.247130,-10725.336972
884.533552,1110.308913,-740.205942,-11031.775171
884.533872,222.061783,-1110.308913,-11184.994271
884.534192,-1110.308913,-518.144159,-10725.336972
884.534512,-2072.576638,1480.411884,-11108.384721
884.534832,-592.164754,1258.350101,-10801.946522
884.535152,814.226536,666.185348,-10112.460574
884.535472,1406.391290,-1332.370696,-9806.022374
884.535792,2442.679609,-1036.288319,-10725.336972
884.536112,888.247130,-592.164754,-9882.631924
884.536431,-962.267725,222.061783,-9346.365076
884.536751,296.082377,-444.123565,-10189.070123
884.537071,1036.288319,-370.102971,-9346.365076
884.537391,-1036.288319,592.164754,-9269.755526
884.537711,-888.247130,666.185348,-10035.851024
884.538031,74.020594,962.267725,-9116.536426
884.538351,1258.350101,444.123565,-9959.241474
884.538671,3182.885551,-1554.432478,-9806.022374
884.538991,4663.297435,-1924.535449,-8963.317327
884.539311,1850.514855,-518.144159,-10189.070123
884.539631,740.205942,-592.164754,-9652.803275
884.539951,1406.391290,148.041188,-9346.365076
884.540271,740.205942,1924.535449,-9499.584175
884.540591,1480.411884,3108.864956,-10572.117872
884.540911,1184.329507,1850.514855,-9882.631924
884.541231,1480.411884,-888.247130,-11108.384721
884.541550,666.185348,-2220.617826,-9806.022374
884.541870,1406.391290,-740.205942,-10112.460574
884.542190,2294.638420,814.226536,-11108.384721
884.542510,2072.576638,888.247130,-10112.460574
884.542830,2590.720797,1998.556043,-10265.679673
884.543150,148.041188,1702.473667,-10955.165621
884.543470,-1628.453072,888.247130,-9959.241474
884.543790,222.061783,1628.453072,-10572.117872
884.544110,1702.473667,1924.535449,-10801.946522
884.544430,4367.215058,1184.329507,-10495.508323
884.544750,2960.823768,1184.329507,-10648.727422
884.545070,-1776.494261,666.185348,-9499.584175
884.545390,-2220.617826,740.205942,-9346.365076
884.545710,-1628.453072,1036.288319,-9806.022374
884.546030,-444.123565,814.226536,-10342.289223
884.546349,592.164754,888.247130,-9193.145976
884.546669,1036.288319,2220.617826,-9959.241474
884.546989,-1036.288319,740.205942,-10112.460574
884.547309,-592.164754,444.123565,-9422.974625
884.547629,0.000000,1924.535449,-10035.851024
884.547949,0.000000,1184.329507,-10572.117872
884.548269,74.020594,-814.226536,-9116.536426
884.548589,-962.267725,-518.144159,-9806.022374
884.548909,-888.247130,518.144159,-9729.412825
884.549229,444.123565,-518.144159,-8963.317327
884.549549,1776.494261,444.123565,-10648.727422
884.549869,1998.556043,1258.350101,-9576.193725
884.550189,1406.391290,740.205942,-10189.070123
884.550509,-1036.288319,444.123565,-9116.536426
884.550829,-2368.659014,-666.185348,-10035.851024
884.551149,-2886.803174,-666.185348,-10035.851024
884.551468,-1850.514855,-1110.308913,-10035.851024
884.551788,1406.391290,-962.267725,-9959.241474
884.552108,2590.720797,0.000000,-10648.727422
884.552428,0.000000,74.020594,-11414.822920
884.552748,-592.164754,666.185348,-10265.679673
884.553068,0.000000,2738.761985,-10801.946522
884.553388,74.020594,1628.453072,-10955.165621
884.553708,-518.144159,444.123565,-9806.022374
884.554028,1332.370696,814.226536,-10955.165621
884.554348,2664.741391,-1110.308913,-10572.117872
884.554668,2146.597232,-592.164754,-9729.412825
884.554988,1184.329507,-740.205942,-9576.193725
884.555308,1036.288319,-740.205942,-9806.022374
884.555628,1480.411884,370.102971,-9652.803275
884.555948,296.082377,1110.308913,-10265.679673
884.556267,370.102971,1184.329507,-9576.193725
884.556587,-740.205942,1702.473667,-9499.584175
884.556907,0.000000,222.061783,-9882.631924
884.557227,740.205942,-2368.659014,-8733.488677
884.557547,1036.288319,-2442.679609,-8810.098227
884.557867,2812.782580,0.000000,-11797.870669
884.558187,2294.638420,-518.144159,-9882.631924
884.558507,2368.659014,370.102971,-9499.584175
884.558827,1998.556043,1924.535449,-10418.898773
884.559147,666.185348,1036.288319,-8886.707777
884.559467,1332.370696,0.000000,-10265.679673
884.559787,0.000000,0.000000,-10418.898773
884.560107,962.267725,-1258.350101,-9806.022374
884.560427,962.267725,-592.164754,-9729.412825
884.560747,1628.453072,1480.411884,-11031.775171
884.561066,962.267725,74.020594,-9959.241474
884.561386,962.267725,814.226536,-11108.384721
884.561706,740.205942,-814.226536,-10725.336972
884.562026,148.041188,-740.205942,-10572.117872
884.562346,-1924.535449,518.144159,-11031.775171
884.562666,222.061783,518.144159,-10495.508323
884.562986,740.205942,1628.453072,-10418.898773
884.563306,370.102971,1554.432478,-11951.089769
884.563626,592.164754,-222.061783,-10725.336972
884.563946,0.000000,-222.061783,-9959.241474
884.564266,592.164754,-518.144159,-10725.336972
884.564586,888.247130,740.205942,-10035.851024
884.564906,296.082377,1184.329507,-10035.851024
884.565226,148.041188,1110.308913,-10878.556072
884.565546,740.205942,962.267725,-9806.022374
884.565866,-740.205942,1036.288319,-9882.631924
884.566185,-666.185348,444.123565,-9882.631924
884.566505,518.144159,-740.205942,-9116.536426
884.566825,518.144159,444.123565,-10112.460574
884.567145,0.000000,-814.226536,-10495.508323
884.567465,814.226536,0.000000,-9193.145976
884.567785,-1776.494261,0.000000,-9499.584175
884.568105,148.041188,-592.164754,-9576.193725
884.568425,888.247130,444.123565,-9269.755526
884.568745,666.185348,296.082377,-10572.117872
884.569065,1406.391290,1036.288319,-9806.022374
884.569385,-222.061783,444.123565,-9116.536426
884.569705,-148.041188,-370.102971,-10035.851024
884.570025,740.205942,-1406.391290,-9576.193725
884.570345,666.185348,0.000000,-9806.022374
884.570665,592.164754,1332.370696,-10572.117872
884.570984,-814.226536,74.020594,-9729.412825
884.571304,-2294.638420,2886.803174,-10495.508323
884.571624,-2072.576638,1258.350101,-10801.946522
884.571944,518.144159,1184.329507,-10112.460574
884.572264,518.144159,296.082377,-10418.898773
884.572584,148.041188,1628.453072,-11644.651570
884.572904,-592.164754,-740.205942,-9806.022374
884.573224,1702.473667,0.000000,-10572.117872
884.573544,1184.329507,814.226536,-10648.727422
884.573864,1258.350101,1480.411884,-9806.022374
884.574184,444.123565,2294.638420,-10878.556072
884.574504,-148.041188,1776.494261,-10418.898773
884.574824,1332.370696,1480.411884,-9652.803275
884.575144,814.226536,370.102971,-10035.851024
884.575464,1998.556043,-592.164754,-10418.898773
884.575784,2294.638420,-1406.391290,-9576.193725
884.576103,2442.679609,-444.123565,-10035.851024
884.576423,1776.494261,740.205942,-9346.365076
884.576743,222.061783,1998.556043,-9806.022374
884.577063,0.000000,2294.638420,-10572.117872
884.577383,1184.329507,1110.308913,-10189.070123
884.577703,1554.432478,0.000000,-8503.660028
884.578023,1924.535449,-518.144159,-9806.022374
884.578343,1998.556043,-1110.308913,-9959.241474
884.578663,1554.432478,-222.061783,-9346.365076
884.578983,2368.659014,2220.617826,-10725.336972
884.579303,1998.556043,1110.308913,-9576.193725
884.579623,2146.597232,1332.370696,-10112.460574
884.579943,888.247130,148.041188,-10801.946522
884.580263,1110.308913,-814.226536,-9576.193725
884.580583,666.185348,740.205942,-10955.165621
884.580902,0.000000,592.164754,-10265.679673
884.581222,1998.556043,1332.370696,-9729.412825
884.581542,2146.597232,-666.185348,-10418.898773
884.581862,1702.473667,-1332.370696,-10572.117872
884.582182,-1184.329507,0.000000,-10572.117872
884.582502,-370.102971,1480.411884,-9959.241474
884.582822,222.061783,2368.659014,-10801.946522
884.583142,518.144159,962.267725,-9959.241474
884.583462,888.247130,0.000000,-11261.603821
884.583782,-1480.411884,-1406.391290,-10342.289223
884.584102,-1258.350101,-1110.308913,-9882.631924
884.584422,-296.082377,370.102971,-10572.117872
884.584742,888.247130,666.185348,-10189.070123
884.585062,888.247130,592.164754,-10035.851024
884.585382,-666.185348,1332.370696,-10342.289223
884.585701,-370.102971,0.000000,-10189.070123
884.586021,0.000000,-592.164754,-10112.460574
884.586341,-1332.370696,74.020594,-10342.289223
884.586661,148.041188,-888.247130,-9576.193725
884.586981,-1110.308913,-592.164754,-9576.193725
884.587301,-1628.453072,-592.164754,-9959.241474
884.587621,-370.102971,-1628.453072,-9806.022374
884.587941,-1480.411884,-370.102971,-9499.584175
884.588261,-1332.370696,740.205942,-10725.336972
884.588581,-2442.679609,-444.123565,-9882.631924
884.588901,-1036.288319,-740.205942,-9959.241474
884.589221,-296.082377,-666.185348,-10878.556072
884.589541,74.020594,-1628.453072,-9806.022374
884.589861,-148.041188,-444.123565,-10572.117872
884.590181,-1850.514855,-1110.308913,-9959.241474
884.590501,-222.061783,-814.226536,-9346.365076
884.590820,1332.370696,444.123565,-10342.289223
884.591140,1924.535449,1258.350101,-10648.727422
884.591460,888.247130,740.205942,-9806.022374
884.591780,-296.082377,0.000000,-10418.898773
884.592100,814.226536,-1184.329507,-9499.584175
884.592420,2368.659014,-1554.432478,-9959.241474
884.592740,2368.659014,-444.123565,-10418.898773
884.593060,1702.473667,74.020594,-9806.022374
884.593380,0.000000,888.247130,-9116.536426
884.593700,962.267725,592.164754,-10265.679673
884.594020,2738.761985,0.000000,-9499.584175
884.594340,1924.535449,1702.473667,-10112.460574
884.594660,1110.308913,814.226536,-10112.460574
884.594980,2368.659014,74.020594,-8963.317327
884.595300,1110.308913,-370.102971,-9652.803275
884.595619,2812.782580,1184.329507,-10342.289223
884.595939,2812.782580,148.041188,-9806.022374
884.596259,3775.050304,2220.617826,-10112.460574
884.596579,2738.761985,0.000000,-10342.289223
884.596899,2590.720797,0.000000,-9269.755526
884.597219,444.123565,2368.659014,-9806.022374
884.597539,1110.308913,1184.329507,-10955.165621
884.597859,2368.659014,1258.350101,-9959.241474
884.598179,962.267725,296.082377,-10725.336972
884.598499,-592.164754,0.000000,-9882.631924
884.598819,-1184.329507,1110.308913,-10189.070123
884.599139,-370.102971,1036.288319,-10572.117872
884.599459,222.061783,1036.288319,-10572.117872
884.599779,74.020594,1184.329507,-9729.412825
884.600099,1554.432478,2368.659014,-11338.213370
884.600418,888.247130,1554.432478,-9882.631924
884.600738,370.102971,1924.535449,-9806.022374
884.601058,0.000000,1998.556043,-11031.775171
884.601378,1332.370696,1628.453072,-9729.412825
884.601698,1036.288319,1702.473667,-9652.803275
884.602018,-444.123565,2442.679609,-10035.851024
884.602338,0.000000,296.082377,-9193.145976
884.602658,-1110.308913,-1554.432478,-9652.803275
884.602978,-1036.288319,-2368.659014,-9729.412825
884.603298,-1702.473667,-2368.659014,-10189.070123
884.603618,-1480.411884,0.000000,-9346.365076
884.603938,-1480.411884,1036.288319,-9959.241474
884.604258,-962.267725,2590.720797,-9652.803275
884.604578,-518.144159,3256.906145,-10572.117872
884.604898,-296.082377,1184.329507,-11414.822920
884.605218,-592.164754,-1406.391290,-9499.584175
884.605537,-1850.514855,-2886.803174,-10418.898773
884.605857,-1554.432478,-2220.617826,-10035.851024
884.606177,0.000000,-1110.308913,-9806.022374
884.606497,1554.432478,1702.473667,-10725.336972
884.606817,1258.350101,740.205942,-10495.508323
884.607137,0.000000,2590.720797,-10801.946522
884.607457,444.123565,2664.741391,-11338.213370
884.607777,814.226536,-1036.288319,-10112.460574
884.608097,0.000000,-740.205942,-10035.851024
884.608417,-962.267725,-2442.679609,-10418.898773
884.608737,296.082377,-2738.761985,-9806.022374
884.609057,-148.041188,-2442.679609,-10112.460574
884.609377,1998.556043,740.205942,-11338.213370
884.609697,814.226536,2442.679609,-9806.022374
884.610017,666.185348,4071.132681,-11108.384721
884.610337,1258.350101,2664.741391,-10725.336972
884.610657,2294.638420,370.102971,-9576.193725
884.610977,1776.494261,-666.185348,-10189.070123
884.611297,2368.659014,-2072.576638,-10342.289223
884.611617,2738.761985,-2738.761985,-9499.584175
884.611936,2590.720797,-1036.288319,-10495.508323
884.612256,2664.741391,1998.556043,-9806.022374
884.612576,1406.391290,2590.720797,-10572.117872
884.612896,-444.123565,3182.885551,-10572.117872
884.613216,148.041188,1554.432478,-9806.022374
884.613536,1036.288319,148.041188,-9729.412825
884.613856,1110.308913,-1998.556043,-9959.241474
884.614176,2516.700203,-2664.741391,-9729.412825
884.614496,2516.700203,-2516.700203,-9729.412825
884.614816,1628.453072,-296.082377,-9959.241474
884.615136,444.123565,1850.514855,-9882.631924
884.615456,-148.041188,2516.700203,-10112.460574
884.615776,222.061783,2146.597232,-10418.898773
884.616096,1998.556043,296.082377,-10418.898773
884.616416,1480.411884,-1036.288319,-10955.165621
884.616736,814.226536,-2072.576638,-10189.070123
884.617056,-370.102971,-1850.514855,-9652.803275
884.617376,-1332.370696,148.041188,-10725.336972
884.617696,-148.041188,1184.329507,-11031.775171
884.618016,296.082377,2072.576638,-10418.898773
884.618336,-296.082377,2812.782580,-10955.165621
884.618656,-740.205942,1628.453072,-10801.946522
884.618976,-1184.329507,-148.041188,-9806.022374
884.619295,-1110.308913,-1480.411884,-10189.070123
884.619615,74.020594,-2516.700203,-9806.022374
884.619935,1110.308913,-2294.638420,-9806.022374
884.620255,740.205942,444.123565,-10725.336972
884.620575,0.000000,2664.741391,-9882.631924
884.620895,-1850.514855,4367.215058,-10035.851024
884.621215,-1036.288319,3923.091493,-10725.336972
884.621535,1258.350101,1258.350101,-10035.851024
884.621855,1036.288319,-666.185348,-9806.022374
884.622175,222.061783,-2368.659014,-10035.851024
884.622495,518.144159,-2368.659014,-9269.755526
884.622815,74.020594,-1332.370696,-9729.412825
884.623135,0.000000,1110.308913,-9806.022374
884.623455,-148.041188,3404.947333,-8810.098227
884.623775,-592.164754,3775.050304,-10112.460574
884.624095,-296.082377,2516.700203,-10801.946522
884.624415,-1036.288319,1036.288319,-9652.803275
884.624735,-1850.514855,-962.267725,-9806.022374
884.625055,518.144159,-2664.741391,-10035.851024
884.625375,3404.947333,-3108.864956,-9576.193725
884.625695,1850.514855,-518.144159,-10342.289223
884.626015,518.144159,592.164754,-9959.241474
884.626334,0.000000,2368.659014,-10035.851024
884.626654,222.061783,2812.782580,-10955.165621
884.626974,1110.308913,2664.741391,-10418.898773
884.627294,222.061783,740.205942,-9806.022374
884.627614,-592.164754,-1628.453072,-9882.631924
884.627934,-296.082377,-2960.823768,-9422.974625
884.628254,370.102971,-2294.638420,-9576.193725
884.628574,814.226536,-1036.288319,-10342.289223
884.628894,1480.411884,-666.185348,-9269.755526
884.629214,1184.329507,370.102971,-9806.022374
884.629534,518.144159,2368.659014,-11184.994271
884.629854,444.123565,3404.947333,-9806.022374
884.630174,592.164754,2516.700203,-10648.727422
884.630494,888.247130,814.226536,-10112.460574
884.630814,296.082377,-2146.597232,-9499.584175
884.631134,-518.144159,-2590.720797,-10112.460574
884.631454,296.082377,-2146.597232,-9806.022374
884.631774,1628.453072,2812.782580,-9652.803275
884.632094,3552.988522,4441.235652,-10495.508323
884.632414,5551.544565,3775.050304,-10418.898773
884.632734,5329.482782,740.205942,-9882.631924
884.633054,2738.761985,-518.144159,-10189.070123
884.633374,-518.144159,-1332.370696,-10035.851024
884.633693,-1406.391290,-1258.350101,-9116.536426
884.634013,-962.267725,-740.205942,-10035.851024
884.634333,1776.494261,-1184.329507,-9806.022374
884.634653,2664.741391,-296.082377,-9882.631924
884.634973,444.123565,296.082377,-11031.775171
884.635293,-222.061783,1480.411884,-10189.070123
884.635613,-1110.308913,3256.906145,-10418.898773
884.635933,222.061783,3404.947333,-11184.994271
884.636253,666.185348,518.144159,-9959.241474
884.636573,592.164754,-1998.556043,-9882.631924
884.636893,-370.102971,-3034.844362,-10572.117872
884.637213,0.000000,-2146.597232,-10265.679673
884.637533,1258.350101,1332.370696,-10801.946522
884.637853,2368.659014,3108.864956,-11414.822920
884.638173,2072.576638,2960.823768,-10418.898773
884.638493,1184.329507,2368.659014,-10801.946522
884.638813,74.020594,592.164754,-10955.165621
884.639133,-962.267725,370.102971,-9422.974625
884.639453,-1776.494261,370.102971,-10495.508323
884.639773,-740.205942,-444.123565,-10495.508323
884.640093,0.000000,-1628.453072,-9116.536426
884.640413,-1406.391290,-1110.308913,-10112.460574
884.640732,-1184.329507,-888.247130,-9729.412825
884.641052,-370.102971,1036.288319,-9806.022374
884.641372,444.123565,2294.638420,-10418.898773
884.641692,-296.082377,1628.453072,-9576.193725
884.642012,-666.185348,444.123565,-9576.193725
884.642332,-1184.329507,-1554.432478,-9959.241474
884.642652,-518.144159,-2738.761985,-9269.755526
884.642972,-148.041188,-1036.288319,-9422.974625
884.643292,1406.391290,296.082377,-10495.508323
884.643612,2220.617826,1036.288319,-9806.022374
884.643932,370.102971,1036.288319,-9806.022374
884.644252,-1702.473667,74.020594,-10418.898773
884.644572,-2072.576638,-1850.514855,-9269.755526
884.644892,-1776.494261,-1480.411884,-10955.165621
884.645212,-592.164754,-888.247130,-10572.117872
884.645532,740.205942,-1036.288319,-9959.241474
884.645852,888.247130,0.000000,-10648.727422
884.646172,518.144159,518.144159,-10265.679673
884.646492,370.102971,1110.308913,-10035.851024
884.646812,0.000000,2072.576638,-10878.556072
884.647132,222.061783,1998.556043,-10955.165621
884.647452,148.041188,444.123565,-9652.803275
884.647772,1924.535449,-1036.288319,-10572.117872
884.648091,1480.411884,-1110.308913,-10495.508323
884.648411,3775.050304,222.061783,-9422.974625
884.648731,666.185348,814.226536,-10801.946522
884.649051,962.267725,1036.288319,-8656.879127
884.649371,1258.350101,-296.082377,-9959.241474
884.649691,1850.514855,-592.164754,-10648.727422
884.650011,2886.803174,-296.082377,-9039.926876
884.650331,-370.102971,1332.370696,-10189.070123
884.650651,296.082377,1332.370696,-10189.070123
884.650971,2516.700203,1850.514855,-9959.241474
884.651291,2738.761985,370.102971,-10035.851024
884.651611,2072.576638,-1110.308913,-9959.241474
884.651931,1036.288319,-666.185348,-9422.974625
884.652251,-592.164754,1480.411884,-9959.241474
884.652571,1036.288319,1998.556043,-10878.556072
884.652891,1924.535449,0.000000,-9499.584175
884.653211,1998.556043,296.082377,-10189.070123
884.653531,0.000000,-666.185348,-10572.117872
884.653851,-296.082377,-370.102971,-9346.365076
884.654171,-666.185348,962.267725,-10418.898773
884.654491,2590.720797,1036.288319,-10572.117872
884.654811,3923.091493,962.267725,-9806.022374
884.655130,1110.308913,0.000000,-10955.165621
884.655450,-814.226536,592.164754,-10342.289223
884.655770,-1998.556043,0.000000,-9652.803275
884.656090,-1406.391290,2368.659014,-11184.994271
884.656410,1036.288319,814.226536,-9959.241474
884.656730,2072.576638,-370.102971,-10265.679673
884.657050,296.082377,-1628.453072,-10648.727422
884.657370,74.020594,-592.164754,-9499.584175
884.657690,-888.247130,2368.659014,-9882.631924
884.658010,518.144159,2738.761985,-10725.336972
884.658330,1998.556043,1702.473667,-9729.412825
884.658650,1850.514855,296.082377,-10495.508323
884.658970,444.123565,-1036.288319,-10725.336972
884.659290,-222.061783,-962.267725,-9269.755526
884.659610,-1110.308913,1554.432478,-9806.022374
884.659930,666.185348,2220.617826,-10495.508323
884.660250,370.102971,592.164754,-9269.755526
884.660570,-296.082377,0.000000,-10418.898773
884.660890,-1258.350101,-1702.473667,-9576.193725
884.661210,-1554.432478,-592.164754,-9346.365076
884.661530,-1110.308913,1480.411884,-10265.679673
884.661850,0.000000,740.205942,-9959.241474
884.662169,222.061783,0.000000,-9422.974625
884.662489,-888.247130,-2072.576638,-9882.631924
884.662809,-518.144159,-1554.432478,-9882.631924
884.663129,-444.123565,222.061783,-9346.365076
884.663449,74.020594,2368.659014,-11108.384721
884.663769,740.205942,2072.576638,-10035.851024
884.664089,1480.411884,814.226536,-10495.508323
884.664409,-370.102971,-1480.411884,-10265.679673
884.664729,-74.020594,-1998.556043,-9576.193725
884.665049,-592.164754,0.000000,-10342.289223
884.665369,-296.082377,1998.556043,-11261.603821
884.665689,1406.391290,2368.659014,-9806.022374
884.666009,1332.370696,1258.350101,-10572.117872
884.666329,2368.659014,-740.205942,-10418.898773
884.666649,2220.617826,-1554.432478,-9346.365076
884.666969,1628.453072,-962.267725,-10265.679673
884.667289,2516.700203,-666.185348,-9806.022374
884.667609,2590.720797,0.000000,-9806.022374
884.667929,518.144159,1332.370696,-10112.460574
884.668249,0.000000,148.041188,-9576.193725
884.668569,-1036.288319,1332.370696,-9652.803275
884.668889,-1036.288319,1628.453072,-10112.460574
884.669209,592.164754,1258.350101,-10112.460574
884.669528,2664.741391,0.000000,-9576.193725
884.669848,1776.494261,0.000000,-9959.241474
884.670168,1184.329507,-1258.350101,-9729.412825
884.670488,666.185348,-666.185348,-9422.974625
884.670808,1258.350101,888.247130,-10648.727422
884.671128,2738.761985,1258.350101,-9882.631924
884.671448,1776.494261,1036.288319,-9882.631924
884.671768,666.185348,0.000000,-10265.679673
884.672088,-222.061783,-1184.329507,-9652.803275
884.672408,-2738.761985,222.061783,-9806.022374
884.672728,-1184.329507,592.164754,-10801.946522
884.673048,962.267725,-518.144159,-9959.241474
884.673368,1628.453072,-1036.288319,-10495.508323
884.673688,962.267725,-962.267725,-10725.336972
884.674008,0.000000,296.082377,-9882.631924
884.674328,-1184.329507,2442.679609,-11031.775171
884.674648,1036.288319,2294.638420,-10955.165621
884.674968,2664.741391,1036.288319,-9959.241474
884.675288,2294.638420,0.000000,-11031.775171
884.675608,2072.576638,-666.185348,-10648.727422
884.675928,444.123565,-888.247130,-10572.117872
884.676248,0.000000,1036.288319,-9959.241474
884.676567,-148.041188,1036.288319,-10265.679673
884.676887,-296.082377,592.164754,-9576.193725
884.677207,-1036.288319,-296.082377,-10342.289223
884.677527,-1406.391290,-1036.288319,-9499.584175
884.677847,-1332.370696,222.061783,-9729.412825
884.678167,0.000000,518.144159,-10265.679673
884.678487,1036.288319,-296.082377,-9422.974625
884.678807,1332.370696,-370.102971,-9882.631924
884.679127,1406.391290,-518.144159,-10035.851024
884.679447,666.185348,-296.082377,-9193.145976
884.679767,-1036.288319,148.041188,-9576.193725
884.680087,-1184.329507,0.000000,-9422.974625
884.680407,-518.144159,-148.041188,-7890.783629
884.680727,-222.061783,-666.185348,-9729.412825
884.681047,-814.226536,-1628.453072,-9652.803275
884.681367,-962.267725,-1998.556043,-9193.145976
884.681687,-592.164754,-1036.288319,-9806.022374
884.682007,962.267725,296.082377,-10112.460574
884.682327,1110.308913,1258.350101,-10189.070123
884.682647,-592.164754,2220.617826,-10648.727422
884.682967,-814.226536,1554.432478,-10342.289223
884.683287,222.061783,1480.411884,-10342.289223
884.683607,1406.391290,222.061783,-11031.775171
884.683926,2442.679609,-592.164754,-10418.898773
884.684246,2146.597232,-1332.370696,-10265.679673
884.684566,592.164754,-222.061783,-10878.556072
884.684886,0.000000,1702.473667,-10418.898773
884.685206,148.041188,3849.070898,-10495.508323
884.685526,1036.288319,5329.482782,-11491.432470
884.685846,2738.761985,3034.844362,-10418.898773
884.686166,1850.514855,1184.329507,-10648.727422
884.686486,962.267725,-148.041188,-11108.384721
884.686806,1406.391290,-518.144159,-9576.193725
884.687126,1998.556043,0.000000,-10342.289223
884.687446,2886.803174,1480.411884,-10342.289223
884.687766,2664.741391,1628.453072,-8963.317327
884.688086,1332.370696,1332.370696,-10035.851024
884.688406,1036.288319,296.082377,-9576.193725
884.688726,1036.288319,148.041188,-8963.317327
884.689046,148.041188,444.123565,-10801.946522
884.689366,444.123565,-444.123565,-8580.269578
884.689686,2146.597232,-1184.329507,-8733.488677
884.690006,3775.050304,-1776.494261,-9576.193725
884.690326,3404.947333,-1702.473667,-8350.440928
884.690646,1998.556043,-444.123565,-8886.707777
884.690965,-1258.350101,1776.494261,-10265.679673
884.691285,-1332.370696,2368.659014,-9729.412825
884.691605,0.000000,2220.617826,-9422.974625
884.691925,-222.061783,1480.411884,-10342.289223
884.692245,296.082377,-592.164754,-9806.022374
884.692565,148.041188,0.000000,-10342.289223
884.692885,444.123565,-444.123565,-11568.042020
884.693205,518.144159,-666.185348,-11108.384721
884.693525,-370.102971,370.102971,-10878.556072
884.693845,-962.267725,962.267725,-10878.556072
884.694165,0.000000,2368.659014,-10418.898773
884.694485,74.020594,3330.926739,-11031.775171
884.694805,740.205942,2664.741391,-11951.089769
884.695125,1258.350101,1702.473667,-10648.727422
884.695445,0.000000,-666.185348,-11108.384721
884.695765,444.123565,-2960.823768,-10572.117872
884.696085,-814.226536,-1850.514855,-9806.022374
884.696405,-3256.906145,148.041188,-10495.508323
884.696725,-2442.679609,1628.453072,-10035.851024
884.697045,-1110.308913,1998.556043,-9959.241474
884.697365,444.123565,1258.350101,-10572.117872
884.697685,0.000000,-1702.473667,-9882.631924
884.698005,0.000000,-2368.659014,-9116.536426
884.698324,-740.205942,-2294.638420,-10189.070123
884.698644,0.000000,-1924.535449,-8810.098227
884.698964,-666.185348,0.000000,-8044.002729
884.699284,296.082377,666.185348,-9882.631924
884.699604,814.226536,-370.102971,-9116.536426
884.699924,-370.102971,-370.102971,-9193.145976
884.700244,-666.185348,-518.144159,-9959.241474
884.700564,888.247130,-666.185348,-9039.926876
884.700884,1110.308913,-444.123565,-9652.803275
884.701204,1110.308913,-444.123565,-10112.460574
884.701524,-592.164754,0.000000,-9499.584175
884.701844,-1110.308913,222.061783,-9806.022374
884.702164,444.123565,-148.041188,-10189.070123
884.702484,3108.864956,296.082377,-9959.241474
884.702804,2220.617826,1702.473667,-10648.727422
884.703124,888.247130,962.267725,-11031.775171
884.703444,814.226536,592.164754,-10189.070123
884.703764,1258.350101,148.041188,-10955.165621
884.704084,2368.659014,148.041188,-10801.946522
884.704404,3552.988522,814.226536,-10265.679673
884.704724,4071.132681,296.082377,-11031.775171
884.705044,3256.906145,1332.370696,-10572.117872
884.705363,1406.391290,2738.761985,-10725.336972
884.705683,666.185348,3478.967927,-11108.384721
884.706003,2590.720797,2442.679609,-9959.241474
884.706323,3256.906145,1998.556043,-10495.508323
884.706643,1998.556043,2072.576638,-11491.432470
884.706963,1184.329507,1110.308913,-9806.022374
884.707283,1332.370696,1628.453072,-9882.631924
884.707603,2072.576638,4293.194464,-9806.022374
884.707923,1776.494261,5625.565159,-10189.070123
884.708243,1850.514855,5773.606348,-10035.851024
884.708563,3478.967927,3034.844362,-10112.460574
884.708883,4663.297435,-518.144159,-9039.926876
884.709203,3404.947333,-2294.638420,-8197.221829
884.709523,1998.556043,-1554.432478,-9269.755526
884.709843,1776.494261,1110.308913,-8733.488677
884.710163,1702.473667,3256.906145,-8503.660028
884.710483,1850.514855,5329.482782,-9806.022374
884.710803,1702.473667,3775.050304,-9499.584175
884.711123,888.247130,1702.473667,-9806.022374
884.711443,222.061783,-740.205942,-9882.631924
884.711764,2960.823768,-370.102971,-8963.317327
884.712084,3997.112087,1332.370696,-9346.365076
884.712404,2738.761985,3330.926739,-10495.508323
884.712724,1776.494261,4737.318029,-10495.508323
884.713044,1110.308913,5181.441594,-10648.727422
884.713364,2146.597232,5255.462188,-10418.898773
884.713684,3775.050304,4737.318029,-10572.117872
884.714004,2812.782580,3182.885551,-10725.336972
884.714324,1110.308913,1110.308913,-10265.679673
884.714644,1406.391290,1110.308913,-9882.631924
884.714964,2960.823768,1776.494261,-10189.070123
884.715284,2368.659014,4293.194464,-10572.117872
884.715604,1332.370696,5699.585753,-10648.727422
884.715925,2442.679609,5551.544565,-10725.336972
884.716245,3552.988522,4737.318029,-10035.851024
884.716565,3182.885551,3034.844362,-10035.851024
884.716885,2738.761985,1628.453072,-9882.631924
884.717205,2886.803174,888.247130,-10342.289223
884.717525,2368.659014,740.205942,-10648.727422
884.717845,1258.350101,2072.576638,-9499.584175
884.718165,740.205942,2368.659014,-10112.460574
884.718485,1110.308913,2960.823768,-10265.679673
884.718805,1702.473667,4219.173869,-10878.556072
884.719125,1332.370696,4441.235652,-10035.851024
884.719445,1480.411884,3404.947333,-9959.241474
884.719765,1628.453072,1184.329507,-9806.022374
884.720085,1406.391290,-740.205942,-9499.584175
884.720406,1850.514855,-1406.391290,-9116.536426
884.720726,3182.885551,0.000000,-9806.022374
884.721046,2368.659014,2220.617826,-10418.898773
884.721366,666.185348,4071.132681,-10112.460574
884.721686,1110.308913,4885.359217,-10112.460574
884.722006,2886.803174,4071.132681,-10801.946522
884.722326,3256.906145,3256.906145,-10418.898773
884.722646,2368.659014,1702.473667,-10265.679673
884.722966,2812.782580,1110.308913,-10189.070123
884.723286,4515.256246,666.185348,-10418.898773
884.723606,3404.947333,814.226536,-10112.460574
884.723926,1110.308913,2072.576638,-10265.679673
884.724246,740.205942,3330.926739,-9882.631924
884.724567,2886.803174,3627.009116,-10495.508323
884.724887,4219.173869,3923.091493,-10418.898773
884.725207,2886.803174,3256.906145,-10495.508323
884.725527,1332.370696,2220.617826,-9806.022374
884.725847,3108.864956,814.226536,-10265.679673
884.726167,6143.709319,814.226536,-9806.022374
884.726487,5625.565159,2368.659014,-10342.289223
884.726807,2442.679609,3108.864956,-10112.460574
884.727127,2368.659014,3997.112087,-9959.241474
884.727447,3552.988522,3923.091493,-11721.261119
884.727767,4737.318029,3627.009116,-10342.289223
884.728087,1998.556043,2442.679609,-9959.241474
884.728407,0.000000,1702.473667,-9806.022374
884.728728,1110.308913,740.205942,-9422.974625
884.729048,3034.844362,370.102971,-10035.851024
884.729368,3108.864956,1184.329507,-9806.022374
884.729688,1628.453072,1628.453072,-9499.584175
884.730008,1998.556043,2590.720797,-9882.631924
884.730328,3627.009116,4145.153275,-9499.584175
884.730648,4959.379811,4219.173869,-10112.460574
884.730968,5033.400406,3552.988522,-10572.117872
884.731288,3330.926739,2960.823768,-10342.289223
884.731608,814.226536,2590.720797,-10648.727422
884.731928,-888.247130,2294.638420,-9576.193725
884.732248,-1036.288319,1702.473667,-9959.241474
884.732568,666.185348,1480.411884,-10112.460574
884.732888,2368.659014,888.247130,-9652.803275
884.733209,1184.329507,1628.453072,-11108.384721
884.733529,0.000000,1776.494261,-9806.022374
884.733849,740.205942,3552.988522,-9882.631924
884.734169,3404.947333,4441.235652,-10725.336972
884.734489,5403.503377,3997.112087,-9959.241474
884.734809,3330.926739,3108.864956,-10342.289223
884.735129,1258.350101,2738.761985,-11108.384721
884.735449,222.061783,2664.741391,-9806.022374
884.735769,-1110.308913,2960.823768,-10112.460574
884.736089,1036.288319,2368.659014,-10342.289223
884.736409,2812.782580,740.205942,-9729.412825
884.736729,2590.720797,888.247130,-10342.289223
884.737049,2442.679609,1924.535449,-10189.070123
884.737370,2368.659014,3701.029710,-9116.536426
884.737690,1850.514855,5107.421000,-10495.508323
884.738010,2664.741391,4663.297435,-10112.460574
884.738330,4367.215058,2442.679609,-9882.631924
884.738650,4145.153275,1036.288319,-10572.117872
884.738970,2812.782580,888.247130,-9269.755526
884.739290,1702.473667,2146.597232,-10035.851024
884.739610,1998.556043,3330.926739,-10342.289223
884.739930,1998.556043,3701.029710,-10035.851024
884.740250,1184.329507,3256.906145,-9576.193725
884.740570,1628.453072,1332.370696,-9806.022374
884.740890,2368.659014,74.020594,-9959.241474
884.741210,3552.988522,444.123565,-10112.460574
884.741531,4589.276840,2368.659014,-9959.241474
884.741851,5329.482782,4293.194464,-10495.508323
884.742171,5995.668130,5181.441594,-10418.898773
884.742491,4515.256246,5255.462188,-10495.508323
884.742811,1628.453072,4737.318029,-10418.898773
884.743131,74.020594,2368.659014,-10265.679673
884.743451,370.102971,1036.288319,-10035.851024
884.743771,2220.617826,-444.123565,-9806.022374
884.744091,3034.844362,-1332.370696,-9806.022374
884.744411,2442.679609,74.020594,-9422.974625
884.744731,2812.782580,2664.741391,-9806.022374
884.745051,4515.256246,5773.606348,-10189.070123
884.745371,5847.626942,7402.059420,-10572.117872
884.745691,5329.482782,6661.853478,-10572.117872
884.746012,3627.009116,4367.215058,-10189.070123
884.746332,1110.308913,1554.432478,-10112.460574
884.746652,-814.226536,296.082377,-9729.412825
884.746972,-1702.473667,-222.061783,-9729.412825
884.747292,-222.061783,-148.041188,-9269.755526
884.747612,1110.308913,296.082377,-9729.412825
884.747932,1480.411884,1184.329507,-9806.022374
884.748252,1628.453072,2886.803174,-9882.631924
884.748572,3034.844362,4515.256246,-9806.022374
884.748892,5107.421000,5477.523971,-10035.851024
884.749212,5847.626942,4811.338623,-10342.289223
884.749532,4145.153275,3330.926739,-10342.289223
884.749852,2294.638420,2220.617826,-9806.022374
884.750173,1036.288319,2294.638420,-11031.775171
884.750493,444.123565,2220.617826,-9959.241474
884.750813,-296.082377,2516.700203,-9959.241474
884.751133,-1258.350101,2146.597232,-9882.631924
884.751453,-1850.514855,1332.370696,-9806.022374
884.751773,-1110.308913,444.123565,-10189.070123
884.752093,296.082377,518.144159,-9806.022374
884.752413,2590.720797,1702.473667,-9806.022374
884.752733,5329.482782,3478.967927,-10342.289223
884.753053,6735.874072,4441.235652,-10725.336972
884.753373,6143.709319,5477.523971,-10801.946522
884.753693,4737.318029,5847.626942,-10648.727422
884.754013,2664.741391,5625.565159,-11031.775171
884.754334,1702.473667,4293.194464,-10725.336972
884.754654,814.226536,2220.617826,-10112.460574
884.754974,740.205942,370.102971,-9806.022374
884.755294,-222.061783,-518.144159,-9806.022374
884.755614,-444.123565,-222.061783,-9652.803275
884.755934,-370.102971,1628.453072,-9729.412825
884.756254,1850.514855,2738.761985,-9806.022374
884.756574,3997.112087,3701.029710,-10265.679673
884.756894,5773.606348,4367.215058,-10112.460574
884.757214,6513.812290,4071.132681,-10112.460574
884.757534,5847.626942,2590.720797,-9882.631924
884.757854,4515.256246,2072.576638,-10189.070123
884.758174,1776.494261,1554.432478,-9882.631924
884.758494,0.000000,740.205942,-9422.974625
884.758815,-1184.329507,74.020594,-10035.851024
884.759135,-1110.308913,-148.041188,-9806.022374
884.759455,-592.164754,-444.123565,-9729.412825
884.759775,222.061783,296.082377,-10035.851024
884.760095,1628.453072,1406.391290,-9882.631924
884.760415,2960.823768,2664.741391,-10189.070123
884.760735,3849.070898,3182.885551,-10342.289223
884.761055,4071.132681,4071.132681,-10418.898773
884.761375,3627.009116,4145.153275,-10725.336972
884.761695,3108.864956,3627.009116,-11261.603821
884.762015,2294.638420,2442.679609,-10495.508323
884.762335,1258.350101,1480.411884,-10572.117872
884.762655,518.144159,740.205942,-10265.679673
884.762976,518.144159,592.164754,-9806.022374
884.763296,518.144159,1406.391290,-10189.070123
884.763616,1480.411884,2072.576638,-10342.289223
884.763936,2516.700203,2738.761985,-10189.070123
884.764256,3627.009116,3330.926739,-10648.727422
884.764576,5255.462188,3256.906145,-10189.070123
884.764896,6143.709319,4145.153275,-10418.898773
884.765216,6957.935855,4663.297435,-10648.727422
884.765536,6291.750507,5625.565159,-10648.727422
884.765856,4441.235652,5477.523971,-10418.898773
884.766176,2146.597232,4515.256246,-10495.508323
884.766496,0.000000,3256.906145,-9882.631924
884.766816,-1258.350101,1258.350101,-9499.584175
884.767136,-888.247130,0.000000,-9652.803275
884.767457,518.144159,-740.205942,-9422.974625
884.767777,2368.659014,296.082377,-9422.974625
884.768097,3627.009116,2368.659014,-9576.193725
884.768417,4885.359217,4737.318029,-9806.022374
884.768737,6439.791695,6587.832884,-10189.070123
884.769057,5921.647536,7328.038826,-10418.898773
884.769377,5181.441594,6587.832884,-10418.898773
884.769697,4737.318029,4515.256246,-10265.679673
884.770017,4219.173869,3182.885551,-10189.070123
884.770337,2886.803174,2146.597232,-9959.241474
884.770657,0.000000,2516.700203,-10112.460574
884.770977,-2368.659014,2886.803174,-9806.022374
884.771297,-2664.741391,3404.947333,-9729.412825
884.771618,-740.205942,2738.761985,-9346.365076
884.771938,1776.494261,2220.617826,-9882.631924
884.772258,2886.803174,1998.556043,-10112.460574
884.772578,3404.947333,2812.782580,-10189.070123
884.772898,3627.009116,4737.318029,-9882.631924
884.773218,4737.318029,5329.482782,-10189.070123
884.773538,6069.688724,5921.647536,-10648.727422
884.773858,5403.503377,5255.462188,-10955.165621
884.774178,2368.659014,4589.276840,-10878.556072
884.774498,-1406.391290,3775.050304,-10112.460574
884.774818,-2886.803174,2072.576638,-9959.241474
884.775138,-2146.597232,666.185348,-10189.070123
884.775458,-740.205942,-148.041188,-9806.022374
884.775779,-222.061783,-148.041188,-9729.412825
884.776099,1406.391290,518.144159,-9422.974625
884.776419,4293.194464,2368.659014,-9882.631924
884.776739,6439.791695,4737.318029,-10418.898773
884.777059,6143.709319,6291.750507,-10572.117872
884.777379,4589.276840,6291.750507,-9959.241474
884.777699,3552.988522,4367.215058,-9882.631924
884.778019,2664.741391,2220.617826,-10035.851024
884.778339,1406.391290,74.020594,-9576.193725
884.778659,962.267725,-592.164754,-9499.584175
884.778979,888.247130,-666.185348,-9806.022374
884.779299,0.000000,74.020594,-9882.631924
884.779619,-518.144159,1776.494261,-9499.584175
884.779939,1110.308913,2664.741391,-9959.241474
884.780260,3627.009116,2738.761985,-10112.460574
884.780580,5847.626942,2220.617826,-10189.070123
884.780900,6809.894666,2146.597232,-10189.070123
884.781220,6513.812290,2812.782580,-10418.898773
884.781540,5255.462188,3849.070898,-10418.898773
884.781860,3034.844362,4959.379811,-10418.898773
884.782180,740.205942,3923.091493,-10725.336972
884.782500,-518.144159,1702.473667,-10265.679673
884.782820,0.000000,-296.082377,-9882.631924
884.783140,296.082377,-1850.514855,-10418.898773
884.783460,0.000000,-1258.350101,-9729.412825
884.783780,222.061783,0.000000,-9959.241474
884.784100,1924.535449,1850.514855,-10265.679673
884.784421,4293.194464,2960.823768,-9806.022374
884.784741,5699.585753,3701.029710,-10648.727422
884.785061,6291.750507,3552.988522,-10725.336972
884.785381,6291.750507,3478.967927,-10648.727422
884.785701,4145.153275,4145.153275,-10418.898773
884.786021,2516.700203,3478.967927,-10725.336972
884.786341,1702.473667,1998.556043,-9806.022374
884.786661,-370.102971,444.123565,-9959.241474
884.786981,-2516.700203,-814.226536,-9806.022374
884.787301,-3849.070898,-1184.329507,-8963.317327
884.787621,-3256.906145,-518.144159,-9346.365076
884.787941,148.041188,0.000000,-9346.365076
884.788261,3849.070898,1036.288319,-9729.412825
884.788582,4515.256246,2220.617826,-9806.022374
884.788902,4737.318029,3775.050304,-9806.022374
884.789222,4737.318029,5773.606348,-10112.460574
884.789542,5995.668130,6513.812290,-10801.946522
884.789862,6069.688724,5773.606348,-10572.117872
884.790182,3330.926739,3552.988522,-10572.117872
884.790502,0.000000,1110.308913,-9806.022374
884.790822,-2072.576638,-592.164754,-9499.584175
884.791142,-1702.473667,-518.144159,-10189.070123
884.791462,-962.267725,740.205942,-9806.022374
884.791782,-814.226536,2072.576638,-9806.022374
884.792102,518.144159,2442.679609,-10342.289223
884.792422,4737.318029,3034.844362,-9882.631924
884.792742,7328.038826,4367.215058,-10725.336972
884.793063,7550.100608,5477.523971,-10801.946522
884.793383,5625.565159,6143.709319,-10189.070123
884.793703,4737.318029,5329.482782,-10725.336972
884.794023,5181.441594,4515.256246,-10648.727422
884.794343,3923.091493,3552.988522,-10495.508323
884.794663,888.247130,3256.906145,-10418.898773
884.794983,0.000000,2368.659014,-10112.460574
884.795303,-370.102971,2812.782580,-10035.851024
884.795623,-666.185348,2072.576638,-10265.679673
884.795943,-666.185348,1776.494261,-9116.536426
884.796263,1036.288319,1258.350101,-10035.851024
884.796583,4441.235652,1998.556043,-9806.022374
884.796903,5995.668130,3849.070898,-9882.631924
884.797224,6513.812290,6217.729913,-10035.851024
884.797544,7476.080014,7105.977043,-9959.241474
884.797864,7550.100608,7105.977043,-10955.165621
884.798184,5329.482782,5181.441594,-10955.165621
884.798504,1258.350101,3849.070898,-9882.631924
884.798824,-962.267725,2294.638420,-10035.851024
884.799144,-1554.432478,1406.391290,-9806.022374
884.799464,-2294.638420,666.185348,-9499.584175
884.799784,-2072.576638,296.082377,-9576.193725
884.800104,148.041188,1406.391290,-9269.755526
884.800424,2812.782580,1776.494261,-10418.898773
884.800744,4293.194464,3330.926739,-10418.898773
884.801064,4885.359217,4959.379811,-10418.898773
884.801385,4071.132681,6069.688724,-10342.289223
884.801705,3552.988522,5995.668130,-10495.508323
884.802025,2590.720797,5107.421000,-10189.070123
884.802345,1850.514855,2960.823768,-10418.898773
884.802665,814.226536,1036.288319,-9729.412825
884.802985,296.082377,-1332.370696,-9729.412825
884.803305,296.082377,-2072.576638,-9806.022374
884.803625,-518.144159,-1110.308913,-9652.803275
884.803945,-1406.391290,740.205942,-9269.755526
884.804265,444.123565,2886.803174,-9806.022374
884.804585,74.020594,3997.112087,-10189.070123
884.804905,2886.803174,4885.359217,-10112.460574
884.805225,4737.318029,4145.153275,-10112.460574
884.805545,6069.688724,3182.885551,-9959.241474
884.805866,5329.482782,2146.597232,-11414.822920
884.806186,3256.906145,2072.576638,-10342.289223
884.806506,1776.494261,2220.617826,-10035.851024
884.806826,-370.102971,2072.576638,-9576.193725
884.807146,-814.226536,2146.597232,-9269.755526
884.807466,0.000000,222.061783,-9499.584175
884.807786,1554.432478,-444.123565,-9959.241474
884.808106,1554.432478,-518.144159,-10035.851024
884.808426,2220.617826,-1628.453072,-9959.241474
884.808746,3182.885551,-518.144159,-9116.536426
884.809066,3256.906145,962.267725,-9959.241474
884.809386,3552.988522,3552.988522,-10955.165621
884.809706,4145.153275,4219.173869,-10878.556072
884.810026,3552.988522,4811.338623,-11491.432470
884.810346,2516.700203,3552.988522,-11031.775171
884.810666,-1850.514855,1850.514855,-9959.241474
884.810986,-1480.411884,-888.247130,-9346.365076
884.811306,-1258.350101,-3034.844362,-10342.289223
884.811626,592.164754,-4515.256246,-9806.022374
884.811946,-962.267725,-3997.112087,-9652.803275
884.812266,-1850.514855,-2442.679609,-10189.070123
884.812586,518.144159,-222.061783,-9806.022374
884.812906,3108.864956,3404.947333,-9882.631924
884.813226,3182.885551,4737.318029,-11261.603821
884.813545,4071.132681,3627.009116,-10189.070123
884.813865,3034.844362,1998.556043,-10572.117872
884.814185,2072.576638,-888.247130,-10648.727422
884.814505,1998.556043,-2738.761985,-9193.145976
884.814825,148.041188,-2516.700203,-10112.460574
884.815145,-1924.535449,-2368.659014,-9959.241474
884.815465,-3034.844362,-1554.432478,-9346.365076
884.815785,-2812.782580,0.000000,-9959.241474
884.816105,-1998.556043,0.000000,-9882.631924
884.816425,-518.144159,-444.123565,-9193.145976
884.816745,0.000000,518.144159,-10342.289223
884.817065,1406.391290,-888.247130,-10342.289223
884.817385,4737.318029,-962.267725,-9422.974625
884.817705,5255.462188,148.041188,-10648.727422
884.818025,2664.741391,1776.494261,-10418.898773
884.818345,444.123565,3182.885551,-9882.631924
884.818665,-1110.308913,3997.112087,-11797.870669
884.818985,-1924.535449,1406.391290,-10342.289223
884.819305,-2812.782580,-1036.288319,-9806.022374
884.819625,-4515.256246,-2886.803174,-10572.117872
884.819945,-4367.215058,-3256.906145,-8963.317327
884.820265,-3256.906145,-3108.864956,-9269.755526
884.820585,-370.102971,370.102971,-10495.508323
884.820905,2368.659014,1998.556043,-10342.289223
884.821225,3552.988522,3404.947333,-10035.851024
884.821544,2886.803174,4145.153275,-11184.994271
884.821864,2368.659014,2590.720797,-9959.241474
884.822184,2146.597232,1998.556043,-10112.460574
884.822504,1554.432478,1184.329507,-10801.946522
884.822824,296.082377,74.020594,-10801.946522
884.823144,-1776.494261,-740.205942,-9806.022374
884.823464,-3997.112087,-1850.514855,-10495.508323
884.823784,-3552.988522,-1332.370696,-8656.879127
884.824104,-2590.720797,296.082377,-9959.241474
884.824424,-962.267725,1332.370696,-10418.898773
884.824744,1110.308913,1850.514855,-8963.317327
884.825064,1850.514855,1924.535449,-10648.727422
884.825384,3701.029710,1776.494261,-9652.803275
884.825704,4885.359217,1850.514855,-9882.631924
884.826024,5033.400406,1702.473667,-10648.727422
884.826344,3627.009116,1628.453072,-10342.289223
884.826664,518.144159,1258.350101,-9806.022374
884.826984,-1776.494261,1332.370696,-10572.117872
884.827304,-1628.453072,888.247130,-10189.070123
884.827624,-592.164754,1332.370696,-9882.631924
884.827944,-222.061783,1554.432478,-10878.556072
884.828264,-1110.308913,962.267725,-9806.022374
884.828584,-592.164754,-518.144159,-9729.412825
884.828904,370.102971,-1110.308913,-10418.898773
884.829223,2812.782580,-2220.617826,-8810.098227
884.829543,3552.988522,-666.185348,-9422.974625
884.829863,4145.153275,814.226536,-11031.775171
884.830183,4367.215058,2294.638420,-9576.193725
884.830503,3182.885551,3478.967927,-10342.289223
884.830823,2146.597232,2738.761985,-10572.117872
884.831143,444.123565,1406.391290,-9499.584175
884.831463,-1406.391290,-1258.350101,-10035.851024
884.831783,-1850.514855,-2812.782580,-9806.022374
884.832103,-1258.350101,-3330.926739,-8810.098227
884.832423,-518.144159,-1110.308913,-9959.241474
884.832743,444.123565,370.102971,-9882.631924
884.833063,1332.370696,1628.453072,-9269.755526
884.833383,2442.679609,2664.741391,-10342.289223
884.833703,4441.235652,2738.761985,-10418.898773
884.834023,3997.112087,2812.782580,-10112.460574
884.834343,2442.679609,2664.741391,-10801.946522
884.834663,1332.370696,0.000000,-10035.851024
884.834983,0.000000,-1332.370696,-9729.412825
884.835303,-1480.411884,-1924.535449,-10648.727422
884.835623,-1776.494261,-1776.494261,-9882.631924
884.835943,-2072.576638,-740.205942,-9882.631924
884.836263,-1776.494261,592.164754,-11031.775171
884.836583,370.102971,148.041188,-9959.241474
884.836902,1850.514855,-1036.288319,-10495.508323
884.837222,2220.617826,-2146.597232,-10725.336972
884.837542,1036.288319,-1480.411884,-9729.412825
884.837862,296.082377,666.185348,-10189.070123
884.838182,592.164754,2146.597232,-11031.775171
884.838502,1110.308913,3552.988522,-9652.803275
884.838822,-592.164754,2294.638420,-10725.336972
884.839142,-1998.556043,0.000000,-10112.460574
884.839462,-3108.864956,-2072.576638,-9652.803275
884.839782,-3330.926739,-2664.741391,-10035.851024
884.840102,-3552.988522,-3108.864956,-10035.851024
884.840422,-2368.659014,-2368.659014,-9116.536426
884.840742,-888.247130,-666.185348,-10265.679673
884.841062,888.247130,592.164754,-10265.679673
884.841382,962.267725,2960.823768,-9959.241474
884.841702,2812.782580,3404.947333,-10725.336972
884.842022,4515.256246,2664.741391,-10265.679673
884.842342,3034.844362,1628.453072,-10112.460574
884.842662,444.123565,0.000000,-10342.289223
884.842982,-1110.308913,-1480.411884,-9422.974625
884.843302,-2294.638420,-962.267725,-9882.631924
884.843622,-1924.535449,-1036.288319,-10035.851024
884.843942,-1332.370696,-1110.308913,-9346.365076
884.844262,-1036.288319,0.000000,-9652.803275
