#time,accel_x,accel_y,accel_z
846.740234,666.185348,222.061783,-9806.022374
846.740554,444.123565,296.082377,-9806.022374
846.740874,370.102971,444.123565,-9882.631924
846.741194,296.082377,74.020594,-10035.851024
846.741514,370.102971,370.102971,-10035.851024
846.741834,296.082377,296.082377,-9882.631924
846.742154,592.164754,296.082377,-11184.994271
846.742474,592.164754,74.020594,-9806.022374
846.742794,592.164754,148.041188,-10495.508323
846.743114,518.144159,370.102971,-10342.289223
846.743434,518.144159,370.102971,-9346.365076
846.743754,592.164754,444.123565,-10418.898773
846.744074,518.144159,296.082377,-10189.070123
846.744394,370.102971,444.123565,-9959.241474
846.744714,444.123565,148.041188,-10189.070123
846.745034,370.102971,-148.041188,-10112.460574
846.745354,814.226536,74.020594,-10265.679673
846.745674,888.247130,0.000000,-10112.460574
846.745994,740.205942,0.000000,-10189.070123
846.746314,148.041188,444.123565,-9576.193725
846.746634,148.041188,74.020594,-10112.460574
846.746954,740.205942,222.061783,-10112.460574
846.747274,592.164754,296.082377,-10265.679673
846.747594,148.041188,740.205942,-10418.898773
846.747914,814.226536,-148.041188,-10572.117872
846.748234,814.226536,222.061783,-9806.022374
846.748554,888.247130,222.061783,-10189.070123
846.748874,222.061783,74.020594,-9806.022374
846.749194,0.000000,0.000000,-9422.974625
846.749514,148.041188,74.020594,-9959.241474
846.749834,296.082377,-74.020594,-9882.631924
846.750154,-148.041188,-222.061783,-10189.070123
846.750474,-518.144159,-888.247130,-9806.022374
846.750794,-370.102971,-740.205942,-10265.679673
846.751114,74.020594,-518.144159,-9959.241474
846.751434,-444.123565,-296.082377,-9959.241474
846.751754,-518.144159,-518.144159,-9959.241474
846.752074,74.020594,0.000000,-9652.803275
846.752394,148.041188,-814.226536,-10112.460574
846.752714,-592.164754,-1258.350101,-10189.070123
846.753034,-962.267725,-1850.514855,-9882.631924
846.753354,-666.185348,-1480.411884,-10189.070123
846.753674,-296.082377,-1628.453072,-9499.584175
846.753994,-1110.308913,-1406.391290,-10112.460574
846.754314,-2072.576638,-1702.473667,-9959.241474
846.754634,-1776.494261,-2072.576638,-9806.022374
846.754954,-518.144159,-2146.597232,-9806.022374
846.755274,-444.123565,-1702.473667,-10035.851024
846.755594,-1406.391290,-1776.494261,-10265.679673
846.755914,-1480.411884,-1702.473667,-10035.851024
846.756234,-740.205942,-1628.453072,-9806.022374
846.756554,-370.102971,-814.226536,-10112.460574
846.756874,-1924.535449,-1480.411884,-10495.508323
846.757194,-3330.926739,-2220.617826,-10265.679673
846.757514,-3330.926739,-2960.823768,-9729.412825
846.757834,-2368.659014,-3256.906145,-9576.193725
846.758154,-1776.494261,-2812.782580,-9806.022374
846.758474,-2146.597232,-3108.864956,-9959.241474
846.758794,-2516.700203,-3478.967927,-9959.241474
846.759114,-1258.350101,-2960.823768,-9882.631924
846.759434,296.082377,-2072.576638,-10342.289223
846.759754,666.185348,-666.185348,-10265.679673
846.760074,-888.247130,-296.082377,-10572.117872
846.760394,-2738.761985,-444.123565,-10418.898773
846.760714,-3256.906145,-1332.370696,-10035.851024
846.761034,-4367.215058,-2738.761985,-10112.460574
846.761354,-5181.441594,-4071.132681,-9806.022374
846.761674,-5181.441594,-5107.421000,-9576.193725
846.761994,-2738.761985,-5255.462188,-9422.974625
846.762314,-666.185348,-4663.297435,-9806.022374
846.762634,888.247130,-2812.782580,-10035.851024
846.762954,1036.288319,-740.205942,-10418.898773
846.763274,2072.576638,592.164754,-10189.070123
846.763594,2812.782580,1776.494261,-10495.508323
846.763914,2368.659014,1036.288319,-10878.556072
846.764234,962.267725,-1036.288319,-10112.460574
846.764554,-1406.391290,-2442.679609,-10189.070123
846.764874,-3108.864956,-3034.844362,-8810.098227
846.765194,-4663.297435,-3256.906145,-9806.022374
846.765514,-5625.565159,-3701.029710,-9422.974625
846.765834,-4885.359217,-4515.256246,-9652.803275
846.766154,-2146.597232,-4885.359217,-9652.803275
846.766474,1036.288319,-4071.132681,-9959.241474
846.766794,2368.659014,-2146.597232,-10112.460574
846.767114,3404.947333,296.082377,-9882.631924
846.767434,3997.112087,2664.741391,-10418.898773
846.767754,4441.235652,2664.741391,-11184.994271
846.768074,1332.370696,3108.864956,-11031.775171
846.768394,-3034.844362,1110.308913,-10418.898773
846.768714,-5625.565159,-2368.659014,-9652.803275
846.769034,-5995.668130,-5181.441594,-9499.584175
846.769354,-4737.318029,-7550.100608,-9346.365076
846.769674,-4515.256246,-7179.997637,-9269.755526
846.769994,-3256.906145,-5625.565159,-9193.145976
846.770314,-740.205942,-1776.494261,-10112.460574
846.770634,1924.535449,1850.514855,-10418.898773
846.770954,2072.576638,4145.153275,-10648.727422
846.771274,1702.473667,4441.235652,-10572.117872
846.771594,1924.535449,2664.741391,-10495.508323
846.771914,1184.329507,592.164754,-10342.289223
846.772234,-666.185348,-1776.494261,-10342.289223
846.772554,-3701.029710,-3108.864956,-9729.412825
846.772874,-5699.585753,-3923.091493,-9806.022374
846.773194,-6365.771101,-3849.070898,-9806.022374
846.773514,-7031.956449,-4219.173869,-9422.974625
846.773834,-7254.018232,-4515.256246,-9039.926876
846.774154,-4589.276840,-4589.276840,-9193.145976
846.774474,74.020594,-3478.967927,-9346.365076
846.774794,4071.132681,-888.247130,-10035.851024
846.775114,4367.215058,1850.514855,-10801.946522
846.775434,2516.700203,4293.194464,-10725.336972
846.775754,2072.576638,3552.988522,-10495.508323
846.776074,2146.597232,1998.556043,-10878.556072
846.776394,1110.308913,-888.247130,-10725.336972
846.776714,-2368.659014,-3701.029710,-10801.946522
846.777034,-5625.565159,-5329.482782,-9806.022374
846.777354,-7920.203579,-4959.379811,-9499.584175
846.777674,-8364.327145,-3701.029710,-9499.584175
846.777994,-6587.832884,-3997.112087,-9193.145976
846.778314,-2294.638420,-4885.359217,-9116.536426
846.778634,1258.350101,-4959.379811,-10035.851024
846.778954,2960.823768,-3478.967927,-10112.460574
846.779274,3182.885551,148.041188,-10418.898773
846.779594,4219.173869,2368.659014,-10648.727422
846.779914,4441.235652,3701.029710,-11184.994271
846.780234,3552.988522,3997.112087,-10572.117872
846.780554,-444.123565,1332.370696,-11261.603821
846.780874,-4515.256246,-3108.864956,-10035.851024
846.781194,-6661.853478,-7179.997637,-9806.022374
846.781514,-6291.750507,-9104.533087,-9193.145976
846.781834,-5625.565159,-9548.656652,-8733.488677
846.782154,-5107.421000,-8364.327145,-9269.755526
846.782474,-4071.132681,-4515.256246,-9116.536426
846.782794,-1628.453072,-444.123565,-10265.679673
846.783114,2590.720797,2368.659014,-10878.556072
846.783434,5847.626942,3108.864956,-11184.994271
846.783754,4663.297435,2146.597232,-11338.213370
846.784074,518.144159,666.185348,-10648.727422
846.784394,-1776.494261,-2146.597232,-10495.508323
846.784714,-2294.638420,-3478.967927,-9806.022374
846.785034,-3256.906145,-5255.462188,-9882.631924
846.785354,-6217.729913,-5551.544565,-9882.631924
846.785674,-7994.224174,-6587.832884,-9346.365076
846.785994,-6217.729913,-7031.956449,-9346.365076
846.786314,-2886.803174,-5551.544565,-10495.508323
846.786634,-1332.370696,-2738.761985,-9806.022374
846.786954,-1332.370696,-740.205942,-10342.289223
846.787274,-370.102971,1258.350101,-9882.631924
846.787594,2516.700203,1554.432478,-9806.022374
846.787914,4959.379811,962.267725,-10801.946522
846.788234,3627.009116,740.205942,-11108.384721
846.788554,0.000000,-1998.556043,-10189.070123
846.788874,-2442.679609,-2442.679609,-9882.631924
846.789194,-3923.091493,-2146.597232,-10955.165621
846.789514,-6735.874072,-2294.638420,-9882.631924
846.789834,-7476.080014,-3034.844362,-9422.974625
846.790154,-5181.441594,-3923.091493,-9193.145976
846.790474,-1480.411884,-4885.359217,-9346.365076
846.790794,962.267725,-5551.544565,-8963.317327
846.791114,2590.720797,-3552.988522,-9346.365076
846.791434,4441.235652,-666.185348,-9806.022374
846.791754,5255.462188,3701.029710,-11184.994271
846.792074,1406.391290,5033.400406,-10495.508323
846.792394,-148.041188,3923.091493,-10342.289223
846.792714,2516.700203,3034.844362,-10189.070123
846.793034,1258.350101,888.247130,-10572.117872
846.793354,-2738.761985,-1406.391290,-10725.336972
846.793674,-5699.585753,-4737.318029,-9422.974625
846.793994,-4885.359217,-6365.771101,-9652.803275
846.794314,-3034.844362,-4737.318029,-9576.193725
846.794634,-3034.844362,-1110.308913,-9499.584175
846.794954,-962.267725,-518.144159,-10265.679673
846.795274,3404.947333,1258.350101,-10878.556072
846.795594,5773.606348,2072.576638,-10801.946522
846.795914,5847.626942,3108.864956,-10801.946522
846.796234,5255.462188,4737.318029,-10648.727422
846.796554,1850.514855,5255.462188,-11568.042020
846.796874,740.205942,4145.153275,-11338.213370
846.797194,-814.226536,592.164754,-9806.022374
846.797514,-3478.967927,-1702.473667,-9576.193725
846.797834,-4811.338623,-4737.318029,-9806.022374
846.798154,-4145.153275,-4737.318029,-9269.755526
846.798474,-2294.638420,-3923.091493,-9499.584175
846.798794,-962.267725,370.102971,-9729.412825
846.799114,1258.350101,2886.803174,-9576.193725
846.799434,2664.741391,4293.194464,-10189.070123
846.799754,4441.235652,2664.741391,-9422.974625
846.800074,5477.523971,2442.679609,-10955.165621
846.800393,5181.441594,1850.514855,-9806.022374
846.800713,2812.782580,666.185348,-10189.070123
846.801033,1406.391290,1184.329507,-10418.898773
846.801353,148.041188,1406.391290,-9729.412825
846.801673,-3034.844362,666.185348,-10265.679673
846.801993,-3997.112087,-518.144159,-9346.365076
846.802313,-4885.359217,-2442.679609,-9576.193725
846.802633,-2368.659014,-4589.276840,-8886.707777
846.802953,888.247130,-3849.070898,-9346.365076
846.803273,2294.638420,0.000000,-9576.193725
846.803593,2368.659014,2664.741391,-9959.241474
846.803913,3108.864956,4293.194464,-10725.336972
846.804233,5403.503377,3997.112087,-10035.851024
846.804552,4885.359217,3775.050304,-10878.556072
846.804872,2368.659014,1184.329507,-11031.775171
846.805192,-296.082377,-740.205942,-10112.460574
846.805512,-1110.308913,-814.226536,-10648.727422
846.805832,-2812.782580,-1258.350101,-10418.898773
846.806152,-3552.988522,-3182.885551,-9576.193725
846.806472,-4367.215058,-3478.967927,-9422.974625
846.806792,-3404.947333,-2812.782580,-9806.022374
846.807112,-148.041188,-888.247130,-10342.289223
846.807432,2886.803174,1406.391290,-10801.946522
846.807752,4293.194464,1554.432478,-10648.727422
846.808072,3404.947333,1628.453072,-10878.556072
846.808392,1702.473667,2368.659014,-10495.508323
846.808711,2146.597232,2220.617826,-10495.508323
846.809031,444.123565,2220.617826,-10878.556072
846.809351,-1628.453072,0.000000,-10265.679673
846.809671,-1406.391290,-1924.535449,-9959.241474
846.809991,-2072.576638,-3256.906145,-10035.851024
846.810311,-4293.194464,-5033.400406,-9499.584175
846.810631,-4441.235652,-3775.050304,-9269.755526
846.810951,-2590.720797,-2368.659014,-9422.974625
846.811271,666.185348,-814.226536,-9499.584175
846.811591,2146.597232,370.102971,-10189.070123
846.811911,3552.988522,296.082377,-10648.727422
846.812231,4145.153275,1184.329507,-10035.851024
846.812551,3182.885551,2368.659014,-10572.117872
846.812870,518.144159,2146.597232,-10112.460574
846.813190,-592.164754,2368.659014,-11108.384721
846.813510,0.000000,1184.329507,-10572.117872
846.813830,0.000000,-1036.288319,-10112.460574
846.814150,296.082377,-3701.029710,-9959.241474
846.814470,-1110.308913,-5329.482782,-9959.241474
846.814790,-3256.906145,-4515.256246,-9116.536426
846.815110,-2886.803174,-1776.494261,-9499.584175
846.815430,222.061783,814.226536,-10572.117872
846.815750,3478.967927,2516.700203,-10342.289223
846.816070,4071.132681,2590.720797,-10955.165621
846.816390,3701.029710,2146.597232,-10572.117872
846.816710,2960.823768,2886.803174,-11414.822920
846.817029,1406.391290,2960.823768,-10648.727422
846.817349,-1110.308913,2368.659014,-10189.070123
846.817669,-666.185348,1554.432478,-9652.803275
846.817989,-518.144159,-296.082377,-9882.631924
846.818309,-1036.288319,-2886.803174,-9806.022374
846.818629,-518.144159,-3923.091493,-9422.974625
846.818949,-222.061783,-3182.885551,-9422.974625
846.819269,1184.329507,-1480.411884,-9806.022374
846.819589,1406.391290,1850.514855,-10112.460574
846.819909,1850.514855,2368.659014,-10495.508323
846.820229,1036.288319,3701.029710,-10189.070123
846.820549,1776.494261,1924.535449,-10725.336972
846.820868,3256.906145,518.144159,-9959.241474
846.821188,2220.617826,296.082377,-10418.898773
846.821508,814.226536,666.185348,-9959.241474
846.821828,-296.082377,222.061783,-9806.022374
846.822148,-1036.288319,-1702.473667,-10035.851024
846.822468,-2368.659014,-1924.535449,-9882.631924
846.822788,-2146.597232,-1924.535449,-9652.803275
846.823108,444.123565,-666.185348,-9806.022374
846.823428,1332.370696,740.205942,-10265.679673
846.823748,2294.638420,1628.453072,-10648.727422
846.824068,2368.659014,2294.638420,-10189.070123
846.824388,3108.864956,2146.597232,-10418.898773
846.824708,3849.070898,1184.329507,-10418.898773
846.825027,2516.700203,1110.308913,-10801.946522
846.825347,1776.494261,1480.411884,-9882.631924
846.825667,0.000000,1850.514855,-10189.070123
846.825987,-1332.370696,2886.803174,-9576.193725
846.826307,-2368.659014,-370.102971,-9346.365076
846.826627,-1702.473667,-2886.803174,-9806.022374
846.826947,-1628.453072,-2886.803174,-9346.365076
846.827267,-888.247130,-1924.535449,-9499.584175
846.827587,2220.617826,814.226536,-9806.022374
846.827907,3108.864956,2220.617826,-10342.289223
846.828227,1480.411884,3108.864956,-10495.508323
846.828547,-666.185348,3552.988522,-10112.460574
846.828867,-148.041188,2442.679609,-9959.241474
846.829186,814.226536,1776.494261,-10189.070123
846.829506,444.123565,962.267725,-10495.508323
846.829826,-148.041188,-296.082377,-10112.460574
846.830146,222.061783,-1036.288319,-10572.117872
846.830466,-1850.514855,-2442.679609,-9729.412825
846.830786,-3701.029710,-1258.350101,-9806.022374
846.831106,-4737.318029,296.082377,-9576.193725
846.831426,-4293.194464,148.041188,-9959.241474
846.831746,-1776.494261,-814.226536,-9959.241474
846.832066,1184.329507,-1332.370696,-9806.022374
846.832386,2220.617826,-148.041188,-10265.679673
846.832706,3923.091493,1332.370696,-10572.117872
846.833026,3182.885551,1332.370696,-10572.117872
846.833345,3108.864956,2368.659014,-10648.727422
846.833665,1850.514855,2812.782580,-10035.851024
846.833985,962.267725,814.226536,-10572.117872
846.834305,1480.411884,-1998.556043,-9652.803275
846.834625,666.185348,-2738.761985,-9652.803275
846.834945,-1554.432478,-1406.391290,-9652.803275
846.835265,-2590.720797,0.000000,-9499.584175
846.835585,-1406.391290,222.061783,-9499.584175
846.835905,1554.432478,296.082377,-9652.803275
846.836225,3256.906145,518.144159,-10189.070123
846.836545,3923.091493,444.123565,-9652.803275
846.836865,4811.338623,1406.391290,-10342.289223
846.837185,2812.782580,1924.535449,-9806.022374
846.837504,962.267725,2442.679609,-9959.241474
846.837824,1036.288319,1554.432478,-9576.193725
846.838144,666.185348,-444.123565,-9652.803275
846.838464,0.000000,-2590.720797,-9959.241474
846.838784,518.144159,-3182.885551,-9576.193725
846.839104,1628.453072,-518.144159,-10265.679673
846.839424,2294.638420,148.041188,-9959.241474
846.839744,1702.473667,74.020594,-9806.022374
846.840064,1776.494261,1480.411884,-10495.508323
846.840384,1332.370696,1998.556043,-10495.508323
846.840704,1036.288319,1998.556043,-10878.556072
846.841024,2220.617826,2516.700203,-10495.508323
846.841344,3108.864956,2886.803174,-11338.213370
846.841663,1406.391290,2368.659014,-10265.679673
846.841983,-592.164754,888.247130,-10572.117872
846.842303,-1776.494261,148.041188,-9729.412825
846.842623,-370.102971,-740.205942,-10648.727422
846.842943,-962.267725,-888.247130,-10189.070123
846.843263,814.226536,-888.247130,-10189.070123
846.843583,1184.329507,370.102971,-10035.851024
846.843903,0.000000,1406.391290,-10495.508323
846.844223,-518.144159,2590.720797,-10189.070123
846.844543,444.123565,1184.329507,-8656.879127
846.844863,1628.453072,0.000000,-9959.241474
846.845183,1184.329507,1258.350101,-9576.193725
846.845502,1406.391290,1554.432478,-9882.631924
846.845822,1702.473667,962.267725,-10035.851024
846.846142,-1406.391290,296.082377,-9422.974625
846.846462,-4737.318029,-1554.432478,-9039.926876
846.846782,-5329.482782,-2960.823768,-8886.707777
846.847102,-2664.741391,-3034.844362,-8963.317327
846.847422,148.041188,-1110.308913,-11108.384721
846.847742,1924.535449,-518.144159,-9959.241474
846.848062,2960.823768,962.267725,-10265.679673
846.848382,3849.070898,1850.514855,-10189.070123
846.848702,1480.411884,2664.741391,-9806.022374
846.849022,1110.308913,1406.391290,-9959.241474
846.849342,-296.082377,518.144159,-10418.898773
846.849661,-518.144159,-518.144159,-10572.117872
846.849981,0.000000,-1406.391290,-10112.460574
846.850301,-518.144159,-1776.494261,-9806.022374
846.850621,0.000000,-592.164754,-10418.898773
846.850941,-1924.535449,370.102971,-10418.898773
846.851261,-2590.720797,370.102971,-10189.070123
846.851581,-1554.432478,296.082377,-10112.460574
846.851901,0.000000,296.082377,-10418.898773
846.852221,1998.556043,222.061783,-10342.289223
846.852541,3182.885551,-814.226536,-10955.165621
846.852861,2442.679609,296.082377,-10878.556072
846.853181,1554.432478,1406.391290,-10265.679673
846.853501,2368.659014,1480.411884,-10418.898773
846.853820,2294.638420,666.185348,-10035.851024
846.854140,1036.288319,-962.267725,-10189.070123
846.854460,-740.205942,-814.226536,-9499.584175
846.854780,-1628.453072,-1776.494261,-9652.803275
846.855100,-1702.473667,-962.267725,-9346.365076
846.855420,-592.164754,-1554.432478,-9576.193725
846.855740,296.082377,-1628.453072,-9499.584175
846.856060,814.226536,-444.123565,-9652.803275
846.856380,666.185348,518.144159,-9652.803275
846.856700,3627.009116,1036.288319,-9959.241474
846.857020,4367.215058,1480.411884,-10112.460574
846.857340,3108.864956,2960.823768,-10801.946522
846.857660,1258.350101,1998.556043,-9729.412825
846.857979,-444.123565,-814.226536,-9729.412825
846.858299,-518.144159,-1702.473667,-9729.412825
846.858619,0.000000,-1110.308913,-9806.022374
846.858939,-1036.288319,74.020594,-10495.508323
846.859259,740.205942,74.020594,-9806.022374
846.859579,1406.391290,2220.617826,-10418.898773
846.859899,1110.308913,1924.535449,-10189.070123
846.860219,4293.194464,962.267725,-10189.070123
846.860539,3108.864956,370.102971,-10495.508323
846.860859,888.247130,296.082377,-10418.898773
846.861179,222.061783,0.000000,-9652.803275
846.861499,148.041188,1184.329507,-10572.117872
846.861819,666.185348,1776.494261,-10418.898773
846.862138,-740.205942,2590.720797,-10495.508323
846.862458,-1184.329507,2590.720797,-10265.679673
846.862778,-296.082377,1924.535449,-10801.946522
846.863098,-1184.329507,1036.288319,-9806.022374
846.863418,-1110.308913,-666.185348,-9806.022374
846.863738,-1036.288319,-1406.391290,-9882.631924
846.864058,-666.185348,444.123565,-9652.803275
846.864378,-296.082377,2590.720797,-10189.070123
846.864698,1924.535449,3108.864956,-10035.851024
846.865018,3478.967927,2886.803174,-10648.727422
846.865338,2294.638420,2368.659014,-10035.851024
846.865658,1110.308913,666.185348,-9806.022374
846.865978,-592.164754,-444.123565,-9346.365076
846.866297,-1332.370696,-444.123565,-9269.755526
846.866617,-1332.370696,-1702.473667,-8886.707777
846.866937,-1184.329507,-2516.700203,-9193.145976
846.867257,296.082377,-2960.823768,-9346.365076
846.867577,444.123565,-1998.556043,-9346.365076
846.867897,1184.329507,-1480.411884,-9729.412825
846.868217,3404.947333,2516.700203,-10418.898773
846.868537,2220.617826,2960.823768,-9882.631924
846.868857,1036.288319,2220.617826,-10265.679673
846.869177,814.226536,592.164754,-9422.974625
846.869497,1110.308913,-518.144159,-10572.117872
846.869817,740.205942,-1628.453072,-10035.851024
846.870137,1332.370696,-1924.535449,-9652.803275
846.870456,962.267725,-370.102971,-10572.117872
846.870776,1036.288319,2072.576638,-10418.898773
846.871096,148.041188,2220.617826,-10648.727422
846.871416,-1554.432478,2368.659014,-10189.070123
846.871736,-1406.391290,888.247130,-10418.898773
846.872056,888.247130,-1110.308913,-10495.508323
846.872376,3478.967927,-1850.514855,-10418.898773
846.872696,2664.741391,-444.123565,-10265.679673
846.873016,1998.556043,2812.782580,-10801.946522
846.873336,222.061783,3256.906145,-10495.508323
846.873656,296.082377,4293.194464,-10035.851024
846.873976,962.267725,2590.720797,-10342.289223
846.874295,-222.061783,296.082377,-11031.775171
846.874615,-1998.556043,-1036.288319,-9652.803275
846.874935,-2220.617826,-2886.803174,-9576.193725
846.875255,-962.267725,-2442.679609,-9729.412825
846.875575,-1184.329507,-1110.308913,-9269.755526
846.875895,740.205942,-148.041188,-10035.851024
846.876215,1332.370696,148.041188,-9652.803275
846.876535,1702.473667,1554.432478,-10112.460574
846.876855,1998.556043,2368.659014,-9806.022374
846.877175,1332.370696,2146.597232,-10035.851024
846.877495,888.247130,740.205942,-10189.070123
846.877815,-296.082377,-1924.535449,-9269.755526
846.878135,-814.226536,-666.185348,-9422.974625
846.878454,-666.185348,-222.061783,-9959.241474
846.878774,-1702.473667,-444.123565,-9729.412825
846.879094,-1406.391290,-592.164754,-10189.070123
846.879414,-518.144159,0.000000,-10418.898773
846.879734,592.164754,370.102971,-10035.851024
846.880054,-518.144159,1480.411884,-9422.974625
846.880374,-592.164754,2590.720797,-10418.898773
846.880694,2368.659014,2664.741391,-10878.556072
846.881014,2886.803174,3256.906145,-10955.165621
846.881334,2738.761985,2738.761985,-11031.775171
846.881654,1776.494261,1258.350101,-9652.803275
846.881974,1110.308913,1184.329507,-10265.679673
846.882294,-888.247130,1036.288319,-10112.460574
846.882613,-1258.350101,740.205942,-9806.022374
846.882933,1258.350101,74.020594,-9806.022374
846.883253,740.205942,-1406.391290,-9806.022374
846.883573,814.226536,-1776.494261,-9806.022374
846.883893,1258.350101,-962.267725,-9576.193725
846.884213,1036.288319,222.061783,-9806.022374
846.884533,1776.494261,1480.411884,-9422.974625
846.884853,1406.391290,666.185348,-9576.193725
846.885173,1776.494261,0.000000,-9882.631924
846.885493,1480.411884,-962.267725,-9576.193725
846.885813,1332.370696,-1406.391290,-9729.412825
846.886133,1184.329507,370.102971,-9806.022374
846.886453,296.082377,1850.514855,-10189.070123
846.886772,-1998.556043,2368.659014,-10648.727422
846.887092,-1554.432478,1332.370696,-9652.803275
846.887412,-740.205942,0.000000,-9806.022374
846.887732,592.164754,-222.061783,-10035.851024
846.888052,1702.473667,74.020594,-9959.241474
846.888372,1776.494261,148.041188,-10265.679673
846.888692,1628.453072,1110.308913,-9576.193725
846.889012,888.247130,814.226536,-9652.803275
846.889332,1036.288319,814.226536,-10418.898773
846.889652,518.144159,370.102971,-9959.241474
846.889972,74.020594,-370.102971,-10572.117872
846.890292,0.000000,-740.205942,-10342.289223
846.890612,370.102971,-1776.494261,-10725.336972
846.890931,-962.267725,-2072.576638,-10112.460574
846.891251,-1924.535449,74.020594,-10189.070123
846.891571,-1184.329507,1480.411884,-9806.022374
846.891891,1258.350101,1776.494261,-11261.603821
846.892211,1850.514855,148.041188,-10265.679673
846.892531,1850.514855,-592.164754,-10265.679673
846.892851,2294.638420,-1184.329507,-10878.556072
846.893171,1998.556043,518.144159,-9959.241474
846.893491,1998.556043,2368.659014,-10648.727422
846.893811,1184.329507,2442.679609,-10648.727422
846.894131,1258.350101,814.226536,-10265.679673
846.894451,592.164754,0.000000,-10342.289223
846.894771,-296.082377,-1110.308913,-9729.412825
846.895090,-1184.329507,-370.102971,-9729.412825
846.895410,-2294.638420,222.061783,-9422.974625
846.895730,-1850.514855,-148.041188,-9576.193725
846.896050,-1258.350101,-148.041188,-9729.412825
846.896370,0.000000,-1332.370696,-9346.365076
846.896690,370.102971,-2072.576638,-9499.584175
846.897010,1480.411884,-296.082377,-9806.022374
846.897330,1628.453072,1554.432478,-9576.193725
846.897650,2368.659014,2368.659014,-10265.679673
846.897970,-666.185348,1702.473667,-9729.412825
846.898290,-962.267725,-296.082377,-9499.584175
846.898610,-1332.370696,-2294.638420,-9729.412825
846.898929,-370.102971,-2368.659014,-10035.851024
846.899249,-370.102971,-1554.432478,-10189.070123
846.899569,0.000000,0.000000,-10648.727422
846.899889,-740.205942,1480.411884,-10418.898773
846.900209,-1332.370696,2368.659014,-10572.117872
846.900529,444.123565,2960.823768,-10725.336972
846.900850,2368.659014,2220.617826,-10801.946522
846.901170,2368.659014,888.247130,-10495.508323
846.901490,1924.535449,1036.288319,-10801.946522
846.901810,1776.494261,592.164754,-10648.727422
846.902130,222.061783,1850.514855,-10495.508323
846.902450,-1554.432478,2072.576638,-10112.460574
846.902770,-814.226536,2146.597232,-10189.070123
846.903090,1110.308913,1702.473667,-10418.898773
846.903410,1184.329507,592.164754,-10265.679673
846.903730,222.061783,-740.205942,-9959.241474
846.904051,1480.411884,-888.247130,-9729.412825
846.904371,1258.350101,0.000000,-9729.412825
846.904691,2368.659014,1036.288319,-9882.631924
846.905011,3182.885551,2072.576638,-9499.584175
846.905331,3404.947333,1628.453072,-10189.070123
846.905651,2516.700203,518.144159,-9116.536426
846.905971,1702.473667,-518.144159,-9576.193725
846.906291,2146.597232,-962.267725,-9652.803275
846.906611,962.267725,-518.144159,-9882.631924
846.906931,-1036.288319,666.185348,-9882.631924
846.907251,-962.267725,1036.288319,-8810.098227
846.907572,-148.041188,814.226536,-10342.289223
846.907892,666.185348,-592.164754,-9959.241474
846.908212,1776.494261,-1850.514855,-9882.631924
846.908532,2220.617826,-1258.350101,-9806.022374
846.908852,1924.535449,370.102971,-10342.289223
846.909172,666.185348,2294.638420,-10648.727422
846.909492,370.102971,3182.885551,-10572.117872
846.909812,814.226536,2146.597232,-10878.556072
846.910132,1184.329507,1036.288319,-10418.898773
846.910452,-666.185348,-518.144159,-10572.117872
846.910773,-888.247130,148.041188,-10495.508323
846.911093,-370.102971,1628.453072,-10878.556072
846.911413,-518.144159,1406.391290,-11108.384721
846.911733,-1998.556043,0.000000,-9882.631924
846.912053,-1406.391290,-2368.659014,-9806.022374
846.912373,-1258.350101,-3034.844362,-10112.460574
846.912693,148.041188,-2590.720797,-9882.631924
846.913013,2294.638420,-1332.370696,-10265.679673
846.913333,1036.288319,1998.556043,-10342.289223
846.913653,0.000000,2516.700203,-10189.070123
846.913973,-296.082377,1628.453072,-10265.679673
846.914294,1480.411884,370.102971,-9576.193725
846.914614,518.144159,-1554.432478,-9652.803275
846.914934,0.000000,-3330.926739,-9652.803275
846.915254,666.185348,-3997.112087,-9346.365076
846.915574,0.000000,-2960.823768,-9652.803275
846.915894,-1332.370696,-1628.453072,-9116.536426
846.916214,-1036.288319,-222.061783,-9346.365076
846.916534,0.000000,1036.288319,-9959.241474
846.916854,592.164754,1184.329507,-9882.631924
846.917174,1184.329507,1184.329507,-10342.289223
846.917495,1702.473667,-370.102971,-9806.022374
846.917815,962.267725,-1184.329507,-10035.851024
846.918135,-666.185348,-1036.288319,-10035.851024
846.918455,-518.144159,-296.082377,-10112.460574
846.918775,74.020594,666.185348,-10495.508323
846.919095,0.000000,888.247130,-10342.289223
846.919415,-1110.308913,296.082377,-10878.556072
846.919735,-1184.329507,444.123565,-10418.898773
846.920055,-1628.453072,370.102971,-10572.117872
846.920375,296.082377,-296.082377,-10418.898773
846.920695,1850.514855,74.020594,-10265.679673
846.921016,2442.679609,296.082377,-10572.117872
846.921336,2368.659014,1110.308913,-10801.946522
846.921656,1406.391290,962.267725,-10342.289223
846.921976,1110.308913,1480.411884,-10265.679673
846.922296,-444.123565,2072.576638,-10189.070123
846.922616,-1924.535449,888.247130,-9806.022374
846.922936,-1480.411884,-444.123565,-9729.412825
846.923256,0.000000,-1480.411884,-9729.412825
846.923576,962.267725,-1998.556043,-9576.193725
846.923896,444.123565,-1702.473667,-9806.022374
846.924217,370.102971,-444.123565,-8886.707777
846.924537,740.205942,1406.391290,-9806.022374
846.924857,1406.391290,3108.864956,-9882.631924
846.925177,2294.638420,3701.029710,-10035.851024
846.925497,2886.803174,3404.947333,-10418.898773
846.925817,3775.050304,1776.494261,-9959.241474
846.926137,3404.947333,222.061783,-10342.289223
846.926457,2072.576638,-148.041188,-10035.851024
846.926777,1184.329507,74.020594,-10035.851024
846.927097,-148.041188,1702.473667,-9882.631924
846.927417,-740.205942,2294.638420,-10112.460574
846.927738,-148.041188,2516.700203,-10648.727422
846.928058,0.000000,1332.370696,-10418.898773
846.928378,1110.308913,-296.082377,-10418.898773
846.928698,1480.411884,74.020594,-10189.070123
846.929018,1998.556043,888.247130,-10418.898773
846.929338,1406.391290,2072.576638,-10265.679673
846.929658,1332.370696,2812.782580,-10265.679673
846.929978,2812.782580,1702.473667,-10572.117872
846.930298,2294.638420,962.267725,-10572.117872
846.930618,666.185348,0.000000,-10495.508323
846.930939,-370.102971,-592.164754,-10112.460574
846.931259,-444.123565,-222.061783,-10265.679673
846.931579,-1776.494261,222.061783,-9959.241474
846.931899,-1924.535449,740.205942,-9729.412825
846.932219,-1258.350101,962.267725,-9882.631924
846.932539,-370.102971,222.061783,-9422.974625
846.932859,1110.308913,-814.226536,-9729.412825
846.933179,1702.473667,-1628.453072,-9652.803275
846.933499,1702.473667,-814.226536,-10035.851024
846.933819,0.000000,-296.082377,-9729.412825
846.934140,-1332.370696,814.226536,-9806.022374
846.934460,-370.102971,1406.391290,-10418.898773
846.934780,-666.185348,1332.370696,-10342.289223
846.935100,-962.267725,962.267725,-10572.117872
846.935420,-518.144159,-148.041188,-10112.460574
846.935740,-370.102971,-740.205942,-9269.755526
846.936060,-1036.288319,-1776.494261,-9806.022374
846.936380,74.020594,-2442.679609,-9576.193725
846.936700,2072.576638,-1998.556043,-10035.851024
846.937020,2072.576638,-1332.370696,-11797.870669
846.937340,1258.350101,-740.205942,-10189.070123
846.937661,1998.556043,222.061783,-10725.336972
846.937981,1702.473667,1554.432478,-10495.508323
846.938301,222.061783,3034.844362,-10342.289223
846.938621,-1184.329507,2220.617826,-11261.603821
846.938941,-962.267725,-1036.288319,-9729.412825
846.939261,0.000000,-3923.091493,-9959.241474
846.939581,444.123565,-5181.441594,-9806.022374
846.939901,814.226536,-4367.215058,-8886.707777
846.940221,0.000000,-962.267725,-9959.241474
846.940541,-222.061783,2072.576638,-10035.851024
846.940862,148.041188,4367.215058,-10265.679673
846.941182,1776.494261,4219.173869,-10418.898773
846.941502,1850.514855,1850.514855,-10112.460574
846.941822,888.247130,-1702.473667,-10265.679673
846.942142,1702.473667,-4071.132681,-9729.412825
846.942462,1184.329507,-3849.070898,-9729.412825
846.942782,-962.267725,-1406.391290,-9882.631924
846.943102,-2590.720797,370.102971,-9729.412825
846.943422,-2294.638420,1480.411884,-10035.851024
846.943742,-1406.391290,1924.535449,-10342.289223
846.944062,-666.185348,592.164754,-10648.727422
846.944383,1184.329507,-1258.350101,-10342.289223
846.944703,1184.329507,-1998.556043,-10112.460574
846.945023,1776.494261,-1332.370696,-10112.460574
846.945343,1850.514855,0.000000,-10418.898773
846.945663,1480.411884,1406.391290,-10112.460574
846.945983,888.247130,1998.556043,-10572.117872
846.946303,296.082377,2590.720797,-10572.117872
846.946623,888.247130,2368.659014,-10648.727422
846.946943,518.144159,1924.535449,-10495.508323
846.947263,0.000000,74.020594,-10418.898773
846.947584,-888.247130,-1258.350101,-10035.851024
846.947904,-592.164754,-3182.885551,-9959.241474
846.948224,-444.123565,-2516.700203,-9729.412825
846.948544,-222.061783,0.000000,-9652.803275
846.948864,2738.761985,2812.782580,-10495.508323
846.949184,4885.359217,4663.297435,-10725.336972
846.949504,3775.050304,5329.482782,-10801.946522
846.949824,1850.514855,3330.926739,-10495.508323
846.950144,888.247130,518.144159,-10112.460574
846.950464,1184.329507,-1776.494261,-9269.755526
846.950784,0.000000,-1702.473667,-9729.412825
846.951105,-740.205942,-962.267725,-9499.584175
846.951425,-296.082377,222.061783,-9652.803275
846.951745,-1036.288319,814.226536,-9806.022374
846.952065,-1258.350101,1776.494261,-9882.631924
846.952385,1184.329507,1184.329507,-9729.412825
846.952705,1924.535449,1184.329507,-10112.460574
846.953025,2516.700203,0.000000,-10112.460574
846.953345,2812.782580,296.082377,-10265.679673
846.953665,1776.494261,518.144159,-10342.289223
846.953985,814.226536,1184.329507,-10265.679673
846.954306,296.082377,1036.288319,-9959.241474
846.954626,666.185348,1110.308913,-10112.460574
846.954946,148.041188,296.082377,-9806.022374
846.955266,-666.185348,74.020594,-10112.460574
846.955586,-370.102971,-370.102971,-10035.851024
846.955906,-1332.370696,-1036.288319,-9959.241474
846.956226,-1480.411884,-1110.308913,-9806.022374
846.956546,-740.205942,0.000000,-9806.022374
846.956866,296.082377,0.000000,-9959.241474
846.957186,1628.453072,962.267725,-9806.022374
846.957507,1554.432478,1332.370696,-10265.679673
846.957827,740.205942,518.144159,-10112.460574
846.958147,1036.288319,962.267725,-10418.898773
846.958467,148.041188,666.185348,-10112.460574
846.958787,-518.144159,1036.288319,-9959.241474
846.959107,444.123565,296.082377,-10265.679673
846.959427,0.000000,222.061783,-10035.851024
846.959747,0.000000,-740.205942,-9959.241474
846.960067,592.164754,-888.247130,-11031.775171
846.960387,1480.411884,-888.247130,-10418.898773
846.960707,148.041188,-444.123565,-9806.022374
846.961028,0.000000,-296.082377,-9959.241474
846.961348,1776.494261,-222.061783,-11874.480219
846.961668,2294.638420,-444.123565,-10418.898773
846.961988,1554.432478,962.267725,-10801.946522
846.962308,1258.350101,962.267725,-10265.679673
846.962628,444.123565,814.226536,-10418.898773
846.962948,0.000000,-222.061783,-10572.117872
846.963268,-1850.514855,-370.102971,-9806.022374
846.963588,-2146.597232,-1554.432478,-10035.851024
846.963908,-296.082377,-2220.617826,-10035.851024
846.964229,2294.638420,-2368.659014,-10418.898773
846.964549,1184.329507,-370.102971,-10342.289223
846.964869,-592.164754,592.164754,-10495.508323
846.965189,-666.185348,1702.473667,-9959.241474
846.965509,-518.144159,1258.350101,-9959.241474
846.965829,1702.473667,666.185348,-10265.679673
846.966149,2886.803174,0.000000,-9882.631924
846.966469,2294.638420,-2220.617826,-10035.851024
846.966789,1850.514855,-2368.659014,-10035.851024
846.967109,-444.123565,-666.185348,-9729.412825
846.967429,-2146.597232,370.102971,-9806.022374
846.967750,-3330.926739,1998.556043,-9499.584175
846.968070,-2294.638420,1480.411884,-10342.289223
846.968390,296.082377,0.000000,-10265.679673
846.968710,-222.061783,-148.041188,-10495.508323
846.969030,-518.144159,-2072.576638,-9882.631924
846.969350,592.164754,-1998.556043,-9806.022374
846.969670,814.226536,-222.061783,-9882.631924
846.969990,1702.473667,1554.432478,-10955.165621
846.970310,1924.535449,1628.453072,-10572.117872
846.970630,2220.617826,2072.576638,-10495.508323
846.970951,2294.638420,1776.494261,-10725.336972
846.971271,2294.638420,1258.350101,-10342.289223
846.971591,592.164754,1258.350101,-10418.898773
846.971911,-1036.288319,518.144159,-10572.117872
846.972231,-1184.329507,-814.226536,-9806.022374
846.972551,444.123565,-1480.411884,-10189.070123
846.972871,2294.638420,-1702.473667,-9806.022374
846.973191,1332.370696,592.164754,-10342.289223
846.973511,1554.432478,3404.947333,-10801.946522
846.973831,2368.659014,3849.070898,-11338.213370
846.974151,2664.741391,3997.112087,-10035.851024
846.974472,1184.329507,1110.308913,-10189.070123
846.974792,1036.288319,222.061783,-10418.898773
846.975112,814.226536,74.020594,-10418.898773
846.975432,148.041188,74.020594,-10418.898773
846.975752,296.082377,962.267725,-9729.412825
846.976072,0.000000,1776.494261,-9882.631924
846.976392,0.000000,1628.453072,-9959.241474
846.976712,-444.123565,1332.370696,-9576.193725
846.977032,666.185348,-592.164754,-9806.022374
846.977352,2294.638420,-1406.391290,-9806.022374
846.977673,1850.514855,222.061783,-9576.193725
846.977993,1184.329507,1702.473667,-10189.070123
846.978313,1850.514855,2886.803174,-10265.679673
846.978633,1036.288319,1998.556043,-9806.022374
846.978953,-518.144159,666.185348,-10035.851024
846.979273,-666.185348,-1776.494261,-9499.584175
846.979593,-1406.391290,-2220.617826,-9576.193725
846.979913,-592.164754,-1850.514855,-9806.022374
846.980233,1332.370696,-222.061783,-9806.022374
846.980553,1258.350101,2072.576638,-11108.384721
846.980874,74.020594,2146.597232,-10418.898773
846.981194,-148.041188,1924.535449,-10342.289223
846.981514,222.061783,1036.288319,-10342.289223
846.981834,1332.370696,666.185348,-9959.241474
846.982154,2368.659014,74.020594,-10342.289223
846.982474,2072.576638,-370.102971,-10265.679673
846.982794,1776.494261,-1184.329507,-9729.412825
846.983114,-962.267725,-592.164754,-10342.289223
846.983434,-2072.576638,296.082377,-9882.631924
846.983754,-2368.659014,592.164754,-10035.851024
846.984074,-1036.288319,592.164754,-10265.679673
846.984395,1332.370696,-518.144159,-9959.241474
846.984715,1480.411884,-2220.617826,-9499.584175
846.985035,370.102971,-2590.720797,-10035.851024
846.985355,-370.102971,-2146.597232,-9576.193725
846.985675,-1258.350101,74.020594,-9576.193725
846.985995,-1184.329507,592.164754,-9806.022374
846.986315,296.082377,1702.473667,-10112.460574
846.986635,740.205942,1258.350101,-9959.241474
846.986955,1036.288319,148.041188,-11108.384721
846.987275,0.000000,-1332.370696,-9806.022374
846.987596,-814.226536,-1850.514855,-9729.412825
846.987916,-1480.411884,-1332.370696,-9882.631924
846.988236,-1406.391290,-1036.288319,-9806.022374
846.988556,-740.205942,-592.164754,-9882.631924
846.988876,592.164754,0.000000,-9959.241474
846.989196,1036.288319,222.061783,-10418.898773
846.989516,814.226536,888.247130,-10648.727422
846.989836,296.082377,666.185348,-9959.241474
846.990156,-740.205942,1332.370696,-10342.289223
846.990476,666.185348,0.000000,-9959.241474
846.990796,962.267725,-962.267725,-10265.679673
846.991117,296.082377,-1258.350101,-10265.679673
846.991437,1332.370696,-518.144159,-10189.070123
846.991757,888.247130,1332.370696,-10725.336972
846.992077,222.061783,2664.741391,-10495.508323
846.992397,370.102971,2516.700203,-10342.289223
846.992717,1110.308913,2294.638420,-10648.727422
846.993037,3034.844362,-222.061783,-10418.898773
846.993357,2368.659014,-740.205942,-10572.117872
846.993677,1110.308913,-1258.350101,-10112.460574
846.993997,1258.350101,518.144159,-10342.289223
846.994318,2220.617826,1702.473667,-10112.460574
846.994638,1184.329507,2368.659014,-9882.631924
846.994958,2590.720797,1850.514855,-10418.898773
846.995278,2368.659014,888.247130,-9959.241474
846.995598,1850.514855,740.205942,-10955.165621
846.995918,518.144159,-592.164754,-9422.974625
846.996238,2368.659014,-592.164754,-9729.412825
846.996558,1110.308913,-962.267725,-10035.851024
846.996878,444.123565,-296.082377,-9959.241474
846.997198,-148.041188,-222.061783,-10035.851024
846.997518,1110.308913,740.205942,-9882.631924
846.997839,2664.741391,1480.411884,-9806.022374
846.998159,2220.617826,2220.617826,-10265.679673
846.998479,1628.453072,1184.329507,-10112.460574
846.998799,888.247130,1850.514855,-10495.508323
846.999119,-1258.350101,222.061783,-9576.193725
846.999439,0.000000,-888.247130,-9806.022374
846.999759,2368.659014,-1184.329507,-9729.412825
847.000079,1702.473667,74.020594,-10035.851024
847.000399,518.144159,1332.370696,-10495.508323
847.000719,370.102971,2220.617826,-10418.898773
847.001040,-1036.288319,2368.659014,-10342.289223
847.001360,-1628.453072,2368.659014,-10648.727422
847.001680,-1702.473667,1110.308913,-10189.070123
847.002000,-1110.308913,296.082377,-10112.460574
847.002320,-1332.370696,-370.102971,-10418.898773
847.002640,-740.205942,-370.102971,-10112.460574
847.002960,0.000000,-148.041188,-10725.336972
847.003280,-666.185348,0.000000,-9729.412825
847.003600,-1554.432478,1258.350101,-10035.851024
847.003920,-740.205942,1184.329507,-10265.679673
847.004240,-148.041188,1110.308913,-9806.022374
847.004560,0.000000,0.000000,-10801.946522
847.004880,1110.308913,-518.144159,-10495.508323
847.005200,1628.453072,0.000000,-9959.241474
847.005520,74.020594,148.041188,-10342.289223
847.005840,-814.226536,962.267725,-9806.022374
847.006160,74.020594,1628.453072,-10112.460574
847.006480,1776.494261,888.247130,-10725.336972
847.006800,2220.617826,-1258.350101,-9959.241474
847.007120,370.102971,-1184.329507,-9806.022374
847.007440,222.061783,-592.164754,-9806.022374
847.007760,-296.082377,1110.308913,-9882.631924
847.008080,-740.205942,814.226536,-10189.070123
847.008400,-592.164754,370.102971,-8963.317327
847.008720,222.061783,-740.205942,-10035.851024
847.009040,1702.473667,-1406.391290,-10265.679673
847.009360,2072.576638,-222.061783,-10035.851024
847.009680,1332.370696,888.247130,-10112.460574
847.010000,-592.164754,1554.432478,-9882.631924
847.010320,-1332.370696,1110.308913,-9806.022374
847.010640,-518.144159,-592.164754,-10035.851024
847.010959,1850.514855,-1406.391290,-10265.679673
847.011279,3404.947333,222.061783,-9882.631924
847.011599,3404.947333,518.144159,-10035.851024
847.011919,2738.761985,592.164754,-10572.117872
847.012239,592.164754,518.144159,-10112.460574
847.012559,-1776.494261,888.247130,-10801.946522
847.012879,-888.247130,370.102971,-9806.022374
847.013199,740.205942,1036.288319,-9806.022374
847.013519,1628.453072,1036.288319,-10725.336972
847.013839,1332.370696,888.247130,-9882.631924
847.014159,-222.061783,592.164754,-10112.460574
847.014479,-888.247130,0.000000,-9806.022374
847.014799,-1480.411884,592.164754,-9652.803275
847.015119,-296.082377,296.082377,-9806.022374
847.015439,1628.453072,222.061783,-10418.898773
847.015759,1406.391290,-296.082377,-10112.460574
847.016079,1258.350101,-296.082377,-9806.022374
847.016399,1036.288319,1184.329507,-10418.898773
847.016719,1628.453072,2664.741391,-9959.241474
847.017039,1850.514855,3330.926739,-10418.898773
847.017359,2664.741391,1998.556043,-10495.508323
847.017679,2442.679609,-740.205942,-9806.022374
847.017999,518.144159,-3108.864956,-9806.022374
847.018319,-296.082377,-2812.782580,-9652.803275
847.018639,-888.247130,0.000000,-10648.727422
847.018959,-1036.288319,3108.864956,-10572.117872
847.019279,-1184.329507,4071.132681,-10878.556072
847.019599,-592.164754,2738.761985,-10265.679673
847.019919,0.000000,1332.370696,-10265.679673
847.020239,740.205942,-592.164754,-10035.851024
847.020559,1406.391290,-1110.308913,-10265.679673
847.020879,2368.659014,0.000000,-10342.289223
847.021199,1184.329507,1998.556043,-10495.508323
847.021519,-666.185348,814.226536,-9576.193725
847.021839,-1184.329507,666.185348,-9652.803275
847.022159,0.000000,148.041188,-9959.241474
847.022479,888.247130,1184.329507,-10878.556072
847.022799,1924.535449,1258.350101,-10648.727422
847.023119,2220.617826,888.247130,-10342.289223
847.023439,518.144159,0.000000,-9882.631924
847.023759,-2664.741391,-1850.514855,-9193.145976
847.024079,-3701.029710,-3034.844362,-9422.974625
847.024399,0.000000,-2812.782580,-9806.022374
847.024719,1628.453072,-1702.473667,-9806.022374
847.025039,2220.617826,740.205942,-10342.289223
847.025359,2220.617826,1776.494261,-9959.241474
847.025679,962.267725,3330.926739,-10725.336972
847.025999,0.000000,2664.741391,-10418.898773
847.026319,518.144159,814.226536,-10418.898773
847.026639,1332.370696,-740.205942,-10189.070123
847.026959,666.185348,-2368.659014,-9959.241474
847.027279,592.164754,-2368.659014,-9882.631924
847.027599,1480.411884,74.020594,-10265.679673
847.027919,1406.391290,2590.720797,-10418.898773
847.028239,0.000000,3701.029710,-10418.898773
847.028559,-370.102971,2516.700203,-10495.508323
847.028879,1184.329507,518.144159,-9806.022374
847.029199,666.185348,-1998.556043,-9806.022374
847.029519,2590.720797,-3701.029710,-9499.584175
847.029839,2294.638420,-3330.926739,-9882.631924
847.030159,1184.329507,-1036.288319,-9882.631924
847.030479,-444.123565,1628.453072,-9729.412825
847.030798,-1554.432478,2516.700203,-10112.460574
847.031118,-666.185348,2738.761985,-10572.117872
847.031438,-592.164754,1184.329507,-10035.851024
847.031758,0.000000,-518.144159,-9959.241474
847.032078,1258.350101,-1628.453072,-10418.898773
847.032398,592.164754,-1628.453072,-9882.631924
847.032718,-814.226536,-1480.411884,-10035.851024
847.033038,-666.185348,-1184.329507,-9806.022374
847.033358,444.123565,-148.041188,-10112.460574
847.033678,814.226536,740.205942,-10418.898773
847.033998,962.267725,1184.329507,-10112.460574
847.034318,222.061783,2738.761985,-10725.336972
847.034638,-1406.391290,2146.597232,-10572.117872
847.034958,-1924.535449,592.164754,-10418.898773
847.035278,-1924.535449,-1036.288319,-9806.022374
847.035598,-962.267725,-2738.761985,-9806.022374
847.035918,-444.123565,-1702.473667,-9729.412825
847.036238,814.226536,74.020594,-10189.070123
847.036558,962.267725,1332.370696,-10342.289223
847.036878,592.164754,2220.617826,-10035.851024
847.037198,-592.164754,2812.782580,-10189.070123
847.037518,-444.123565,1406.391290,-9882.631924
847.037838,1924.535449,74.020594,-10035.851024
847.038158,1480.411884,-1480.411884,-9806.022374
847.038478,1258.350101,-2146.597232,-9882.631924
847.038798,1184.329507,-1036.288319,-10189.070123
847.039118,-222.061783,1480.411884,-9882.631924
847.039438,-148.041188,3182.885551,-10112.460574
847.039758,148.041188,2442.679609,-9346.365076
847.040078,2516.700203,740.205942,-10342.289223
847.040398,3256.906145,-1480.411884,-10112.460574
847.040718,2886.803174,-1406.391290,-10112.460574
847.041038,3108.864956,0.000000,-10495.508323
847.041358,2072.576638,888.247130,-10189.070123
847.041678,518.144159,1628.453072,-10112.460574
847.041998,444.123565,518.144159,-9652.803275
847.042318,1258.350101,518.144159,-9806.022374
847.042638,1924.535449,666.185348,-10189.070123
847.042958,1850.514855,962.267725,-10342.289223
847.043278,1776.494261,666.185348,-10418.898773
847.043598,666.185348,74.020594,-10035.851024
847.043918,0.000000,296.082377,-8810.098227
847.044238,-740.205942,74.020594,-9806.022374
847.044558,666.185348,666.185348,-10342.289223
847.044878,592.164754,962.267725,-10801.946522
847.045198,1332.370696,962.267725,-10495.508323
847.045518,1406.391290,1480.411884,-10112.460574
847.045838,1480.411884,1110.308913,-10572.117872
847.046158,1332.370696,1406.391290,-10189.070123
847.046478,592.164754,1258.350101,-10725.336972
847.046798,518.144159,1554.432478,-10112.460574
847.047118,0.000000,518.144159,-10189.070123
847.047438,-518.144159,296.082377,-9959.241474
847.047758,-518.144159,296.082377,-10342.289223
847.048078,-1110.308913,-148.041188,-9576.193725
847.048398,-2072.576638,518.144159,-9652.803275
847.048718,-666.185348,444.123565,-9806.022374
847.049038,0.000000,222.061783,-9882.631924
847.049358,148.041188,-518.144159,-10112.460574
847.049678,1036.288319,-1258.350101,-9806.022374
847.049998,518.144159,-814.226536,-9882.631924
847.050318,0.000000,370.102971,-10342.289223
847.050637,-1554.432478,962.267725,-9959.241474
847.050957,-962.267725,962.267725,-9806.022374
847.051277,-222.061783,-148.041188,-9806.022374
847.051597,740.205942,-814.226536,-10189.070123
847.051917,1998.556043,-2146.597232,-10342.289223
847.052237,1480.411884,-962.267725,-10035.851024
847.052557,-740.205942,1036.288319,-10572.117872
847.052877,-1406.391290,2146.597232,-10342.289223
847.053197,-2368.659014,1480.411884,-9729.412825
847.053517,-962.267725,444.123565,-10035.851024
847.053837,-370.102971,-1036.288319,-9116.536426
847.054157,1776.494261,-1998.556043,-10725.336972
847.054477,1924.535449,-1776.494261,-10035.851024
847.054797,1110.308913,-370.102971,-10648.727422
847.055117,-962.267725,1332.370696,-9959.241474
847.055437,-1332.370696,2146.597232,-9882.631924
847.055757,-1036.288319,888.247130,-10495.508323
847.056077,296.082377,-740.205942,-10035.851024
847.056397,888.247130,-1406.391290,-10112.460574
847.056717,1332.370696,-2442.679609,-11568.042020
847.057037,1110.308913,-1258.350101,-10035.851024
847.057357,444.123565,518.144159,-10495.508323
847.057677,148.041188,1258.350101,-10035.851024
847.057997,888.247130,2146.597232,-10265.679673
847.058317,1998.556043,1554.432478,-11261.603821
847.058637,1110.308913,1036.288319,-10189.070123
847.058957,222.061783,0.000000,-10572.117872
847.059277,-222.061783,-148.041188,-10112.460574
847.059597,-814.226536,-592.164754,-9806.022374
847.059917,-370.102971,0.000000,-9652.803275
847.060237,518.144159,0.000000,-9959.241474
847.060557,2368.659014,-222.061783,-9882.631924
847.060877,2294.638420,222.061783,-10189.070123
847.061197,2738.761985,-518.144159,-10112.460574
847.061517,1998.556043,666.185348,-10112.460574
847.061837,592.164754,1258.350101,-9882.631924
847.062157,0.000000,1480.411884,-9806.022374
847.062477,2368.659014,1110.308913,-9729.412825
847.062797,1998.556043,0.000000,-10035.851024
847.063117,2960.823768,-888.247130,-10112.460574
847.063437,1998.556043,-1332.370696,-9882.631924
847.063757,592.164754,518.144159,-10189.070123
847.064077,370.102971,2368.659014,-9806.022374
847.064397,-592.164754,2220.617826,-10265.679673
847.064717,296.082377,1184.329507,-10342.289223
847.065037,444.123565,-592.164754,-10112.460574
847.065357,1406.391290,-444.123565,-8733.488677
847.065677,1776.494261,-148.041188,-9882.631924
847.065997,518.144159,1036.288319,-10648.727422
847.066317,222.061783,1850.514855,-10342.289223
847.066637,-370.102971,888.247130,-9729.412825
847.066957,-1110.308913,0.000000,-9576.193725
847.067277,0.000000,-814.226536,-9806.022374
847.067597,-222.061783,-1406.391290,-10189.070123
847.067917,1332.370696,-518.144159,-10265.679673
847.068237,1258.350101,222.061783,-10418.898773
847.068557,-518.144159,1332.370696,-10265.679673
847.068877,74.020594,1480.411884,-10112.460574
847.069197,370.102971,1184.329507,-10418.898773
847.069517,74.020594,962.267725,-9346.365076
847.069837,74.020594,-814.226536,-10572.117872
847.070157,666.185348,-1776.494261,-10572.117872
847.070476,148.041188,-370.102971,-10572.117872
847.070796,-296.082377,1628.453072,-10725.336972
847.071116,-1110.308913,2368.659014,-10112.460574
847.071436,-148.041188,2294.638420,-10495.508323
847.071756,74.020594,1480.411884,-10112.460574
847.072076,592.164754,-296.082377,-10035.851024
847.072396,1036.288319,-814.226536,-10035.851024
847.072716,666.185348,-814.226536,-9729.412825
847.073036,592.164754,518.144159,-9806.022374
847.073356,592.164754,962.267725,-9806.022374
847.073676,1258.350101,222.061783,-9652.803275
847.073996,1776.494261,-222.061783,-9576.193725
847.074316,1924.535449,-444.123565,-9806.022374
847.074636,1628.453072,222.061783,-9806.022374
847.074956,222.061783,1998.556043,-10035.851024
847.075276,74.020594,2368.659014,-9882.631924
847.075596,74.020594,1480.411884,-9806.022374
847.075916,444.123565,-370.102971,-9806.022374
847.076236,1554.432478,-2072.576638,-9652.803275
847.076556,1850.514855,-2072.576638,-9806.022374
847.076876,1628.453072,-592.164754,-10265.679673
847.077196,-370.102971,1406.391290,-10418.898773
847.077516,-1850.514855,2294.638420,-10342.289223
847.077836,-2072.576638,2368.659014,-10035.851024
847.078156,-962.267725,1628.453072,-12180.918418
847.078476,-666.185348,-222.061783,-10418.898773
847.078796,148.041188,-1480.411884,-10342.289223
847.079116,1628.453072,-1776.494261,-9806.022374
847.079436,1850.514855,-370.102971,-10035.851024
847.079756,0.000000,444.123565,-10342.289223
847.080076,-814.226536,666.185348,-9806.022374
847.080396,74.020594,0.000000,-10189.070123
847.080716,1258.350101,-222.061783,-10189.070123
847.081036,1480.411884,-444.123565,-9499.584175
847.081356,814.226536,-518.144159,-9729.412825
847.081676,-296.082377,444.123565,-10189.070123
847.081996,-592.164754,1998.556043,-10112.460574
847.082316,-444.123565,2072.576638,-10725.336972
847.082636,740.205942,740.205942,-9882.631924
847.082956,814.226536,-444.123565,-10035.851024
847.083276,1406.391290,-1110.308913,-10112.460574
847.083596,2146.597232,-1184.329507,-9882.631924
847.083916,1850.514855,740.205942,-10648.727422
847.084236,592.164754,1702.473667,-10035.851024
847.084556,740.205942,1924.535449,-10112.460574
847.084876,1554.432478,518.144159,-10112.460574
847.085196,2220.617826,74.020594,-10189.070123
847.085516,814.226536,-370.102971,-10112.460574
847.085836,1628.453072,370.102971,-10265.679673
847.086156,1258.350101,1258.350101,-10495.508323
847.086476,814.226536,1184.329507,-10342.289223
847.086796,296.082377,222.061783,-10418.898773
847.087116,888.247130,-222.061783,-10418.898773
847.087436,296.082377,-666.185348,-10955.165621
847.087756,-370.102971,0.000000,-10955.165621
847.088076,296.082377,1258.350101,-10801.946522
847.088396,296.082377,1924.535449,-11031.775171
847.088716,592.164754,1702.473667,-10572.117872
847.089036,666.185348,444.123565,-10725.336972
847.089356,1184.329507,296.082377,-10801.946522
847.089676,296.082377,296.082377,-10265.679673
847.089996,0.000000,962.267725,-10189.070123
847.090315,888.247130,592.164754,-9806.022374
847.090635,1036.288319,-518.144159,-9806.022374
847.090955,444.123565,-444.123565,-9269.755526
847.091275,148.041188,-1184.329507,-9576.193725
847.091595,148.041188,-1184.329507,-9576.193725
847.091915,1258.350101,-148.041188,-9729.412825
847.092235,222.061783,-444.123565,-9652.803275
847.092555,74.020594,-1036.288319,-9422.974625
847.092875,0.000000,222.061783,-9346.365076
847.093195,-814.226536,444.123565,-9422.974625
847.093515,-444.123565,962.267725,-9193.145976
847.093835,-74.020594,0.000000,-9652.803275
847.094155,740.205942,-1776.494261,-9422.974625
847.094475,1924.535449,-1702.473667,-9652.803275
847.094795,1702.473667,-1554.432478,-9806.022374
847.095115,1036.288319,-444.123565,-9959.241474
847.095435,-1776.494261,1110.308913,-10342.289223
847.095755,-1332.370696,1554.432478,-10112.460574
847.096075,-370.102971,666.185348,-10265.679673
847.096395,518.144159,222.061783,-10495.508323
847.096715,1184.329507,-296.082377,-11414.822920
847.097035,1554.432478,-592.164754,-11108.384721
847.097355,1480.411884,148.041188,-10878.556072
847.097675,518.144159,962.267725,-10801.946522
847.097995,222.061783,1110.308913,-9806.022374
847.098315,-518.144159,962.267725,-10725.336972
847.098635,296.082377,1480.411884,-10725.336972
847.098955,74.020594,1036.288319,-10418.898773
847.099275,1480.411884,0.000000,-10265.679673
847.099595,740.205942,-148.041188,-9193.145976
847.099915,148.041188,-666.185348,-10342.289223
847.100235,444.123565,0.000000,-9729.412825
847.100555,1110.308913,1184.329507,-10265.679673
847.100875,1776.494261,2738.761985,-9652.803275
847.101195,1406.391290,2368.659014,-9959.241474
847.101515,296.082377,1258.350101,-9499.584175
847.101835,1332.370696,888.247130,-9729.412825
847.102155,962.267725,444.123565,-9652.803275
847.102475,1702.473667,962.267725,-9652.803275
847.102795,1776.494261,370.102971,-9576.193725
847.103115,1628.453072,74.020594,-9806.022374
847.103434,1924.535449,740.205942,-9959.241474
847.103754,518.144159,1110.308913,-9499.584175
847.104074,740.205942,2072.576638,-9806.022374
847.104394,-148.041188,2442.679609,-9806.022374
847.104714,-740.205942,1258.350101,-9652.803275
847.105034,222.061783,-370.102971,-10035.851024
847.105354,-222.061783,-1850.514855,-9806.022374
847.105674,-370.102971,-814.226536,-9806.022374
847.105994,-444.123565,-518.144159,-10189.070123
847.106314,370.102971,1702.473667,-10342.289223
847.106634,592.164754,3256.906145,-10495.508323
847.106954,222.061783,2886.803174,-10189.070123
847.107273,-296.082377,962.267725,-10418.898773
847.107593,444.123565,-1184.329507,-10648.727422
847.107913,1480.411884,-1850.514855,-10189.070123
847.108233,1332.370696,-1332.370696,-9959.241474
847.108553,1258.350101,-296.082377,-10189.070123
847.108873,-148.041188,1258.350101,-10342.289223
847.109193,-592.164754,1702.473667,-9959.241474
847.109513,-962.267725,148.041188,-10112.460574
847.109833,296.082377,-1110.308913,-9882.631924
847.110153,814.226536,-1776.494261,-9806.022374
847.110473,296.082377,-1998.556043,-9806.022374
847.110793,962.267725,-1628.453072,-9729.412825
847.111112,592.164754,0.000000,-9806.022374
847.111432,-296.082377,-592.164754,-9806.022374
847.111752,222.061783,-1110.308913,-9806.022374
847.112072,222.061783,-888.247130,-9806.022374
847.112392,148.041188,-1110.308913,-9652.803275
847.112712,0.000000,-740.205942,-10035.851024
847.113032,-962.267725,-1036.288319,-10265.679673
847.113352,-1184.329507,-1110.308913,-10189.070123
847.113672,-444.123565,-1628.453072,-9882.631924
847.113992,888.247130,-888.247130,-10495.508323
847.114312,1850.514855,-1258.350101,-10265.679673
847.114632,2220.617826,-444.123565,-10648.727422
847.114951,2368.659014,296.082377,-10572.117872
847.115271,2516.700203,814.226536,-10648.727422
847.115591,222.061783,444.123565,-11031.775171
847.115911,-148.041188,222.061783,-10189.070123
847.116231,0.000000,-444.123565,-10648.727422
847.116551,1998.556043,-222.061783,-10495.508323
847.116871,1480.411884,-592.164754,-10648.727422
847.117191,1332.370696,-370.102971,-10878.556072
847.117511,1036.288319,0.000000,-10265.679673
847.117831,814.226536,1110.308913,-10495.508323
847.118151,-296.082377,1406.391290,-10035.851024
847.118471,222.061783,888.247130,-10342.289223
847.118790,0.000000,-222.061783,-10035.851024
847.119110,1258.350101,-814.226536,-10495.508323
847.119430,2072.576638,-740.205942,-9193.145976
847.119750,1184.329507,-222.061783,-10112.460574
847.120070,-1406.391290,1702.473667,-9806.022374
847.120390,-2368.659014,3404.947333,-9959.241474
847.120710,-1110.308913,2294.638420,-10035.851024
847.121030,-222.061783,962.267725,-9652.803275
847.121350,1184.329507,-444.123565,-9806.022374
847.121670,1036.288319,-2146.597232,-9193.145976
847.121990,-222.061783,-2146.597232,-9576.193725
847.122310,-370.102971,-1332.370696,-9269.755526
847.122629,-740.205942,-814.226536,-9116.536426
847.122949,-592.164754,148.041188,-9806.022374
847.123269,-222.061783,1480.411884,-10189.070123
847.123589,0.000000,2590.720797,-10418.898773
847.123909,962.267725,4367.215058,-10725.336972
847.124229,1702.473667,4515.256246,-11338.213370
847.124549,888.247130,3404.947333,-10418.898773
847.124869,-518.144159,222.061783,-10648.727422
847.125189,-814.226536,-2072.576638,-9576.193725
847.125509,-518.144159,-2294.638420,-9806.022374
847.125829,666.185348,-444.123565,-10342.289223
847.126149,1998.556043,1628.453072,-10572.117872
847.126468,2072.576638,4367.215058,-10801.946522
847.126788,592.164754,4737.318029,-10418.898773
847.127108,-740.205942,3997.112087,-10342.289223
847.127428,1406.391290,2294.638420,-10495.508323
847.127748,2516.700203,0.000000,-9959.241474
847.128068,2664.741391,-1110.308913,-9959.241474
847.128388,2146.597232,-962.267725,-9729.412825
847.128708,888.247130,0.000000,-9806.022374
847.129028,814.226536,1628.453072,-9269.755526
847.129348,1258.350101,3552.988522,-9499.584175
847.129668,2368.659014,2664.741391,-10648.727422
847.129988,3701.029710,1554.432478,-9882.631924
847.130307,2812.782580,-370.102971,-9806.022374
847.130627,1998.556043,-2220.617826,-9346.365076
847.130947,1036.288319,-2442.679609,-9729.412825
847.131267,-296.082377,-1110.308913,-9422.974625
847.131587,-962.267725,1110.308913,-9346.365076
847.131907,296.082377,2368.659014,-9959.241474
847.132227,1702.473667,3108.864956,-10801.946522
847.132547,592.164754,1480.411884,-10112.460574
847.132867,148.041188,148.041188,-10112.460574
847.133187,-222.061783,-592.164754,-10495.508323
847.133507,-666.185348,-1184.329507,-11108.384721
847.133827,-1110.308913,-1554.432478,-10112.460574
847.134146,-740.205942,-1480.411884,-10572.117872
847.134466,740.205942,-222.061783,-10265.679673
847.134786,2368.659014,888.247130,-10955.165621
847.135106,2738.761985,1850.514855,-11568.042020
847.135426,1036.288319,2294.638420,-11184.994271
847.135746,-1184.329507,1406.391290,-10418.898773
847.136066,-2664.741391,-296.082377,-10342.289223
847.136386,-1776.494261,-2146.597232,-10112.460574
847.136706,-962.267725,-2886.803174,-9959.241474
847.137026,-1332.370696,-3182.885551,-10265.679673
847.137346,-296.082377,-1850.514855,-9882.631924
847.137666,444.123565,-148.041188,-10418.898773
847.137985,0.000000,962.267725,-10648.727422
847.138305,-2294.638420,2812.782580,-10418.898773
847.138625,-2368.659014,2294.638420,-10342.289223
847.138945,74.020594,1850.514855,-10112.460574
847.139265,2072.576638,0.000000,-9959.241474
847.139585,4737.318029,-1998.556043,-9959.241474
847.139905,3997.112087,-3256.906145,-9882.631924
847.140225,1850.514855,-2886.803174,-9576.193725
847.140545,-1258.350101,-1110.308913,-9193.145976
847.140865,-1406.391290,666.185348,-8580.269578
847.141185,-444.123565,1850.514855,-9652.803275
847.141505,222.061783,370.102971,-9806.022374
847.141824,1628.453072,-1850.514855,-9576.193725
847.142144,2072.576638,-2442.679609,-10035.851024
847.142464,1110.308913,-2294.638420,-9806.022374
847.142784,0.000000,-444.123565,-9806.022374
847.143104,518.144159,1036.288319,-10572.117872
847.143424,2072.576638,1110.308913,-10189.070123
847.143744,444.123565,592.164754,-9806.022374
847.144064,592.164754,0.000000,-10418.898773
847.144384,518.144159,888.247130,-10878.556072
847.144704,-296.082377,1406.391290,-10572.117872
847.145024,-1332.370696,814.226536,-10189.070123
847.145344,-740.205942,814.226536,-10342.289223
847.145663,-444.123565,148.041188,-10189.070123
847.145983,518.144159,0.000000,-10495.508323
847.146303,1554.432478,666.185348,-10495.508323
847.146623,1258.350101,1850.514855,-10495.508323
847.146943,-592.164754,3108.864956,-10418.898773
847.147263,-1184.329507,3182.885551,-9882.631924
847.147583,-370.102971,1702.473667,-10112.460574
847.147903,1332.370696,814.226536,-9652.803275
847.148223,1924.535449,-888.247130,-10035.851024
847.148543,1554.432478,-740.205942,-10112.460574
847.148863,1924.535449,740.205942,-10265.679673
847.149183,1036.288319,1258.350101,-9806.022374
847.149502,0.000000,2072.576638,-9422.974625
847.149822,-740.205942,2146.597232,-9729.412825
847.150142,666.185348,1924.535449,-9806.022374
847.150462,962.267725,148.041188,-9729.412825
847.150782,1998.556043,-888.247130,-9499.584175
847.151102,1776.494261,-518.144159,-10035.851024
847.151422,814.226536,0.000000,-9959.241474
847.151742,74.020594,1332.370696,-9652.803275
847.152062,1110.308913,1776.494261,-9806.022374
847.152382,2590.720797,1850.514855,-9806.022374
847.152702,2738.761985,1628.453072,-10342.289223
847.153022,3034.844362,1406.391290,-9806.022374
847.153341,2368.659014,740.205942,-10342.289223
847.153661,962.267725,592.164754,-10035.851024
847.153981,222.061783,0.000000,-9806.022374
847.154301,666.185348,-518.144159,-10265.679673
847.154621,1184.329507,0.000000,-10112.460574
847.154941,148.041188,666.185348,-10035.851024
847.155261,-74.020594,1258.350101,-10572.117872
847.155581,-740.205942,1554.432478,-10495.508323
847.155901,-888.247130,1258.350101,-10572.117872
847.156221,74.020594,814.226536,-10035.851024
847.156541,0.000000,-1480.411884,-10265.679673
847.156861,74.020594,-1998.556043,-10495.508323
847.157181,-518.144159,-2220.617826,-10418.898773
847.157500,-222.061783,-2072.576638,-9959.241474
847.157820,962.267725,0.000000,-9806.022374
847.158140,74.020594,666.185348,-9959.241474
847.158460,-814.226536,1332.370696,-10265.679673
847.158780,-1776.494261,740.205942,-9806.022374
847.159100,-1554.432478,0.000000,-10418.898773
847.159420,-370.102971,-1850.514855,-10112.460574
847.159740,740.205942,-2516.700203,-9576.193725
847.160060,1184.329507,-2442.679609,-9959.241474
847.160380,-370.102971,-1480.411884,-9499.584175
847.160700,-1406.391290,370.102971,-9806.022374
847.161020,-444.123565,1480.411884,-9882.631924
847.161339,148.041188,370.102971,-9882.631924
847.161659,814.226536,-1036.288319,-10112.460574
847.161979,1850.514855,-1110.308913,-9882.631924
847.162299,148.041188,-888.247130,-9882.631924
847.162619,-666.185348,740.205942,-10035.851024
847.162939,-296.082377,1406.391290,-10112.460574
847.163259,-444.123565,-74.020594,-10112.460574
847.163579,74.020594,-2220.617826,-9652.803275
847.163899,2220.617826,-2146.597232,-10035.851024
847.164219,962.267725,-1332.370696,-10035.851024
847.164539,1702.473667,962.267725,-10648.727422
847.164859,1850.514855,2368.659014,-10418.898773
847.165178,518.144159,2812.782580,-11031.775171
847.165498,-962.267725,1998.556043,-10112.460574
847.165818,-592.164754,740.205942,-10189.070123
847.166138,74.020594,0.000000,-10265.679673
847.166458,1480.411884,-1036.288319,-9959.241474
847.166778,518.144159,-1628.453072,-10189.070123
847.167098,-148.041188,-1628.453072,-9729.412825
847.167418,296.082377,-296.082377,-9959.241474
847.167738,370.102971,888.247130,-10495.508323
847.168058,1628.453072,2294.638420,-10418.898773
847.168378,1258.350101,3108.864956,-10725.336972
847.168698,814.226536,2664.741391,-10418.898773
847.169017,1850.514855,666.185348,-10725.336972
847.169337,1258.350101,-1110.308913,-9652.803275
847.169657,-814.226536,-962.267725,-9729.412825
847.169977,-1184.329507,-666.185348,-9729.412825
847.170297,-296.082377,1036.288319,-10189.070123
847.170617,740.205942,1998.556043,-10495.508323
847.170937,0.000000,3108.864956,-10112.460574
847.171257,74.020594,2886.803174,-10418.898773
847.171577,0.000000,2368.659014,-10189.070123
847.171897,-814.226536,1924.535449,-9806.022374
847.172217,0.000000,444.123565,-9806.022374
847.172537,1554.432478,0.000000,-9806.022374
847.172856,2294.638420,-1184.329507,-9959.241474
847.173176,1924.535449,-592.164754,-9576.193725
847.173496,1628.453072,962.267725,-10035.851024
847.173816,1406.391290,3330.926739,-10342.289223
847.174136,814.226536,4145.153275,-10725.336972
847.174456,148.041188,2442.679609,-9576.193725
847.174776,1628.453072,-370.102971,-9499.584175
847.175096,3108.864956,-1998.556043,-9652.803275
847.175416,2960.823768,-2442.679609,-9652.803275
847.175736,2294.638420,-222.061783,-10418.898773
847.176056,74.020594,2146.597232,-10189.070123
847.176376,-1036.288319,3478.967927,-9806.022374
847.176695,-296.082377,3256.906145,-10418.898773
847.177015,740.205942,2368.659014,-10342.289223
847.177335,1776.494261,-222.061783,-10265.679673
847.177655,2072.576638,-1258.350101,-10342.289223
847.177975,1702.473667,-1554.432478,-10112.460574
847.178295,0.000000,-666.185348,-10035.851024
847.178615,-888.247130,1110.308913,-9806.022374
847.178935,-592.164754,1924.535449,-10189.070123
847.179255,370.102971,3108.864956,-10572.117872
847.179575,1406.391290,1406.391290,-10572.117872
847.179895,1998.556043,-1036.288319,-9729.412825
847.180215,2516.700203,-2146.597232,-9959.241474
847.180534,-222.061783,-1110.308913,-9806.022374
847.180854,-2294.638420,296.082377,-9806.022374
847.181174,-2664.741391,74.020594,-10035.851024
847.181494,-518.144159,-1184.329507,-9806.022374
847.181814,1406.391290,-2738.761985,-10112.460574
847.182134,1776.494261,-2516.700203,-9729.412825
847.182454,888.247130,-1258.350101,-10112.460574
847.182774,-148.041188,592.164754,-10265.679673
847.183094,-1332.370696,2590.720797,-10189.070123
847.183414,-666.185348,1998.556043,-10572.117872
847.183734,222.061783,-222.061783,-10035.851024
847.184054,296.082377,-2146.597232,-10112.460574
847.184373,222.061783,-1628.453072,-10189.070123
847.184693,740.205942,-740.205942,-10418.898773
847.185013,740.205942,1776.494261,-10112.460574
847.185333,-370.102971,2072.576638,-10648.727422
847.185653,-962.267725,666.185348,-10418.898773
847.185973,-814.226536,-962.267725,-10112.460574
847.186293,-370.102971,-1924.535449,-10035.851024
847.186613,222.061783,-1924.535449,-10265.679673
847.186933,888.247130,-962.267725,-10342.289223
847.187253,666.185348,0.000000,-10878.556072
847.187573,-1036.288319,296.082377,-10035.851024
847.187893,-2294.638420,370.102971,-9806.022374
847.188212,-1036.288319,148.041188,-10878.556072
847.188532,0.000000,-148.041188,-10495.508323
847.188852,1554.432478,296.082377,-10572.117872
847.189172,2146.597232,592.164754,-10495.508323
847.189492,2072.576638,888.247130,-10112.460574
847.189812,-518.144159,444.123565,-9882.631924
847.190132,-2072.576638,0.000000,-10035.851024
847.190452,-1184.329507,-740.205942,-9729.412825
847.190772,148.041188,-592.164754,-10648.727422
847.191092,592.164754,148.041188,-9729.412825
847.191412,1258.350101,518.144159,-10112.460574
847.191732,1036.288319,962.267725,-10112.460574
847.192051,592.164754,1110.308913,-10955.165621
847.192371,518.144159,296.082377,-10572.117872
847.192691,814.226536,-148.041188,-9806.022374
847.193011,666.185348,74.020594,-9882.631924
847.193331,1110.308913,666.185348,-9576.193725
847.193651,2294.638420,518.144159,-9959.241474
847.193971,1850.514855,1332.370696,-9959.241474
847.194291,592.164754,592.164754,-10035.851024
847.194611,518.144159,0.000000,-9652.803275
847.194931,2294.638420,-148.041188,-9959.241474
847.195251,2294.638420,0.000000,-10112.460574
847.195571,2072.576638,1406.391290,-10648.727422
847.195890,2220.617826,1110.308913,-10725.336972
847.196210,444.123565,962.267725,-10112.460574
847.196530,0.000000,1554.432478,-10418.898773
847.196850,-1184.329507,888.247130,-10035.851024
847.197170,222.061783,222.061783,-10418.898773
847.197490,1776.494261,-370.102971,-10418.898773
847.197810,2368.659014,518.144159,-9959.241474
847.198130,2738.761985,1110.308913,-10572.117872
847.198450,1998.556043,1850.514855,-10035.851024
847.198770,148.041188,2146.597232,-10265.679673
847.199090,-370.102971,740.205942,-10112.460574
847.199410,962.267725,148.041188,-10035.851024
847.199729,962.267725,0.000000,-10265.679673
847.200049,814.226536,814.226536,-9882.631924
847.200369,1480.411884,1406.391290,-10342.289223
847.200689,1702.473667,2072.576638,-9959.241474
847.200959,0.000000,962.267725,-9806.022374
847.201279,-444.123565,-814.226536,-9422.974625
847.201599,370.102971,-1332.370696,-9806.022374
847.201919,0.000000,-1332.370696,-9882.631924
847.202239,-1184.329507,-148.041188,-9729.412825
847.202559,-592.164754,1554.432478,-10418.898773
847.202879,0.000000,2368.659014,-10495.508323
847.203199,-666.185348,1702.473667,-10189.070123
847.203519,370.102971,-888.247130,-9729.412825
847.203839,1184.329507,-1406.391290,-9882.631924
847.204159,1628.453072,-1776.494261,-10265.679673
847.204479,0.000000,-518.144159,-10112.460574
847.204799,-148.041188,518.144159,-10189.070123
847.205119,-888.247130,1628.453072,-10112.460574
847.205439,-1406.391290,1628.453072,-10572.117872
847.205759,1406.391290,592.164754,-9806.022374
847.206079,2738.761985,-666.185348,-10878.556072
847.206399,2442.679609,-592.164754,-10265.679673
847.206719,444.123565,148.041188,-10112.460574
847.207039,-370.102971,0.000000,-10112.460574
847.207359,0.000000,740.205942,-10189.070123
847.207679,-888.247130,1406.391290,-11108.384721
847.207999,-222.061783,0.000000,-10265.679673
847.208319,1110.308913,-1406.391290,-10265.679673
847.208639,2368.659014,-1776.494261,-9806.022374
847.208959,1332.370696,-1036.288319,-10189.070123
847.209279,962.267725,-444.123565,-10495.508323
847.209599,888.247130,1850.514855,-10189.070123
847.209919,-814.226536,2590.720797,-10495.508323
847.210239,-370.102971,2294.638420,-9652.803275
847.210559,1184.329507,0.000000,-10035.851024
847.210879,888.247130,-1110.308913,-9882.631924
847.211199,1036.288319,-2442.679609,-9806.022374
847.211519,1184.329507,-2590.720797,-9882.631924
847.211839,666.185348,-1332.370696,-9652.803275
847.212159,-814.226536,296.082377,-9806.022374
847.212479,-666.185348,1554.432478,-9806.022374
847.212799,0.000000,1184.329507,-10342.289223
847.213119,222.061783,222.061783,-10495.508323
847.213440,296.082377,0.000000,-9959.241474
847.213760,1110.308913,-740.205942,-9806.022374
847.214080,2146.597232,814.226536,-10035.851024
847.214400,1480.411884,1258.350101,-10801.946522
847.214720,1480.411884,296.082377,-10189.070123
847.215040,1184.329507,-444.123565,-10495.508323
847.215360,0.000000,-814.226536,-10342.289223
847.215680,-888.247130,-296.082377,-10648.727422
847.216000,-2146.597232,1332.370696,-10572.117872
847.216320,-2664.741391,3256.906145,-11644.651570
847.216640,-2368.659014,2960.823768,-10265.679673
847.216960,0.000000,1998.556043,-10035.851024
847.217280,1258.350101,444.123565,-10648.727422
847.217600,2812.782580,-666.185348,-9576.193725
847.217920,2664.741391,-296.082377,-10342.289223
847.218240,2664.741391,888.247130,-10112.460574
847.218560,962.267725,1850.514855,-9882.631924
847.218880,-1406.391290,2146.597232,-9806.022374
847.219200,-1258.350101,444.123565,-9806.022374
847.219520,-148.041188,296.082377,-10035.851024
847.219840,2146.597232,-1110.308913,-9882.631924
847.220160,1776.494261,-1850.514855,-9806.022374
847.220480,518.144159,-962.267725,-9729.412825
847.220800,-222.061783,0.000000,-9652.803275
847.221120,-666.185348,1776.494261,-9882.631924
847.221440,222.061783,888.247130,-9806.022374
847.221760,1850.514855,0.000000,-9806.022374
847.222080,2220.617826,-148.041188,-10189.070123
847.222400,1702.473667,-370.102971,-10035.851024
847.222720,2146.597232,74.020594,-10189.070123
847.223040,1480.411884,592.164754,-10265.679673
847.223360,-962.267725,1258.350101,-10342.289223
847.223680,-592.164754,1036.288319,-10189.070123
847.224000,1110.308913,148.041188,-10342.289223
847.224320,1850.514855,0.000000,-10342.289223
847.224640,1702.473667,0.000000,-10725.336972
847.224960,1258.350101,888.247130,-10801.946522
847.225280,1406.391290,1258.350101,-10725.336972
847.225600,-518.144159,888.247130,-10189.070123
847.225920,-1184.329507,740.205942,-10035.851024
847.226240,518.144159,222.061783,-10418.898773
847.226560,2072.576638,0.000000,-10648.727422
847.226880,2442.679609,148.041188,-10725.336972
847.227200,1776.494261,0.000000,-10648.727422
847.227520,666.185348,222.061783,-10112.460574
847.227840,-814.226536,1258.350101,-10725.336972
847.228160,-1924.535449,1850.514855,-10035.851024
847.228480,-296.082377,-444.123565,-10265.679673
847.228800,1850.514855,-518.144159,-9959.241474
847.229120,2960.823768,0.000000,-9882.631924
847.229440,518.144159,222.061783,-9422.974625
847.229760,592.164754,2442.679609,-9806.022374
847.230080,-444.123565,3034.844362,-10112.460574
847.230400,-666.185348,370.102971,-9193.145976
847.230720,222.061783,-2590.720797,-8503.660028
847.231040,1036.288319,-4737.318029,-9346.365076
847.231360,1258.350101,-3552.988522,-9116.536426
847.231680,2368.659014,-1184.329507,-10035.851024
847.232000,1406.391290,1406.391290,-10035.851024
847.232320,-1184.329507,2368.659014,-10035.851024
847.232640,-3034.844362,2072.576638,-9652.803275
847.232960,-2368.659014,0.000000,-10265.679673
847.233280,-1184.329507,-1776.494261,-9806.022374
847.233600,0.000000,-2664.741391,-10035.851024
847.233920,1554.432478,-1628.453072,-10342.289223
847.234240,1702.473667,814.226536,-10418.898773
847.234560,-1480.411884,2590.720797,-10418.898773
847.234880,-2368.659014,2886.803174,-10265.679673
847.235200,-814.226536,2072.576638,-10648.727422
847.235520,222.061783,1184.329507,-10572.117872
847.235840,74.020594,0.000000,-10801.946522
847.236160,0.000000,-444.123565,-10035.851024
847.236481,0.000000,-296.082377,-10418.898773
847.236801,-1184.329507,518.144159,-10035.851024
847.237121,-2368.659014,1110.308913,-10112.460574
847.237441,-2664.741391,1110.308913,-10035.851024
847.237761,-1258.350101,74.020594,-9576.193725
847.238081,1258.350101,370.102971,-9959.241474
847.238401,2664.741391,74.020594,-10418.898773
847.238721,4219.173869,814.226536,-10035.851024
847.239041,3552.988522,1406.391290,-10189.070123
847.239361,1924.535449,1702.473667,-9959.241474
847.239681,1110.308913,666.185348,-10189.070123
847.240001,888.247130,-1406.391290,-9959.241474
847.240321,666.185348,-1332.370696,-9576.193725
847.240641,814.226536,592.164754,-9882.631924
847.240961,1554.432478,2220.617826,-10112.460574
847.241281,1554.432478,3330.926739,-10265.679673
847.241601,1480.411884,2886.803174,-10265.679673
847.241921,888.247130,222.061783,-10035.851024
847.242241,1776.494261,-2368.659014,-9499.584175
847.242561,1332.370696,-1628.453072,-9806.022374
847.242881,1702.473667,740.205942,-10418.898773
847.243201,2590.720797,2886.803174,-10495.508323
847.243521,1554.432478,3997.112087,-10572.117872
847.243841,740.205942,2960.823768,-9806.022374
847.244161,1480.411884,814.226536,-10035.851024
847.244481,1924.535449,296.082377,-10495.508323
847.244801,2220.617826,-148.041188,-10342.289223
847.245121,2590.720797,148.041188,-10495.508323
847.245441,1332.370696,444.123565,-10572.117872
847.245761,-962.267725,296.082377,-9806.022374
847.246081,-2664.741391,444.123565,-9652.803275
847.246401,-1184.329507,370.102971,-9959.241474
847.246721,888.247130,296.082377,-9882.631924
847.247041,1554.432478,-296.082377,-10035.851024
847.247361,2294.638420,-1480.411884,-10112.460574
847.247681,1554.432478,-148.041188,-8733.488677
847.248001,-444.123565,0.000000,-9806.022374
847.248321,-1406.391290,1702.473667,-9806.022374
847.248641,-1036.288319,1184.329507,-10495.508323
847.248961,-444.123565,-814.226536,-9039.926876
847.249281,0.000000,-1480.411884,-9806.022374
847.249601,296.082377,-1258.350101,-10035.851024
847.249921,592.164754,148.041188,-9959.241474
847.250241,370.102971,962.267725,-10418.898773
847.250561,-1036.288319,1702.473667,-10801.946522
847.250881,-1554.432478,296.082377,-9806.022374
847.251201,-2146.597232,-962.267725,-9806.022374
847.251521,-2146.597232,-2146.597232,-9806.022374
847.251841,444.123565,-1480.411884,-10342.289223
847.252161,1184.329507,0.000000,-10495.508323
847.252481,-296.082377,962.267725,-10112.460574
847.252801,-1702.473667,888.247130,-10035.851024
847.253121,-592.164754,-444.123565,-9806.022374
847.253441,1036.288319,-814.226536,-9652.803275
847.253761,1406.391290,-1776.494261,-10495.508323
847.254081,1776.494261,-1258.350101,-10265.679673
847.254401,1184.329507,-740.205942,-10418.898773
847.254721,-370.102971,74.020594,-10342.289223
847.255041,-222.061783,222.061783,-9576.193725
847.255361,296.082377,444.123565,-10725.336972
847.255681,2220.617826,148.041188,-10495.508323
847.256001,2590.720797,370.102971,-10572.117872
847.256321,2960.823768,888.247130,-10878.556072
847.256641,2072.576638,2368.659014,-10648.727422
847.256961,296.082377,1850.514855,-10265.679673
847.257281,-1110.308913,370.102971,-9652.803275
847.257601,-296.082377,-1184.329507,-8733.488677
847.257921,962.267725,-2738.761985,-9806.022374
847.258241,2368.659014,-2368.659014,-9882.631924
847.258561,3775.050304,0.000000,-10112.460574
847.258881,4071.132681,2442.679609,-10495.508323
847.259202,2220.617826,3775.050304,-10189.070123
847.259522,-814.226536,2812.782580,-10189.070123
847.259842,-1554.432478,1406.391290,-9882.631924
847.260162,-962.267725,-814.226536,-9729.412825
847.260482,148.041188,-666.185348,-10035.851024
847.260802,1406.391290,-1702.473667,-9882.631924
847.261122,1998.556043,-1036.288319,-10189.070123
847.261442,1184.329507,666.185348,-9806.022374
847.261762,-1110.308913,1776.494261,-10955.165621
847.262082,-2072.576638,2146.597232,-9806.022374
847.262402,-1702.473667,1998.556043,-9959.241474
847.262722,-1184.329507,1480.411884,-10342.289223
847.263042,666.185348,592.164754,-10265.679673
847.263362,1258.350101,222.061783,-10342.289223
847.263682,-296.082377,296.082377,-9806.022374
847.264002,-1776.494261,222.061783,-9499.584175
847.264322,222.061783,962.267725,-10189.070123
847.264642,2294.638420,1406.391290,-9499.584175
847.264962,2072.576638,74.020594,-10265.679673
847.265282,962.267725,74.020594,-10035.851024
847.265602,-222.061783,222.061783,-10112.460574
847.265922,-814.226536,1406.391290,-10265.679673
847.266242,-1258.350101,2442.679609,-10112.460574
847.266562,-1406.391290,1332.370696,-10418.898773
847.266882,0.000000,-370.102971,-10418.898773
847.267202,2220.617826,-814.226536,-10342.289223
847.267522,2368.659014,-1036.288319,-9806.022374
847.267842,444.123565,1332.370696,-10572.117872
847.268162,-518.144159,2220.617826,-10112.460574
847.268482,-1036.288319,1776.494261,-9806.022374
847.268802,74.020594,740.205942,-10418.898773
847.269122,74.020594,-296.082377,-10189.070123
847.269442,2072.576638,-1036.288319,-10572.117872
847.269762,2738.761985,-592.164754,-10572.117872
847.270082,3997.112087,518.144159,-10648.727422
847.270402,2072.576638,1850.514855,-11721.261119
847.270722,74.020594,1924.535449,-10189.070123
847.271042,-740.205942,740.205942,-10035.851024
847.271362,518.144159,-296.082377,-10035.851024
847.271682,1036.288319,-1628.453072,-10265.679673
847.272002,1184.329507,-1406.391290,-10265.679673
847.272322,962.267725,518.144159,-10725.336972
847.272642,-370.102971,1184.329507,-9806.022374
847.272962,-370.102971,1998.556043,-9806.022374
847.273282,0.000000,-222.061783,-9806.022374
847.273602,1036.288319,-1554.432478,-9806.022374
847.273922,1036.288319,-1702.473667,-9652.803275
847.274242,814.226536,-1258.350101,-9806.022374
847.274562,296.082377,592.164754,-9882.631924
847.274882,296.082377,1258.350101,-10035.851024
847.275202,-296.082377,962.267725,-9346.365076
847.275522,0.000000,-592.164754,-9806.022374
847.275842,222.061783,-2220.617826,-9576.193725
847.276162,-888.247130,-2146.597232,-10112.460574
847.276482,222.061783,-1406.391290,-9806.022374
847.276802,888.247130,222.061783,-10342.289223
847.277122,0.000000,1554.432478,-9729.412825
847.277442,444.123565,888.247130,-10189.070123
847.277762,740.205942,888.247130,-10342.289223
847.278082,814.226536,-814.226536,-10725.336972
847.278402,518.144159,-1258.350101,-10648.727422
847.278722,666.185348,-962.267725,-10189.070123
847.279042,1184.329507,222.061783,-11338.213370
847.279362,-1036.288319,1184.329507,-10265.679673
847.279682,-1850.514855,1850.514855,-10572.117872
847.280002,-666.185348,1332.370696,-10495.508323
847.280322,518.144159,1628.453072,-9193.145976
847.280642,2294.638420,888.247130,-10495.508323
847.280962,2812.782580,370.102971,-10112.460574
847.281282,2294.638420,-222.061783,-10189.070123
847.281602,1628.453072,-222.061783,-9806.022374
847.281922,814.226536,296.082377,-9346.365076
847.282243,-518.144159,222.061783,-9652.803275
847.282563,-888.247130,518.144159,-9882.631924
847.282883,-888.247130,666.185348,-9499.584175
847.283203,74.020594,1628.453072,-10189.070123
847.283523,1406.391290,1036.288319,-10112.460574
847.283843,1480.411884,666.185348,-9806.022374
847.284163,370.102971,1036.288319,-9806.022374
847.284483,1406.391290,814.226536,-9882.631924
847.284803,2442.679609,666.185348,-10495.508323
847.285123,1036.288319,-592.164754,-9806.022374
847.285443,1480.411884,-444.123565,-9806.022374
847.285763,1110.308913,888.247130,-10342.289223
847.286083,814.226536,1110.308913,-9882.631924
847.286403,-962.267725,2442.679609,-10648.727422
847.286723,-1036.288319,1702.473667,-10189.070123
847.287043,-1036.288319,1184.329507,-10418.898773
847.287363,-1036.288319,0.000000,-10112.460574
847.287683,74.020594,-370.102971,-10342.289223
847.288003,2368.659014,888.247130,-10572.117872
847.288323,3627.009116,1332.370696,-10801.946522
847.288643,1850.514855,1554.432478,-10112.460574
847.288963,666.185348,666.185348,-10342.289223
847.289283,888.247130,444.123565,-10189.070123
847.289603,518.144159,888.247130,-10725.336972
847.289923,1406.391290,888.247130,-10725.336972
847.290243,1258.350101,1332.370696,-10801.946522
847.290563,-222.061783,1110.308913,-10112.460574
847.290883,-1702.473667,814.226536,-10189.070123
847.291203,-1258.350101,-370.102971,-10035.851024
847.291523,-296.082377,-740.205942,-9729.412825
847.291843,814.226536,-1036.288319,-10418.898773
847.292163,888.247130,-1480.411884,-9729.412825
847.292483,1776.494261,-2072.576638,-9959.241474
847.292803,148.041188,-1258.350101,-9652.803275
847.293123,-962.267725,0.000000,-8963.317327
847.293443,370.102971,814.226536,-9959.241474
847.293763,1258.350101,518.144159,-10035.851024
847.294083,1480.411884,444.123565,-10112.460574
847.294403,1036.288319,-814.226536,-9729.412825
847.294723,962.267725,-1480.411884,-9193.145976
847.295043,888.247130,-1110.308913,-9806.022374
847.295363,0.000000,-592.164754,-9959.241474
847.295683,74.020594,-444.123565,-10342.289223
847.296003,592.164754,222.061783,-9576.193725
847.296323,148.041188,-296.082377,-10265.679673
847.296643,-444.123565,0.000000,-9959.241474
847.296963,0.000000,222.061783,-10572.117872
847.297283,-296.082377,740.205942,-10418.898773
847.297603,-296.082377,1628.453072,-10112.460574
847.297923,592.164754,74.020594,-10112.460574
847.298243,2220.617826,-1332.370696,-10342.289223
847.298563,1776.494261,-2442.679609,-10112.460574
847.298883,1110.308913,-1702.473667,-10035.851024
847.299203,518.144159,0.000000,-11031.775171
847.299523,-1628.453072,1480.411884,-10418.898773
847.299843,-3182.885551,2738.761985,-10572.117872
847.300163,-2294.638420,740.205942,-10418.898773
847.300483,296.082377,370.102971,-10495.508323
847.300803,444.123565,-1776.494261,-10035.851024
847.301123,814.226536,-1480.411884,-10495.508323
847.301443,740.205942,-222.061783,-10035.851024
847.301763,74.020594,1924.535449,-10648.727422
847.302083,-740.205942,2812.782580,-9806.022374
847.302403,-222.061783,740.205942,-10189.070123
847.302723,888.247130,-518.144159,-9499.584175
847.303043,1258.350101,-1554.432478,-9729.412825
847.303363,1036.288319,-1332.370696,-9576.193725
847.303683,962.267725,-888.247130,-9576.193725
847.304003,518.144159,74.020594,-9806.022374
847.304323,-1258.350101,592.164754,-9346.365076
847.304643,-1850.514855,1110.308913,-8963.317327
847.304963,-814.226536,-74.020594,-9193.145976
847.305283,222.061783,0.000000,-9806.022374
847.305603,1702.473667,296.082377,-9346.365076
847.305923,2294.638420,370.102971,-9729.412825
847.306243,2220.617826,1036.288319,-9806.022374
847.306563,1776.494261,1406.391290,-9806.022374
847.306883,2368.659014,1480.411884,-9806.022374
847.307203,1332.370696,2294.638420,-10112.460574
847.307522,1110.308913,2072.576638,-10189.070123
847.307842,740.205942,1776.494261,-9729.412825
847.308162,1110.308913,2442.679609,-10801.946522
847.308482,2960.823768,2146.597232,-10189.070123
847.308802,2368.659014,1924.535449,-9729.412825
847.309122,2220.617826,962.267725,-10112.460574
847.309442,3404.947333,666.185348,-10878.556072
847.309762,2368.659014,518.144159,-10801.946522
847.310082,1406.391290,74.020594,-10265.679673
847.310402,296.082377,1184.329507,-10112.460574
847.310722,-814.226536,2294.638420,-10189.070123
847.311042,-1258.350101,3330.926739,-10955.165621
847.311362,-148.041188,1924.535449,-10112.460574
847.311682,1110.308913,1554.432478,-9882.631924
847.312002,518.144159,-592.164754,-10035.851024
847.312321,444.123565,-888.247130,-9882.631924
847.312641,1628.453072,444.123565,-10572.117872
847.312961,518.144159,1628.453072,-9882.631924
847.313281,148.041188,2294.638420,-9806.022374
847.313601,814.226536,962.267725,-9806.022374
847.313921,888.247130,-370.102971,-9806.022374
847.314241,-148.041188,-1332.370696,-9422.974625
847.314561,740.205942,-1406.391290,-9806.022374
847.314881,1406.391290,-222.061783,-10035.851024
847.315201,2590.720797,962.267725,-10112.460574
847.315521,148.041188,1036.288319,-9882.631924
847.315841,-592.164754,0.000000,-9882.631924
847.316161,-1036.288319,-962.267725,-9729.412825
847.316481,-370.102971,-1184.329507,-10342.289223
847.316801,0.000000,296.082377,-9959.241474
847.317120,666.185348,1628.453072,-10418.898773
847.317440,-296.082377,1998.556043,-9882.631924
847.317760,-1554.432478,1554.432478,-10495.508323
847.318080,-1776.494261,74.020594,-10265.679673
847.318400,-1036.288319,-666.185348,-10189.070123
847.318720,-962.267725,-2368.659014,-9576.193725
847.319040,74.020594,-2516.700203,-9729.412825
847.319360,296.082377,-2072.576638,-10418.898773
847.319680,148.041188,-444.123565,-9806.022374
847.320000,-666.185348,1036.288319,-10189.070123
847.320320,296.082377,1628.453072,-9882.631924
847.320640,2368.659014,1110.308913,-10648.727422
847.320960,2072.576638,-666.185348,-10725.336972
847.321280,1776.494261,-1628.453072,-9882.631924
847.321600,0.000000,-2368.659014,-10342.289223
847.321919,-1406.391290,-1480.411884,-10035.851024
847.322239,-2516.700203,-1332.370696,-9729.412825
847.322559,-2146.597232,-740.205942,-10418.898773
847.322879,-888.247130,-666.185348,-9806.022374
847.323199,148.041188,-592.164754,-11644.651570
847.323519,666.185348,-1258.350101,-9806.022374
847.323839,1480.411884,-1184.329507,-10801.946522
847.324159,444.123565,370.102971,-9806.022374
847.324479,370.102971,666.185348,-9959.241474
847.324799,666.185348,296.082377,-9959.241474
847.325119,1554.432478,-148.041188,-10418.898773
847.325439,1776.494261,-1776.494261,-9959.241474
847.325759,1850.514855,-962.267725,-9806.022374
847.326079,1998.556043,888.247130,-10801.946522
847.326399,666.185348,2442.679609,-10572.117872
847.326718,-1184.329507,2368.659014,-9806.022374
847.327038,-592.164754,666.185348,-10189.070123
847.327358,-666.185348,148.041188,-9576.193725
847.327678,666.185348,-1332.370696,-10265.679673
847.327998,1776.494261,-2072.576638,-9806.022374
847.328318,2738.761985,-148.041188,-10495.508323
847.328638,2220.617826,2294.638420,-10112.460574
847.328958,666.185348,2886.803174,-10342.289223
847.329278,740.205942,1924.535449,-9806.022374
847.329598,1258.350101,1850.514855,-10572.117872
847.329918,1406.391290,518.144159,-10189.070123
847.330238,2812.782580,370.102971,-10342.289223
847.330558,1924.535449,888.247130,-10418.898773
847.330878,888.247130,666.185348,-9729.412825
847.331198,-740.205942,1036.288319,-9882.631924
847.331517,-592.164754,0.000000,-9346.365076
847.331837,1036.288319,0.000000,-10189.070123
847.332157,2146.597232,962.267725,-9729.412825
847.332477,2738.761985,2368.659014,-10112.460574
847.332797,2220.617826,3256.906145,-10112.460574
847.333117,814.226536,3108.864956,-9806.022374
847.333437,-1184.329507,1036.288319,-9422.974625
847.333757,0.000000,-518.144159,-9576.193725
847.334077,148.041188,-1258.350101,-9652.803275
847.334397,740.205942,-1480.411884,-9729.412825
847.334717,370.102971,370.102971,-10035.851024
847.335037,222.061783,1480.411884,-10265.679673
847.335357,148.041188,3108.864956,-10189.070123
847.335677,-1480.411884,2812.782580,-9959.241474
847.335997,-666.185348,1258.350101,-9959.241474
847.336316,-666.185348,-296.082377,-9729.412825
847.336636,0.000000,-1480.411884,-10572.117872
847.336956,222.061783,-814.226536,-9729.412825
847.337276,1110.308913,74.020594,-10418.898773
847.337596,592.164754,1924.535449,-10418.898773
847.337916,-740.205942,2072.576638,-10035.851024
847.338236,0.000000,814.226536,-9959.241474
847.338556,1850.514855,296.082377,-10725.336972
847.338876,1184.329507,-444.123565,-9882.631924
847.339196,296.082377,-296.082377,-10112.460574
847.339516,-444.123565,-296.082377,-10495.508323
847.339836,-1184.329507,222.061783,-10112.460574
847.340156,-1110.308913,814.226536,-9959.241474
847.340476,-148.041188,0.000000,-10035.851024
847.340796,1258.350101,-518.144159,-10112.460574
847.341116,2072.576638,-518.144159,-10189.070123
847.341435,1850.514855,-296.082377,-9959.241474
847.341755,1554.432478,0.000000,-9959.241474
847.342075,370.102971,-296.082377,-9806.022374
847.342395,-814.226536,296.082377,-9806.022374
847.342715,-222.061783,-666.185348,-9652.803275
847.343035,1554.432478,-1480.411884,-10265.679673
847.343355,1184.329507,-2220.617826,-9576.193725
847.343675,1628.453072,-1036.288319,-9959.241474
847.343995,1184.329507,0.000000,-10342.289223
847.344315,222.061783,222.061783,-10189.070123
847.344635,-1184.329507,740.205942,-10112.460574
847.344955,-740.205942,370.102971,-10189.070123
847.345275,962.267725,0.000000,-10342.289223
847.345595,2368.659014,-962.267725,-10495.508323
847.345915,1776.494261,-518.144159,-10495.508323
847.346234,1332.370696,-740.205942,-10725.336972
847.346554,-370.102971,370.102971,-10342.289223
847.346874,-1924.535449,1332.370696,-10265.679673
847.347194,-1776.494261,1184.329507,-11031.775171
847.347514,-296.082377,888.247130,-10648.727422
847.347834,74.020594,-740.205942,-9806.022374
847.348154,962.267725,-1554.432478,-10035.851024
847.348474,1850.514855,-148.041188,-10342.289223
847.348794,1036.288319,0.000000,-10572.117872
847.349114,296.082377,0.000000,-9882.631924
847.349434,0.000000,74.020594,-9806.022374
847.349754,444.123565,444.123565,-10265.679673
847.350074,888.247130,814.226536,-10112.460574
847.350394,148.041188,1258.350101,-9882.631924
847.350714,962.267725,1258.350101,-10495.508323
847.351033,1258.350101,1258.350101,-10418.898773
847.351353,-444.123565,74.020594,-9729.412825
847.351673,-222.061783,-888.247130,-9269.755526
847.351993,0.000000,-518.144159,-10112.460574
847.352313,296.082377,-370.102971,-9882.631924
847.352633,888.247130,296.082377,-9806.022374
847.352953,-148.041188,1480.411884,-9806.022374
847.353273,-222.061783,2960.823768,-9576.193725
847.353593,296.082377,3404.947333,-9959.241474
847.353913,814.226536,2738.761985,-9806.022374
847.354233,1776.494261,962.267725,-10189.070123
847.354553,1998.556043,-1258.350101,-9806.022374
847.354873,2368.659014,-2442.679609,-9959.241474
847.355193,1850.514855,-1554.432478,-10035.851024
847.355513,-518.144159,1776.494261,-10648.727422
847.355832,-1332.370696,2960.823768,-9806.022374
847.356152,-1628.453072,3404.947333,-10342.289223
847.356472,666.185348,2294.638420,-10648.727422
847.356792,888.247130,-222.061783,-10342.289223
847.357112,592.164754,-2146.597232,-10112.460574
847.357432,1258.350101,-1998.556043,-10725.336972
847.357752,0.000000,-296.082377,-9806.022374
847.358072,-1036.288319,1406.391290,-10265.679673
847.358392,-666.185348,2516.700203,-10189.070123
847.358712,1702.473667,2368.659014,-10189.070123
847.359032,3701.029710,1998.556043,-10342.289223
847.359352,3256.906145,1258.350101,-10189.070123
847.359672,2812.782580,518.144159,-10418.898773
847.359992,1554.432478,-222.061783,-10189.070123
847.360312,0.000000,-1258.350101,-9652.803275
847.360631,-1332.370696,-1776.494261,-9576.193725
847.360951,222.061783,-1776.494261,-10189.070123
847.361271,888.247130,74.020594,-9959.241474
847.361591,1258.350101,1702.473667,-10265.679673
847.361911,2516.700203,2812.782580,-10495.508323
847.362231,1998.556043,2516.700203,-10342.289223
847.362551,-888.247130,1184.329507,-9959.241474
847.362871,-1184.329507,-370.102971,-9193.145976
847.363191,-814.226536,-1110.308913,-9806.022374
847.363511,370.102971,-2146.597232,-9422.974625
847.363831,1332.370696,-2590.720797,-9882.631924
847.364151,1406.391290,-1480.411884,-9422.974625
847.364471,1332.370696,666.185348,-9959.241474
847.364791,0.000000,1702.473667,-10112.460574
847.365111,-1258.350101,1554.432478,-9729.412825
847.365430,-444.123565,962.267725,-10495.508323
847.365750,370.102971,222.061783,-9193.145976
847.366070,222.061783,-1924.535449,-9806.022374
847.366390,666.185348,-2664.741391,-9729.412825
847.366710,-1406.391290,-2220.617826,-9729.412825
847.367030,-2442.679609,148.041188,-10035.851024
847.367350,-1776.494261,814.226536,-9652.803275
847.367670,1258.350101,1036.288319,-10955.165621
847.367990,1776.494261,296.082377,-10801.946522
847.368310,740.205942,740.205942,-10955.165621
847.368630,-740.205942,-370.102971,-10495.508323
847.368950,-666.185348,-296.082377,-10189.070123
847.369270,-2664.741391,1258.350101,-10035.851024
847.369590,-962.267725,1480.411884,-10418.898773
847.369910,1554.432478,296.082377,-10342.289223
847.370229,1628.453072,-1258.350101,-10725.336972
847.370549,962.267725,-592.164754,-9882.631924
847.370869,1258.350101,148.041188,-10495.508323
847.371189,1258.350101,2664.741391,-10342.289223
847.371509,296.082377,2368.659014,-10495.508323
847.371829,-444.123565,2738.761985,-9806.022374
847.372149,0.000000,1776.494261,-10342.289223
847.372469,0.000000,0.000000,-9499.584175
847.372789,518.144159,-370.102971,-9959.241474
847.373109,518.144159,-592.164754,-9652.803275
847.373429,1480.411884,1110.308913,-9806.022374
847.373749,1702.473667,2442.679609,-9499.584175
847.374069,0.000000,1332.370696,-9346.365076
847.374389,1110.308913,962.267725,-9959.241474
847.374709,222.061783,-814.226536,-9346.365076
847.375028,2146.597232,444.123565,-9959.241474
847.375348,2812.782580,518.144159,-9882.631924
847.375668,2368.659014,518.144159,-9729.412825
847.375988,296.082377,1110.308913,-9959.241474
847.376308,-814.226536,1702.473667,-9959.241474
847.376628,1628.453072,1850.514855,-10265.679673
847.376948,2590.720797,888.247130,-10342.289223
847.377268,2664.741391,888.247130,-10189.070123
847.377588,1924.535449,518.144159,-9882.631924
847.377908,888.247130,296.082377,-10342.289223
847.378228,148.041188,962.267725,-10112.460574
847.378548,148.041188,370.102971,-9729.412825
847.378868,1998.556043,222.061783,-10648.727422
847.379188,2960.823768,-444.123565,-9959.241474
847.379508,2294.638420,1258.350101,-11031.775171
847.379827,296.082377,2516.700203,-10572.117872
847.380147,-444.123565,3256.906145,-10725.336972
847.380467,-592.164754,2738.761985,-10572.117872
847.380787,518.144159,1184.329507,-10418.898773
847.381107,666.185348,-888.247130,-10189.070123
847.381427,1628.453072,-2812.782580,-9806.022374
847.381747,1406.391290,-2812.782580,-10035.851024
847.382067,2590.720797,-1406.391290,-10418.898773
847.382387,444.123565,1628.453072,-10342.289223
847.382707,-518.144159,1850.514855,-10265.679673
847.383027,-740.205942,1776.494261,-9576.193725
847.383347,-1406.391290,666.185348,-10035.851024
847.383667,-370.102971,-962.267725,-9882.631924
847.383987,222.061783,-2146.597232,-9806.022374
847.384307,1628.453072,-3478.967927,-9039.926876
847.384626,1258.350101,-2294.638420,-9729.412825
847.384946,-444.123565,-1628.453072,-9499.584175
847.385266,-1036.288319,-962.267725,-9499.584175
847.385586,-1036.288319,518.144159,-10112.460574
847.385906,-296.082377,222.061783,-9729.412825
847.386226,-1110.308913,296.082377,-9959.241474
847.386546,-814.226536,-2368.659014,-9806.022374
847.386866,-740.205942,-1998.556043,-10035.851024
847.387186,-2442.679609,-1554.432478,-9806.022374
847.387506,-888.247130,-1184.329507,-9806.022374
847.387826,-296.082377,0.000000,-10648.727422
847.388146,-962.267725,148.041188,-10265.679673
847.388466,-1110.308913,0.000000,-10418.898773
847.388786,-962.267725,-888.247130,-10035.851024
847.389106,-666.185348,-148.041188,-10495.508323
847.389425,222.061783,888.247130,-10725.336972
847.389745,814.226536,740.205942,-10572.117872
847.390065,2294.638420,-74.020594,-11261.603821
847.390385,1924.535449,-1332.370696,-10189.070123
847.390705,0.000000,-814.226536,-10495.508323
847.391025,592.164754,-592.164754,-10495.508323
847.391345,222.061783,148.041188,-9959.241474
847.391665,-888.247130,1036.288319,-9959.241474
847.391985,-1406.391290,1628.453072,-9806.022374
847.392305,74.020594,-148.041188,-10801.946522
847.392625,962.267725,-888.247130,-9499.584175
847.392945,1480.411884,148.041188,-9346.365076
847.393265,2072.576638,0.000000,-9652.803275
847.393585,1998.556043,222.061783,-10189.070123
847.393905,222.061783,518.144159,-9806.022374
847.394224,-296.082377,-518.144159,-9422.974625
847.394544,1110.308913,740.205942,-9729.412825
847.394864,1480.411884,2072.576638,-10189.070123
847.395184,2368.659014,2442.679609,-10189.070123
847.395504,2664.741391,666.185348,-9806.022374
847.395824,1628.453072,814.226536,-10035.851024
847.396144,1258.350101,-370.102971,-9806.022374
847.396464,444.123565,592.164754,-10035.851024
847.396784,370.102971,666.185348,-10035.851024
847.397104,740.205942,1332.370696,-9959.241474
847.397424,1480.411884,2146.597232,-10112.460574
847.397744,2368.659014,3034.844362,-10801.946522
847.398064,2146.597232,3256.906145,-10418.898773
847.398384,1776.494261,3404.947333,-11031.775171
847.398704,0.000000,2886.803174,-11338.213370
847.399023,296.082377,740.205942,-10342.289223
847.399343,1702.473667,-592.164754,-10342.289223
847.399663,1184.329507,-888.247130,-10035.851024
847.399983,2146.597232,370.102971,-10112.460574
847.400303,1480.411884,2442.679609,-10495.508323
847.400623,888.247130,4663.297435,-10342.289223
847.400943,74.020594,4515.256246,-9806.022374
847.401263,296.082377,2442.679609,-10572.117872
847.401583,888.247130,-1110.308913,-9806.022374
847.401903,962.267725,-1924.535449,-9959.241474
847.402223,1184.329507,-1776.494261,-9499.584175
847.402543,296.082377,444.123565,-10265.679673
847.402863,-1184.329507,2368.659014,-9346.365076
847.403183,-2368.659014,3330.926739,-9652.803275
847.403503,-814.226536,2442.679609,-10035.851024
847.403822,296.082377,-296.082377,-10035.851024
847.404142,814.226536,-1998.556043,-9652.803275
847.404462,2072.576638,-1998.556043,-9806.022374
847.404782,1850.514855,-962.267725,-9576.193725
847.405102,296.082377,74.020594,-9652.803275
847.405422,-1332.370696,1036.288319,-9729.412825
847.405742,-1184.329507,1480.411884,-10035.851024
847.406062,518.144159,592.164754,-10112.460574
847.406382,148.041188,-148.041188,-10189.070123
847.406702,-296.082377,-518.144159,-9959.241474
847.407022,-296.082377,-1036.288319,-10189.070123
847.407342,518.144159,-1036.288319,-9959.241474
847.407663,222.061783,-1184.329507,-10035.851024
847.407983,666.185348,-740.205942,-10572.117872
847.408303,-592.164754,-370.102971,-9959.241474
847.408623,1258.350101,-962.267725,-10342.289223
847.408943,1110.308913,-1036.288319,-9806.022374
847.409263,962.267725,296.082377,-11108.384721
847.409583,74.020594,888.247130,-9959.241474
847.409903,-740.205942,1110.308913,-10342.289223
847.410223,296.082377,518.144159,-10648.727422
847.410543,1258.350101,0.000000,-10342.289223
847.410863,666.185348,-1258.350101,-10648.727422
847.411183,1110.308913,-2590.720797,-10035.851024
847.411503,1036.288319,-888.247130,-9576.193725
847.411823,-148.041188,296.082377,-9959.241474
847.412143,-740.205942,1332.370696,-9959.241474
847.412463,0.000000,444.123565,-10572.117872
847.412783,1184.329507,-814.226536,-10955.165621
847.413103,666.185348,-2072.576638,-9882.631924
847.413424,222.061783,-2664.741391,-10035.851024
847.413744,740.205942,-666.185348,-9959.241474
847.414064,-296.082377,740.205942,-9959.241474
847.414384,-2516.700203,2812.782580,-10035.851024
847.414704,-592.164754,2072.576638,-10265.679673
847.415024,74.020594,-148.041188,-10189.070123
847.415344,0.000000,-814.226536,-10035.851024
847.415664,666.185348,-888.247130,-10189.070123
847.415984,740.205942,-222.061783,-10112.460574
847.416304,1924.535449,592.164754,-10418.898773
847.416624,1036.288319,1480.411884,-10342.289223
847.416944,814.226536,2368.659014,-10572.117872
847.417264,1184.329507,2072.576638,-10725.336972
847.417584,1110.308913,2294.638420,-10572.117872
847.417904,1924.535449,1850.514855,-10495.508323
847.418224,1702.473667,1628.453072,-10265.679673
847.418544,444.123565,370.102971,-9882.631924
847.418864,-222.061783,222.061783,-10112.460574
847.419185,444.123565,-962.267725,-10265.679673
847.419505,888.247130,0.000000,-10035.851024
847.419825,1480.411884,888.247130,-10572.117872
847.420145,2368.659014,2664.741391,-10035.851024
847.420465,2146.597232,3701.029710,-10648.727422
847.420785,1110.308913,3552.988522,-10189.070123
847.421105,1184.329507,1998.556043,-10035.851024
847.421425,1628.453072,148.041188,-10035.851024
847.421745,1998.556043,-222.061783,-9576.193725
847.422065,370.102971,0.000000,-9882.631924
847.422385,-444.123565,148.041188,-9346.365076
847.422705,-222.061783,1110.308913,-9422.974625
847.423025,-296.082377,370.102971,-9116.536426
847.423345,0.000000,222.061783,-9269.755526
847.423665,592.164754,222.061783,-9729.412825
847.423985,1332.370696,814.226536,-9882.631924
847.424305,444.123565,370.102971,-9882.631924
847.424625,148.041188,592.164754,-9882.631924
847.424946,370.102971,296.082377,-9959.241474
847.425266,-518.144159,-222.061783,-9806.022374
847.425586,-1184.329507,-370.102971,-9806.022374
847.425906,-148.041188,-666.185348,-10342.289223
847.426226,296.082377,-148.041188,-10265.679673
847.426546,0.000000,-444.123565,-10725.336972
847.426866,-444.123565,-518.144159,-10265.679673
847.427186,-518.144159,592.164754,-10648.727422
847.427506,-666.185348,666.185348,-10265.679673
847.427826,-1110.308913,666.185348,-10265.679673
847.428146,1184.329507,-370.102971,-10648.727422
847.428466,2812.782580,-962.267725,-10418.898773
847.428786,1924.535449,-888.247130,-10801.946522
847.429106,1332.370696,-296.082377,-10572.117872
847.429426,2146.597232,592.164754,-10418.898773
847.429746,1036.288319,1258.350101,-10342.289223
847.430066,0.000000,1332.370696,-9422.974625
847.430386,-962.267725,-148.041188,-10418.898773
847.430707,-296.082377,-1406.391290,-9806.022374
847.431027,666.185348,-1998.556043,-9729.412825
847.431347,1776.494261,-1628.453072,-9959.241474
847.431667,1776.494261,-148.041188,-9806.022374
847.431987,814.226536,0.000000,-9959.241474
847.432307,1406.391290,-148.041188,-9576.193725
847.432627,2368.659014,-1258.350101,-9576.193725
847.432947,2220.617826,-1628.453072,-9959.241474
847.433267,1036.288319,-1110.308913,-9806.022374
847.433587,-1480.411884,-962.267725,-9499.584175
847.433907,-370.102971,-222.061783,-10035.851024
847.434227,1110.308913,-1036.288319,-9116.536426
847.434547,962.267725,-1998.556043,-9346.365076
847.434867,-518.144159,-2072.576638,-9729.412825
847.435187,-1480.411884,-1406.391290,-10112.460574
847.435507,-1184.329507,-148.041188,-9652.803275
847.435827,-1702.473667,1480.411884,-10035.851024
847.436147,-1554.432478,962.267725,-10112.460574
847.436468,-1998.556043,-222.061783,-9729.412825
847.436788,-1110.308913,-444.123565,-10342.289223
847.437108,370.102971,-444.123565,-10035.851024
847.437428,2072.576638,592.164754,-10418.898773
847.437748,2442.679609,1036.288319,-10955.165621
847.438068,1554.432478,2368.659014,-10418.898773
847.438388,-666.185348,3034.844362,-10801.946522
847.438708,-2664.741391,2442.679609,-10265.679673
847.439028,-3404.947333,814.226536,-9882.631924
847.439348,-1850.514855,-814.226536,-10189.070123
847.439668,888.247130,-1702.473667,-9882.631924
847.439988,1850.514855,-1184.329507,-10035.851024
847.440308,1332.370696,444.123565,-10342.289223
847.440628,1184.329507,2812.782580,-10418.898773
847.440948,592.164754,4145.153275,-10495.508323
847.441268,1776.494261,4219.173869,-10342.289223
847.441588,2738.761985,2146.597232,-10189.070123
847.441908,2442.679609,-370.102971,-10265.679673
847.442229,2220.617826,-518.144159,-10342.289223
847.442549,1110.308913,-888.247130,-9806.022374
847.442869,1850.514855,1998.556043,-12027.699319
847.443189,814.226536,2220.617826,-9806.022374
847.443509,222.061783,2294.638420,-10112.460574
847.443829,1036.288319,1554.432478,-9652.803275
847.444149,2146.597232,592.164754,-9576.193725
847.444469,1184.329507,222.061783,-10035.851024
847.444789,1776.494261,740.205942,-9806.022374
847.445109,1184.329507,296.082377,-9882.631924
847.445429,1184.329507,2072.576638,-10418.898773
847.445749,1110.308913,2664.741391,-9729.412825
847.446069,444.123565,3108.864956,-10725.336972
847.446389,444.123565,888.247130,-9806.022374
847.446709,148.041188,222.061783,-10955.165621
847.447029,0.000000,962.267725,-10189.070123
847.447349,296.082377,0.000000,-10648.727422
847.447669,0.000000,444.123565,-9652.803275
847.447990,-740.205942,592.164754,-10035.851024
847.448310,-592.164754,444.123565,-11108.384721
847.448630,888.247130,1850.514855,-10572.117872
847.448950,1776.494261,0.000000,-10418.898773
847.449270,1480.411884,1258.350101,-10112.460574
847.449590,1776.494261,2368.659014,-11108.384721
847.449910,-740.205942,2146.597232,-10418.898773
847.450230,-1258.350101,-518.144159,-9806.022374
847.450550,-1036.288319,-1702.473667,-9806.022374
847.450870,222.061783,-1850.514855,-9729.412825
847.451190,888.247130,-2886.803174,-9576.193725
847.451510,2072.576638,-962.267725,-9806.022374
847.451830,666.185348,1702.473667,-10265.679673
847.452150,592.164754,1998.556043,-9882.631924
847.452470,0.000000,1332.370696,-9499.584175
847.452790,888.247130,592.164754,-9882.631924
847.453110,1184.329507,-1332.370696,-9806.022374
847.453430,444.123565,-3627.009116,-9806.022374
847.453751,-592.164754,-1998.556043,-9652.803275
847.454071,814.226536,-1184.329507,-9882.631924
847.454391,1184.329507,666.185348,-9499.584175
847.454711,-1110.308913,518.144159,-9959.241474
847.455031,-1998.556043,888.247130,-10035.851024
847.455351,-1332.370696,0.000000,-9959.241474
847.455671,1110.308913,-666.185348,-10342.289223
847.455991,962.267725,-1480.411884,-10342.289223
847.456311,-518.144159,-1628.453072,-10725.336972
847.456631,-518.144159,-1258.350101,-9806.022374
847.456951,-592.164754,-148.041188,-10189.070123
847.457271,1184.329507,0.000000,-10342.289223
847.457591,1110.308913,0.000000,-10955.165621
847.457911,1258.350101,-962.267725,-10572.117872
847.458231,518.144159,666.185348,-10648.727422
847.458551,-444.123565,1036.288319,-10878.556072
847.458871,-1702.473667,962.267725,-10189.070123
847.459191,-3182.885551,-370.102971,-10112.460574
847.459512,-1036.288319,-962.267725,-10112.460574
847.459832,2590.720797,-962.267725,-10265.679673
847.460152,1998.556043,-666.185348,-10648.727422
847.460472,1480.411884,-296.082377,-9882.631924
847.460792,0.000000,1036.288319,-10112.460574
847.461112,0.000000,2294.638420,-9806.022374
847.461432,-148.041188,2368.659014,-9652.803275
847.461752,296.082377,-592.164754,-9576.193725
847.462072,-370.102971,-1554.432478,-9729.412825
847.462392,888.247130,-2146.597232,-9499.584175
847.462712,2812.782580,518.144159,-8273.831378
847.463032,2368.659014,2516.700203,-10112.460574
847.463352,2072.576638,3552.988522,-9806.022374
847.463672,0.000000,3034.844362,-9269.755526
847.463992,370.102971,0.000000,-9422.974625
847.464312,2146.597232,-2294.638420,-9116.536426
847.464632,1702.473667,-4515.256246,-9346.365076
847.464952,2220.617826,-2664.741391,-9422.974625
847.465273,1184.329507,1702.473667,-10572.117872
847.465593,1776.494261,5181.441594,-10955.165621
847.465913,888.247130,6587.832884,-10572.117872
847.466233,0.000000,5477.523971,-11108.384721
847.466553,222.061783,3256.906145,-10648.727422
847.466873,1480.411884,0.000000,-11184.994271
847.467193,1628.453072,-2072.576638,-10955.165621
847.467513,1184.329507,-1998.556043,-10418.898773
847.467833,-296.082377,666.185348,-10572.117872
847.468153,-518.144159,1776.494261,-10572.117872
847.468473,518.144159,2960.823768,-11031.775171
847.468793,888.247130,4293.194464,-11184.994271
847.469113,1036.288319,3034.844362,-10955.165621
847.469433,740.205942,1258.350101,-10572.117872
847.469753,2220.617826,-296.082377,-10572.117872
847.470073,740.205942,-740.205942,-10189.070123
847.470393,-1110.308913,-1406.391290,-9959.241474
847.470713,-592.164754,-592.164754,-9422.974625
847.471034,592.164754,0.000000,-9806.022374
847.471354,1554.432478,1036.288319,-10112.460574
847.471674,814.226536,962.267725,-9806.022374
847.471994,888.247130,-296.082377,-9806.022374
847.472314,0.000000,-444.123565,-9269.755526
847.472634,-1998.556043,444.123565,-9193.145976
847.472954,-1924.535449,-740.205942,-9499.584175
847.473274,-370.102971,-2442.679609,-9422.974625
847.473594,888.247130,-3330.926739,-9193.145976
847.473914,1184.329507,-1554.432478,-9806.022374
847.474234,1258.350101,666.185348,-9652.803275
847.474554,1036.288319,1480.411884,-9806.022374
847.474874,-148.041188,1554.432478,-9806.022374
847.475194,-740.205942,222.061783,-9806.022374
847.475514,0.000000,-2294.638420,-11338.213370
847.475834,1184.329507,-4515.256246,-9806.022374
847.476154,1184.329507,-3478.967927,-9959.241474
847.476474,1628.453072,-370.102971,-10878.556072
847.476795,814.226536,2294.638420,-10955.165621
847.477115,-1184.329507,3404.947333,-11644.651570
847.477435,-2368.659014,1406.391290,-10418.898773
847.477755,-666.185348,-592.164754,-10572.117872
847.478075,740.205942,-2442.679609,-10265.679673
847.478395,2738.761985,-3330.926739,-10189.070123
847.478715,2146.597232,-1850.514855,-10801.946522
847.479035,1110.308913,-888.247130,-10725.336972
847.479355,0.000000,444.123565,-10495.508323
847.479675,-1332.370696,1036.288319,-10572.117872
847.479995,-222.061783,0.000000,-10418.898773
847.480315,444.123565,0.000000,-10801.946522
847.480635,148.041188,370.102971,-10648.727422
847.480955,740.205942,0.000000,-10495.508323
847.481275,0.000000,592.164754,-10418.898773
847.481595,-888.247130,-222.061783,-9806.022374
847.481915,-962.267725,-814.226536,-9729.412825
847.482235,888.247130,370.102971,-9576.193725
847.482556,1110.308913,74.020594,-9652.803275
847.482876,1924.535449,962.267725,-9346.365076
847.483196,2072.576638,1628.453072,-9882.631924
847.483516,1702.473667,1998.556043,-9422.974625
847.483836,444.123565,1332.370696,-9576.193725
847.484156,0.000000,-592.164754,-9652.803275
847.484476,148.041188,-1480.411884,-9039.926876
847.484796,-518.144159,-1554.432478,-9269.755526
847.485116,740.205942,0.000000,-9499.584175
847.485436,2664.741391,2146.597232,-9959.241474
847.485756,2146.597232,3330.926739,-10725.336972
847.486076,518.144159,4441.235652,-10648.727422
847.486396,-666.185348,2664.741391,-10035.851024
847.486716,1110.308913,0.000000,-10265.679673
847.487036,3182.885551,-1776.494261,-10035.851024
847.487356,2442.679609,-888.247130,-10112.460574
847.487676,1406.391290,666.185348,-10342.289223
847.487996,0.000000,2812.782580,-10572.117872
847.488317,-2220.617826,5329.482782,-10418.898773
847.488637,-2368.659014,4219.173869,-11031.775171
847.488957,74.020594,2368.659014,-10495.508323
847.489277,1554.432478,444.123565,-10342.289223
847.489597,962.267725,-888.247130,-10572.117872
847.489917,0.000000,-888.247130,-9729.412825
847.490237,-1036.288319,-518.144159,-9652.803275
847.490557,-666.185348,814.226536,-9806.022374
847.490877,1036.288319,2368.659014,-9806.022374
847.491197,2442.679609,2294.638420,-10342.289223
847.491517,3627.009116,1702.473667,-9806.022374
847.491837,2738.761985,1110.308913,-9729.412825
847.492157,2590.720797,296.082377,-10189.070123
847.492477,814.226536,0.000000,-9729.412825
847.492797,-2220.617826,-962.267725,-9346.365076
847.493117,-3627.009116,-518.144159,-9422.974625
847.493437,-3330.926739,-740.205942,-9422.974625
847.493757,-1036.288319,0.000000,-9959.241474
847.494078,370.102971,888.247130,-9882.631924
847.494398,2072.576638,740.205942,-10189.070123
847.494718,1406.391290,1036.288319,-10342.289223
847.495038,962.267725,666.185348,-9882.631924
847.495358,444.123565,0.000000,-10265.679673
847.495678,296.082377,-962.267725,-10189.070123
847.495998,1184.329507,-1480.411884,-10112.460574
847.496318,1628.453072,-1406.391290,-10648.727422
847.496638,2294.638420,-814.226536,-10572.117872
847.496958,1332.370696,1332.370696,-9652.803275
847.497278,74.020594,2072.576638,-10801.946522
847.497598,0.000000,1924.535449,-10572.117872
847.497918,740.205942,148.041188,-10801.946522
847.498238,222.061783,-2368.659014,-9959.241474
847.498558,-740.205942,-3478.967927,-9806.022374
847.498878,518.144159,-2590.720797,-9959.241474
847.499198,962.267725,-370.102971,-10342.289223
847.499518,518.144159,1110.308913,-10112.460574
847.499839,-1036.288319,1702.473667,-10112.460574
847.500159,-222.061783,814.226536,-9959.241474
847.500479,1480.411884,-666.185348,-9959.241474
847.500799,1850.514855,-1036.288319,-9959.241474
847.501119,888.247130,-1850.514855,-10189.070123
847.501439,0.000000,-592.164754,-9576.193725
847.501759,-1036.288319,0.000000,-9959.241474
847.502079,-148.041188,-592.164754,-9652.803275
847.502399,814.226536,-814.226536,-9882.631924
847.502719,1258.350101,-1480.411884,-10112.460574
847.503039,1184.329507,-814.226536,-10189.070123
847.503359,1554.432478,-296.082377,-10342.289223
847.503679,0.000000,1184.329507,-10572.117872
847.503999,-1776.494261,1480.411884,-10112.460574
847.504319,-2294.638420,1184.329507,-10189.070123
847.504639,-1480.411884,444.123565,-10495.508323
847.504959,-888.247130,-962.267725,-10035.851024
847.505279,740.205942,-1332.370696,-10035.851024
847.505600,2812.782580,-962.267725,-10418.898773
847.505920,2738.761985,518.144159,-10648.727422
847.506240,444.123565,2146.597232,-10112.460574
847.506560,-1850.514855,2664.741391,-9346.365076
847.506880,-444.123565,1776.494261,-11644.651570
847.507200,592.164754,74.020594,-10342.289223
847.507520,592.164754,-740.205942,-9882.631924
847.507840,370.102971,0.000000,-10342.289223
847.508160,1406.391290,1184.329507,-10418.898773
847.508480,888.247130,2812.782580,-10572.117872
847.508800,0.000000,3256.906145,-9806.022374
847.509120,740.205942,2738.761985,-9882.631924
847.509440,1184.329507,1036.288319,-10112.460574
847.509760,1258.350101,740.205942,-9422.974625
847.510080,1110.308913,-1036.288319,-9729.412825
847.510400,2220.617826,-148.041188,-9576.193725
847.510720,1628.453072,1850.514855,-9806.022374
847.511040,592.164754,3478.967927,-10342.289223
847.511360,814.226536,4145.153275,-9806.022374
847.511680,1406.391290,3330.926739,-10265.679673
847.512001,1998.556043,3034.844362,-10342.289223
847.512321,1702.473667,1850.514855,-10418.898773
847.512641,592.164754,1110.308913,-10495.508323
847.512961,-1480.411884,-296.082377,-9729.412825
847.513281,-1628.453072,-592.164754,-9576.193725
847.513601,666.185348,444.123565,-9959.241474
847.513921,1998.556043,1850.514855,-9806.022374
847.514241,2664.741391,3108.864956,-10955.165621
847.514561,3108.864956,2368.659014,-10725.336972
847.514881,2738.761985,1110.308913,-10418.898773
847.515201,1036.288319,0.000000,-9806.022374
847.515521,-370.102971,-592.164754,-9499.584175
847.515841,-444.123565,-888.247130,-9882.631924
847.516161,370.102971,-814.226536,-9729.412825
847.516481,1406.391290,296.082377,-10112.460574
847.516801,2516.700203,444.123565,-10265.679673
847.517121,1480.411884,518.144159,-10801.946522
847.517441,-666.185348,592.164754,-10189.070123
847.517761,-2442.679609,222.061783,-10035.851024
847.518081,-1924.535449,-148.041188,-10112.460574
847.518401,-518.144159,-1776.494261,-9116.536426
847.518722,518.144159,-2368.659014,-10035.851024
847.519042,1628.453072,-1702.473667,-10112.460574
847.519362,1554.432478,-518.144159,-10342.289223
847.519682,592.164754,814.226536,-9959.241474
847.520002,-888.247130,1110.308913,-9806.022374
847.520322,-814.226536,370.102971,-10035.851024
847.520642,222.061783,-1776.494261,-9652.803275
847.520962,740.205942,-3256.906145,-9882.631924
847.521282,1850.514855,-3849.070898,-10342.289223
847.521602,962.267725,-2812.782580,-9806.022374
847.521922,74.020594,-1998.556043,-10035.851024
847.522242,-1776.494261,-296.082377,-9959.241474
847.522562,-1628.453072,222.061783,-10112.460574
847.522882,-296.082377,-296.082377,-10265.679673
847.523202,592.164754,-1480.411884,-10112.460574
847.523522,1258.350101,-3182.885551,-10418.898773
847.523842,814.226536,-3478.967927,-10342.289223
847.524162,-1332.370696,-3034.844362,-10035.851024
847.524482,-1628.453072,-2664.741391,-9959.241474
847.524802,-1184.329507,-888.247130,-10418.898773
847.525123,-370.102971,-814.226536,-10572.117872
847.525443,1332.370696,-814.226536,-10495.508323
847.525763,814.226536,-592.164754,-11184.994271
847.526083,444.123565,-222.061783,-10648.727422
847.526403,-1258.350101,444.123565,-9882.631924
847.526723,-1850.514855,666.185348,-10035.851024
847.527043,-592.164754,-222.061783,-10189.070123
847.527363,-370.102971,-1184.329507,-9959.241474
847.527683,296.082377,-1184.329507,-10035.851024
847.528003,1554.432478,-666.185348,-10648.727422
847.528323,2294.638420,1332.370696,-8963.317327
847.528643,1628.453072,3404.947333,-10035.851024
847.528963,-296.082377,4071.132681,-10189.070123
847.529283,222.061783,3404.947333,-10342.289223
847.529603,1554.432478,962.267725,-9806.022374
847.529923,1850.514855,-1406.391290,-9422.974625
847.530243,518.144159,-2220.617826,-9422.974625
847.530563,0.000000,-592.164754,-10035.851024
847.530883,1110.308913,592.164754,-9806.022374
847.531203,2146.597232,1924.535449,-9806.022374
847.531524,2368.659014,2072.576638,-9806.022374
847.531844,1702.473667,1850.514855,-9576.193725
847.532164,666.185348,1480.411884,-9806.022374
847.532484,1110.308913,1110.308913,-10112.460574
847.532804,888.247130,1332.370696,-9806.022374
847.533124,1332.370696,1628.453072,-9729.412825
847.533444,1554.432478,666.185348,-9499.584175
847.533764,2072.576638,1036.288319,-10035.851024
847.534084,444.123565,962.267725,-9959.241474
847.534404,-148.041188,2516.700203,-10035.851024
847.534724,0.000000,2590.720797,-10035.851024
847.535044,518.144159,2516.700203,-10112.460574
847.535364,518.144159,1554.432478,-10035.851024
847.535684,296.082377,1406.391290,-9882.631924
847.536004,444.123565,1036.288319,-10342.289223
847.536324,0.000000,1554.432478,-10035.851024
847.536644,-222.061783,2368.659014,-10189.070123
847.536964,814.226536,1998.556043,-10648.727422
847.537284,2072.576638,2442.679609,-10648.727422
847.537604,592.164754,2220.617826,-10189.070123
