#time,accel_x,accel_y,accel_z
827.893222,1184.329507,-296.082377,-10112.460574
827.893542,592.164754,148.041188,-10265.679673
827.893862,444.123565,0.000000,-10035.851024
827.894183,370.102971,148.041188,-10112.460574
827.894503,296.082377,444.123565,-10112.460574
827.894823,222.061783,666.185348,-9959.241474
827.895143,444.123565,370.102971,-10189.070123
827.895463,370.102971,444.123565,-10112.460574
827.895784,666.185348,370.102971,-10342.289223
827.896104,888.247130,0.000000,-10035.851024
827.896424,740.205942,148.041188,-10189.070123
827.896744,592.164754,74.020594,-9959.241474
827.897064,592.164754,222.061783,-10035.851024
827.897385,74.020594,370.102971,-10035.851024
827.897705,296.082377,518.144159,-10495.508323
827.898025,370.102971,296.082377,-9806.022374
827.898345,814.226536,296.082377,-10112.460574
827.898665,962.267725,222.061783,-10418.898773
827.898986,814.226536,74.020594,-9959.241474
827.899306,0.000000,74.020594,-10035.851024
827.899626,296.082377,0.000000,-9806.022374
827.899946,740.205942,0.000000,-9959.241474
827.900266,666.185348,296.082377,-9116.536426
827.900586,74.020594,0.000000,-10035.851024
827.900907,370.102971,0.000000,-10112.460574
827.901227,592.164754,444.123565,-10189.070123
827.901547,592.164754,740.205942,-10189.070123
827.901867,148.041188,814.226536,-10189.070123
827.902187,-148.041188,296.082377,-10342.289223
827.902508,0.000000,0.000000,-10035.851024
827.902828,0.000000,0.000000,-10189.070123
827.903148,0.000000,-222.061783,-10112.460574
827.903468,-444.123565,-592.164754,-10035.851024
827.903788,74.020594,-444.123565,-10035.851024
827.904109,74.020594,-370.102971,-10189.070123
827.904429,-296.082377,-222.061783,-10035.851024
827.904749,-592.164754,518.144159,-11568.042020
827.905069,-740.205942,-222.061783,-10035.851024
827.905389,-148.041188,-518.144159,-9882.631924
827.905709,-888.247130,-814.226536,-10035.851024
827.906030,-1332.370696,-1184.329507,-10495.508323
827.906350,-1258.350101,-1184.329507,-9959.241474
827.906670,-888.247130,-740.205942,-9959.241474
827.906990,-1036.288319,-518.144159,-9959.241474
827.907310,-1776.494261,-962.267725,-9959.241474
827.907631,-2220.617826,-1110.308913,-9806.022374
827.907951,-814.226536,-1406.391290,-10112.460574
827.908271,-296.082377,-962.267725,-10112.460574
827.908591,-1184.329507,-962.267725,-9806.022374
827.908911,-1924.535449,-1702.473667,-9652.803275
827.909232,-1258.350101,-1776.494261,-9959.241474
827.909552,-592.164754,-1554.432478,-9806.022374
827.909872,-1480.411884,-1776.494261,-9882.631924
827.910192,-2516.700203,-2590.720797,-9959.241474
827.910512,-2664.741391,-2960.823768,-9729.412825
827.910832,-2590.720797,-3256.906145,-9729.412825
827.911153,-1554.432478,-3330.926739,-9652.803275
827.911473,-1850.514855,-3552.988522,-10035.851024
827.911793,-2294.638420,-3552.988522,-9806.022374
827.912113,-1406.391290,-3034.844362,-9959.241474
827.912433,370.102971,-2368.659014,-10112.460574
827.912754,1184.329507,-1110.308913,-10495.508323
827.913074,74.020594,-1332.370696,-10342.289223
827.913394,-2072.576638,-1554.432478,-10572.117872
827.913714,-2960.823768,-2072.576638,-10342.289223
827.914034,-3923.091493,-2960.823768,-10342.289223
827.914355,-4737.318029,-4515.256246,-9959.241474
827.914675,-5551.544565,-5699.585753,-9422.974625
827.914995,-3627.009116,-6513.812290,-9729.412825
827.915315,-888.247130,-5477.523971,-10035.851024
827.915635,518.144159,-3701.029710,-10342.289223
827.915956,666.185348,-518.144159,-10572.117872
827.916276,888.247130,1554.432478,-10801.946522
827.916596,1554.432478,2146.597232,-10955.165621
827.916916,1332.370696,1480.411884,-10725.336972
827.917236,74.020594,-888.247130,-10495.508323
827.917556,-1406.391290,-3108.864956,-10265.679673
827.917877,-2738.761985,-4293.194464,-10112.460574
827.918197,-4737.318029,-4441.235652,-9882.631924
827.918517,-5773.606348,-4071.132681,-9576.193725
827.918837,-5255.462188,-4219.173869,-9193.145976
827.919157,-2368.659014,-4737.318029,-9116.536426
827.919478,296.082377,-4589.276840,-9576.193725
827.919798,1850.514855,-2960.823768,-9806.022374
827.920118,2442.679609,-518.144159,-9959.241474
827.920438,3923.091493,2368.659014,-9576.193725
827.920758,3923.091493,3108.864956,-10955.165621
827.921079,1924.535449,2590.720797,-10495.508323
827.921399,-2146.597232,0.000000,-10189.070123
827.921719,-5107.421000,-3108.864956,-9806.022374
827.922039,-6069.688724,-5699.585753,-9499.584175
827.922359,-3775.050304,-7105.977043,-8810.098227
827.922679,-3701.029710,-7105.977043,-9193.145976
827.923000,-3108.864956,-4885.359217,-8886.707777
827.923320,-2516.700203,-1850.514855,-9729.412825
827.923640,814.226536,222.061783,-10112.460574
827.923960,2368.659014,3330.926739,-10648.727422
827.924280,2368.659014,4737.318029,-11031.775171
827.924601,3108.864956,2738.761985,-11031.775171
827.924921,3182.885551,444.123565,-11031.775171
827.925241,222.061783,-518.144159,-10648.727422
827.925561,-3182.885551,-518.144159,-10418.898773
827.925881,-4367.215058,-1036.288319,-10342.289223
827.926202,-5699.585753,-1406.391290,-10035.851024
827.926522,-7105.977043,-3330.926739,-9806.022374
827.926842,-7846.182985,-5255.462188,-9116.536426
827.927162,-5403.503377,-6217.729913,-9422.974625
827.927482,-740.205942,-4737.318029,-10189.070123
827.927803,2738.761985,-2072.576638,-10112.460574
827.928123,3182.885551,1776.494261,-10495.508323
827.928443,1480.411884,3775.050304,-10572.117872
827.928763,1480.411884,5181.441594,-11108.384721
827.929083,2146.597232,4293.194464,-10878.556072
827.929403,1924.535449,666.185348,-10878.556072
827.929724,-666.185348,-2220.617826,-10495.508323
827.930044,-4367.215058,-5107.421000,-10189.070123
827.930364,-7994.224174,-6143.709319,-9116.536426
827.930684,-8068.244768,-5921.647536,-8963.317327
827.931004,-6809.894666,-5625.565159,-8427.050478
827.931325,-2886.803174,-5255.462188,-8810.098227
827.931645,1406.391290,-4219.173869,-9652.803275
827.931965,2442.679609,-2442.679609,-10189.070123
827.932285,2886.803174,444.123565,-10265.679673
827.932605,2886.803174,2442.679609,-10418.898773
827.932926,4145.153275,4737.318029,-10495.508323
827.933246,3034.844362,3997.112087,-9959.241474
827.933566,-222.061783,518.144159,-10955.165621
827.933886,-4145.153275,-4293.194464,-10112.460574
827.934206,-6957.935855,-7624.121203,-9729.412825
827.934526,-7476.080014,-8660.409521,-9269.755526
827.934847,-5921.647536,-8364.327145,-8886.707777
827.935167,-4959.379811,-6883.915261,-9269.755526
827.935487,-2886.803174,-4663.297435,-8886.707777
827.935807,-518.144159,-1850.514855,-10035.851024
827.936127,3034.844362,962.267725,-10035.851024
827.936448,5699.585753,1850.514855,-11261.603821
827.936768,4811.338623,3182.885551,-12104.308868
827.937088,1628.453072,2368.659014,-10801.946522
827.937408,-1258.350101,1258.350101,-12180.918418
827.937728,-3627.009116,-888.247130,-10035.851024
827.938049,-4959.379811,-4515.256246,-10342.289223
827.938369,-5477.523971,-5699.585753,-10035.851024
827.938689,-6809.894666,-6735.874072,-9193.145976
827.939009,-6365.771101,-6809.894666,-9039.926876
827.939329,-3404.947333,-5329.482782,-9422.974625
827.939649,592.164754,-2516.700203,-9959.241474
827.939970,2072.576638,666.185348,-10495.508323
827.940290,1406.391290,2368.659014,-10265.679673
827.940610,2072.576638,3182.885551,-10265.679673
827.940930,4737.318029,3182.885551,-10955.165621
827.941250,4589.276840,2442.679609,-10801.946522
827.941571,1702.473667,148.041188,-10572.117872
827.941891,-1998.556043,-2146.597232,-9499.584175
827.942211,-3330.926739,-4293.194464,-9959.241474
827.942531,-3256.906145,-3849.070898,-9806.022374
827.942851,-5033.400406,-2886.803174,-9806.022374
827.943172,-4885.359217,-2812.782580,-8350.440928
827.943492,-2516.700203,-3108.864956,-9116.536426
827.943812,2220.617826,-2368.659014,-9269.755526
827.944132,4663.297435,-1110.308913,-9806.022374
827.944452,5773.606348,1480.411884,-10725.336972
827.944773,7476.080014,3627.009116,-10725.336972
827.945093,5477.523971,5773.606348,-11491.432470
827.945413,2294.638420,6217.729913,-10418.898773
827.945733,-1332.370696,3701.029710,-10189.070123
827.946053,-962.267725,0.000000,-9882.631924
827.946373,-814.226536,-3923.091493,-9576.193725
827.946694,-1776.494261,-5995.668130,-9499.584175
827.947014,-4293.194464,-6291.750507,-9116.536426
827.947334,-2442.679609,-3034.844362,-9652.803275
827.947654,296.082377,962.267725,-10342.289223
827.947974,2516.700203,3923.091493,-10648.727422
827.948295,2590.720797,5181.441594,-10342.289223
827.948615,4145.153275,4737.318029,-11031.775171
827.948935,4737.318029,3552.988522,-11108.384721
827.949255,3182.885551,3034.844362,-11108.384721
827.949575,740.205942,1998.556043,-9882.631924
827.949896,0.000000,0.000000,-10648.727422
827.950216,-222.061783,-740.205942,-10189.070123
827.950536,-4441.235652,-1702.473667,-10112.460574
827.950856,-7402.059420,-1554.432478,-9269.755526
827.951176,-5699.585753,-1924.535449,-9039.926876
827.951496,0.000000,-444.123565,-9806.022374
827.951817,4515.256246,1332.370696,-9806.022374
827.952137,4737.318029,1776.494261,-9806.022374
827.952457,5329.482782,2516.700203,-10342.289223
827.952777,4663.297435,3478.967927,-10495.508323
827.953097,1628.453072,4737.318029,-10035.851024
827.953418,-444.123565,4219.173869,-9422.974625
827.953738,-666.185348,1554.432478,-9806.022374
827.954058,-444.123565,-2368.659014,-9806.022374
827.954378,-2368.659014,-3849.070898,-9422.974625
827.954698,-4441.235652,-4441.235652,-9193.145976
827.955018,-2590.720797,-3182.885551,-9193.145976
827.955339,222.061783,-296.082377,-9882.631924
827.955659,1480.411884,1924.535449,-10112.460574
827.955979,1480.411884,2664.741391,-10112.460574
827.956299,2738.761985,1850.514855,-10342.289223
827.956619,4811.338623,1036.288319,-10342.289223
827.956940,4811.338623,1702.473667,-10418.898773
827.957260,4071.132681,2146.597232,-9499.584175
827.957580,2516.700203,1924.535449,-11184.994271
827.957900,1406.391290,1554.432478,-11184.994271
827.958220,-3404.947333,222.061783,-10112.460574
827.958541,-3627.009116,-1184.329507,-10418.898773
827.958861,-4959.379811,-3627.009116,-9729.412825
827.959181,-3034.844362,-3404.947333,-10112.460574
827.959501,-2294.638420,-2368.659014,-10035.851024
827.959821,74.020594,-2442.679609,-10112.460574
827.960141,3256.906145,-666.185348,-9959.241474
827.960462,4515.256246,1554.432478,-10878.556072
827.960782,4367.215058,3182.885551,-10725.336972
827.961102,2738.761985,3330.926739,-10265.679673
827.961422,2368.659014,1258.350101,-10801.946522
827.961742,518.144159,-1554.432478,-10112.460574
827.962063,-2146.597232,-3182.885551,-10342.289223
827.962383,-4367.215058,-3849.070898,-8656.879127
827.962703,-3997.112087,-2442.679609,-9652.803275
827.963023,-2738.761985,0.000000,-9806.022374
827.963343,-2442.679609,-814.226536,-9806.022374
827.963663,-1850.514855,-2960.823768,-9269.755526
827.963984,-1110.308913,-4219.173869,-9116.536426
827.964304,1480.411884,-2590.720797,-9422.974625
827.964624,2442.679609,1258.350101,-10265.679673
827.964944,2960.823768,2294.638420,-9882.631924
827.965264,4367.215058,2294.638420,-10418.898773
827.965585,3701.029710,2960.823768,-11184.994271
827.965905,1406.391290,962.267725,-12104.308868
827.966225,-962.267725,-1776.494261,-10265.679673
827.966545,-592.164754,-3404.947333,-10035.851024
827.966865,-2738.761985,-4293.194464,-9959.241474
827.967185,-3478.967927,-2516.700203,-10035.851024
827.967506,-1850.514855,-370.102971,-9882.631924
827.967826,-592.164754,1998.556043,-10725.336972
827.968146,740.205942,3034.844362,-10801.946522
827.968466,1036.288319,2812.782580,-10801.946522
827.968786,3108.864956,1924.535449,-10342.289223
827.969107,5329.482782,1924.535449,-10648.727422
827.969427,3701.029710,1998.556043,-10725.336972
827.969747,1628.453072,1480.411884,-10035.851024
827.970067,222.061783,1110.308913,-10112.460574
827.970387,592.164754,518.144159,-10112.460574
827.970707,0.000000,888.247130,-10112.460574
827.971028,-1850.514855,-296.082377,-10342.289223
827.971348,-1702.473667,-1628.453072,-9576.193725
827.971668,-444.123565,-3404.947333,-9806.022374
827.971988,1480.411884,-2368.659014,-9806.022374
827.972308,1554.432478,74.020594,-9576.193725
827.972629,2664.741391,2220.617826,-10035.851024
827.972949,3627.009116,4737.318029,-10265.679673
827.973269,3775.050304,5033.400406,-10878.556072
827.973589,1924.535449,3034.844362,-10418.898773
827.973909,74.020594,148.041188,-10112.460574
827.974230,-1110.308913,-2072.576638,-10112.460574
827.974550,-2072.576638,-1924.535449,-9729.412825
827.974870,-1702.473667,-2368.659014,-9422.974625
827.975190,-592.164754,-1110.308913,-9499.584175
827.975510,0.000000,518.144159,-9882.631924
827.975830,148.041188,666.185348,-9729.412825
827.976151,-592.164754,1554.432478,-10112.460574
827.976471,222.061783,0.000000,-9346.365076
827.976791,1628.453072,-444.123565,-10495.508323
827.977111,1998.556043,148.041188,-9499.584175
827.977431,1554.432478,296.082377,-10265.679673
827.977752,2516.700203,4145.153275,-10189.070123
827.978072,1480.411884,4219.173869,-10648.727422
827.978392,444.123565,1924.535449,-10801.946522
827.978712,-370.102971,0.000000,-9269.755526
827.979032,-1406.391290,-3552.988522,-9576.193725
827.979352,-1258.350101,-4293.194464,-9806.022374
827.979673,-1850.514855,-3552.988522,-9346.365076
827.979993,-1406.391290,-962.267725,-9499.584175
827.980313,1036.288319,2442.679609,-9116.536426
827.980633,3182.885551,3478.967927,-10189.070123
827.980953,3256.906145,3330.926739,-10495.508323
827.981274,2664.741391,518.144159,-9959.241474
827.981594,2220.617826,-962.267725,-9729.412825
827.981914,2294.638420,-2294.638420,-9806.022374
827.982234,740.205942,-814.226536,-10035.851024
827.982554,-814.226536,370.102971,-9729.412825
827.982874,296.082377,222.061783,-9806.022374
827.983195,-444.123565,444.123565,-10189.070123
827.983515,-1332.370696,592.164754,-10112.460574
827.983835,-1628.453072,444.123565,-10112.460574
827.984155,296.082377,-444.123565,-10265.679673
827.984475,1924.535449,-962.267725,-10342.289223
827.984796,1554.432478,-444.123565,-9806.022374
827.985116,1036.288319,1702.473667,-10495.508323
827.985436,1258.350101,2664.741391,-10878.556072
827.985756,148.041188,1036.288319,-10495.508323
827.986076,740.205942,962.267725,-10495.508323
827.986396,-222.061783,1480.411884,-10035.851024
827.986717,740.205942,-518.144159,-10648.727422
827.987037,814.226536,-1406.391290,-10342.289223
827.987357,-1332.370696,-1628.453072,-9806.022374
827.987677,-2738.761985,-1258.350101,-9806.022374
827.987997,-2146.597232,-666.185348,-9806.022374
827.988318,-444.123565,74.020594,-10035.851024
827.988638,814.226536,-1036.288319,-9882.631924
827.988958,74.020594,-1628.453072,-9806.022374
827.989278,666.185348,-222.061783,-9959.241474
827.989598,1628.453072,1924.535449,-10189.070123
827.989919,1184.329507,2886.803174,-10265.679673
827.990239,296.082377,2368.659014,-10342.289223
827.990559,0.000000,518.144159,-10265.679673
827.990879,-962.267725,-888.247130,-10189.070123
827.991199,-2442.679609,-1332.370696,-9806.022374
827.991519,-2664.741391,-2220.617826,-10265.679673
827.991840,-962.267725,-1554.432478,-9959.241474
827.992160,1184.329507,370.102971,-10112.460574
827.992480,1850.514855,1332.370696,-9806.022374
827.992800,2294.638420,2368.659014,-10418.898773
827.993120,2590.720797,2368.659014,-11644.651570
827.993441,2220.617826,1628.453072,-10648.727422
827.993761,2368.659014,2442.679609,-10418.898773
827.994081,1554.432478,1554.432478,-10265.679673
827.994401,2812.782580,-1258.350101,-10648.727422
827.994721,1480.411884,-1776.494261,-10035.851024
827.995041,-518.144159,222.061783,-10418.898773
827.995362,-148.041188,2368.659014,-9882.631924
827.995682,1628.453072,1776.494261,-10801.946522
827.996002,2220.617826,370.102971,-10265.679673
827.996322,0.000000,-888.247130,-9806.022374
827.996642,222.061783,-814.226536,-9806.022374
827.996963,2442.679609,-888.247130,-10112.460574
827.997283,3849.070898,592.164754,-9959.241474
827.997603,3034.844362,2812.782580,-10418.898773
827.997923,2516.700203,4145.153275,-10495.508323
827.998243,2590.720797,4515.256246,-10189.070123
827.998563,1628.453072,2294.638420,-10342.289223
827.998884,0.000000,-296.082377,-9269.755526
827.999204,-1036.288319,-1924.535449,-9729.412825
827.999524,-740.205942,-2960.823768,-9576.193725
827.999844,-1036.288319,-2442.679609,-9193.145976
828.000164,-1628.453072,-1406.391290,-9499.584175
828.000485,592.164754,666.185348,-9652.803275
828.000805,1258.350101,2294.638420,-10112.460574
828.001125,1184.329507,3404.947333,-10342.289223
828.001445,1036.288319,3627.009116,-9959.241474
828.001765,1406.391290,888.247130,-10572.117872
828.002086,1332.370696,-1258.350101,-10189.070123
828.002406,-888.247130,-2738.761985,-9806.022374
828.002726,-1480.411884,-814.226536,-9652.803275
828.003046,-666.185348,814.226536,-9806.022374
828.003366,592.164754,2146.597232,-10342.289223
828.003686,222.061783,2146.597232,-10418.898773
828.004007,-1480.411884,888.247130,-9806.022374
828.004327,148.041188,-1406.391290,-9959.241474
828.004647,518.144159,-1998.556043,-10265.679673
828.004967,-148.041188,-888.247130,-9959.241474
828.005287,222.061783,1702.473667,-10265.679673
828.005608,666.185348,4071.132681,-10801.946522
828.005928,1998.556043,2738.761985,-10342.289223
828.006248,222.061783,2220.617826,-10878.556072
828.006568,-962.267725,1332.370696,-10189.070123
828.006888,0.000000,-592.164754,-10112.460574
828.007208,1184.329507,-2220.617826,-10342.289223
828.007529,518.144159,-1480.411884,-9652.803275
828.007849,-888.247130,-1258.350101,-9806.022374
828.008169,0.000000,-888.247130,-9806.022374
828.008489,2368.659014,962.267725,-10265.679673
828.008809,2664.741391,2072.576638,-10342.289223
828.009130,1776.494261,1258.350101,-10035.851024
828.009450,2442.679609,-592.164754,-10035.851024
828.009770,1850.514855,-1258.350101,-9499.584175
828.010090,0.000000,-1110.308913,-9806.022374
828.010410,-1628.453072,-1332.370696,-9422.974625
828.010730,-666.185348,-1258.350101,-9806.022374
828.011051,-296.082377,148.041188,-10112.460574
828.011371,-1406.391290,1258.350101,-9806.022374
828.011691,-370.102971,296.082377,-9959.241474
828.012011,1332.370696,-962.267725,-10418.898773
828.012331,1998.556043,-2368.659014,-10035.851024
828.012652,1110.308913,-2664.741391,-9882.631924
828.012972,814.226536,-2146.597232,-9499.584175
828.013292,888.247130,-740.205942,-10035.851024
828.013612,296.082377,1184.329507,-10801.946522
828.013932,-592.164754,1998.556043,-10265.679673
828.014252,222.061783,2072.576638,-9806.022374
828.014573,1554.432478,740.205942,-10955.165621
828.014893,74.020594,-518.144159,-10265.679673
828.015213,-1702.473667,-1480.411884,-9959.241474
828.015533,-2442.679609,-1480.411884,-9882.631924
828.015853,-888.247130,-1332.370696,-9729.412825
828.016174,-592.164754,-888.247130,-10265.679673
828.016494,-1258.350101,-1036.288319,-9959.241474
828.016814,-148.041188,-1110.308913,-9806.022374
828.017134,2368.659014,-148.041188,-10955.165621
828.017454,2516.700203,740.205942,-10112.460574
828.017775,1184.329507,2664.741391,-10342.289223
828.018095,1998.556043,2590.720797,-10189.070123
828.018415,1110.308913,1924.535449,-10495.508323
828.018735,518.144159,2072.576638,-11031.775171
828.019055,-222.061783,1776.494261,-9882.631924
828.019375,0.000000,1110.308913,-10648.727422
828.019696,814.226536,-962.267725,-10189.070123
828.020016,296.082377,-814.226536,-9806.022374
828.020336,-370.102971,-148.041188,-9269.755526
828.020656,1406.391290,1110.308913,-10112.460574
828.020976,2368.659014,2442.679609,-10112.460574
828.021297,2442.679609,3108.864956,-10265.679673
828.021617,1184.329507,2886.803174,-10112.460574
828.021937,962.267725,2442.679609,-10418.898773
828.022257,2886.803174,444.123565,-10572.117872
828.022577,2368.659014,296.082377,-9576.193725
828.022897,666.185348,1998.556043,-9882.631924
828.023218,666.185348,1776.494261,-9806.022374
828.023538,1702.473667,-296.082377,-10112.460574
828.023858,1332.370696,-444.123565,-9959.241474
828.024178,0.000000,0.000000,-9882.631924
828.024498,0.000000,-222.061783,-10342.289223
828.024819,740.205942,148.041188,-10035.851024
828.025139,0.000000,1036.288319,-9806.022374
828.025459,0.000000,1554.432478,-9806.022374
828.025779,2294.638420,1850.514855,-9959.241474
828.026099,2738.761985,1258.350101,-10801.946522
828.026419,1480.411884,1332.370696,-10725.336972
828.026740,-962.267725,666.185348,-9806.022374
828.027060,-1480.411884,444.123565,-10572.117872
828.027380,-222.061783,592.164754,-10189.070123
828.027700,-1998.556043,1924.535449,-10112.460574
828.028020,-2960.823768,1258.350101,-9652.803275
828.028341,-1184.329507,1702.473667,-10189.070123
828.028661,1332.370696,370.102971,-10495.508323
828.028981,148.041188,-296.082377,-10495.508323
828.029301,814.226536,74.020594,-9729.412825
828.029621,1110.308913,222.061783,-10189.070123
828.029941,1776.494261,-222.061783,-10572.117872
828.030262,74.020594,1776.494261,-10035.851024
828.030582,-2516.700203,2442.679609,-9959.241474
828.030902,-1184.329507,1628.453072,-10265.679673
828.031222,814.226536,370.102971,-10189.070123
828.031542,2146.597232,-888.247130,-10418.898773
828.031863,888.247130,-962.267725,-9806.022374
828.032183,1628.453072,-1480.411884,-9959.241474
828.032503,1406.391290,-1184.329507,-10035.851024
828.032823,740.205942,-370.102971,-9729.412825
828.033143,-296.082377,296.082377,-9652.803275
828.033464,1480.411884,888.247130,-9882.631924
828.033784,1850.514855,1110.308913,-10495.508323
828.034104,1998.556043,592.164754,-10342.289223
828.034424,2886.803174,-296.082377,-10342.289223
828.034744,3552.988522,-888.247130,-10495.508323
828.035064,3627.009116,-814.226536,-10112.460574
828.035385,1628.453072,-296.082377,-10418.898773
828.035705,-2220.617826,148.041188,-9422.974625
828.036025,-370.102971,-740.205942,-9729.412825
828.036345,962.267725,-1036.288319,-9806.022374
828.036665,-296.082377,-666.185348,-10035.851024
828.036986,-296.082377,74.020594,-9729.412825
828.037306,2072.576638,-666.185348,-10878.556072
828.037626,1998.556043,0.000000,-9882.631924
828.037946,888.247130,1110.308913,-10189.070123
828.038266,-296.082377,1554.432478,-10035.851024
828.038586,592.164754,1702.473667,-10035.851024
828.038907,-592.164754,148.041188,-10189.070123
828.039227,-1258.350101,-1554.432478,-10189.070123
828.039547,-1776.494261,-2516.700203,-9346.365076
828.039867,-1184.329507,-2294.638420,-9116.536426
828.040187,-592.164754,740.205942,-9882.631924
828.040508,-2072.576638,2072.576638,-10418.898773
828.040828,-296.082377,2812.782580,-10572.117872
828.041148,296.082377,3256.906145,-10342.289223
828.041468,-1258.350101,1776.494261,-10265.679673
828.041788,-1184.329507,-592.164754,-10112.460574
828.042108,-1332.370696,-1776.494261,-9959.241474
828.042429,-888.247130,-2368.659014,-10035.851024
828.042749,-666.185348,-592.164754,-10112.460574
828.043069,222.061783,1406.391290,-9882.631924
828.043389,1406.391290,2442.679609,-10112.460574
828.043709,1480.411884,3627.009116,-10878.556072
828.044030,-148.041188,1702.473667,-10725.336972
828.044350,-370.102971,-1258.350101,-10189.070123
828.044670,814.226536,-1702.473667,-9806.022374
828.044990,1406.391290,-888.247130,-9959.241474
828.045310,3034.844362,1628.453072,-10801.946522
828.045631,2368.659014,3034.844362,-10035.851024
828.045951,2442.679609,4219.173869,-10265.679673
828.046271,2442.679609,3108.864956,-10418.898773
828.046591,1776.494261,3404.947333,-10495.508323
828.046911,0.000000,2146.597232,-9806.022374
828.047231,0.000000,-222.061783,-9422.974625
828.047552,1628.453072,-2368.659014,-9806.022374
828.047872,740.205942,-2368.659014,-9346.365076
828.048192,962.267725,-740.205942,-9499.584175
828.048512,1924.535449,1850.514855,-9729.412825
828.048832,2812.782580,4145.153275,-9882.631924
828.049153,2072.576638,3701.029710,-10648.727422
828.049473,-962.267725,2368.659014,-10189.070123
828.049793,-518.144159,-296.082377,-9499.584175
828.050113,666.185348,-1628.453072,-10189.070123
828.050433,1332.370696,-2368.659014,-9729.412825
828.050753,888.247130,-1406.391290,-9346.365076
828.051073,814.226536,148.041188,-10495.508323
828.051393,1554.432478,2368.659014,-10112.460574
828.051713,592.164754,1776.494261,-10342.289223
828.052034,-666.185348,518.144159,-9729.412825
828.052354,222.061783,-518.144159,-9959.241474
828.052674,1110.308913,-1702.473667,-10112.460574
828.052994,0.000000,-1406.391290,-10035.851024
828.053314,-1406.391290,-1036.288319,-9652.803275
828.053634,-666.185348,-444.123565,-9882.631924
828.053954,592.164754,0.000000,-10495.508323
828.054274,518.144159,1332.370696,-10189.070123
828.054594,-1554.432478,888.247130,-10035.851024
828.054915,-740.205942,518.144159,-10418.898773
828.055235,592.164754,148.041188,-10342.289223
828.055555,-148.041188,-444.123565,-10342.289223
828.055875,-962.267725,592.164754,-9729.412825
828.056195,1036.288319,0.000000,-10189.070123
828.056515,1702.473667,-666.185348,-10265.679673
828.056835,1258.350101,-444.123565,-9959.241474
828.057155,-148.041188,666.185348,-9959.241474
828.057475,666.185348,-1628.453072,-10035.851024
828.057796,2146.597232,-444.123565,-9882.631924
828.058116,0.000000,518.144159,-9806.022374
828.058436,-1332.370696,666.185348,-9729.412825
828.058756,1184.329507,-1628.453072,-9576.193725
828.059076,1406.391290,-1110.308913,-10648.727422
828.059396,1406.391290,-1924.535449,-9652.803275
828.059716,1036.288319,-1702.473667,-9652.803275
828.060036,1850.514855,-1258.350101,-9499.584175
828.060356,1998.556043,0.000000,-10112.460574
828.060676,888.247130,1406.391290,-10495.508323
828.060997,0.000000,592.164754,-10189.070123
828.061317,148.041188,-814.226536,-9959.241474
828.061637,148.041188,-296.082377,-10342.289223
828.061957,592.164754,-666.185348,-9806.022374
828.062277,518.144159,-296.082377,-10035.851024
828.062597,740.205942,-518.144159,-10725.336972
828.062917,814.226536,740.205942,-10112.460574
828.063237,0.000000,1628.453072,-10342.289223
828.063557,666.185348,2368.659014,-10878.556072
828.063878,0.000000,1480.411884,-10189.070123
828.064198,-222.061783,370.102971,-10572.117872
828.064518,-296.082377,-1184.329507,-9729.412825
828.064838,-1554.432478,-2146.597232,-9652.803275
828.065158,-296.082377,-1850.514855,-10112.460574
828.065478,-444.123565,74.020594,-9882.631924
828.065798,-1406.391290,1850.514855,-9806.022374
828.066118,518.144159,1702.473667,-10112.460574
828.066438,666.185348,1406.391290,-10189.070123
828.066759,-222.061783,888.247130,-10265.679673
828.067079,-1480.411884,74.020594,-9729.412825
828.067399,-370.102971,-1554.432478,-9576.193725
828.067719,2294.638420,-962.267725,-10035.851024
828.068039,1480.411884,-592.164754,-9499.584175
828.068359,-962.267725,1184.329507,-9652.803275
828.068679,-370.102971,3182.885551,-8963.317327
828.068999,1480.411884,2442.679609,-10572.117872
828.069319,1332.370696,1110.308913,-10035.851024
828.069640,0.000000,444.123565,-9806.022374
828.069960,148.041188,148.041188,-9806.022374
828.070280,1628.453072,-296.082377,-9959.241474
828.070600,1554.432478,1480.411884,-9806.022374
828.070920,370.102971,1850.514855,-9652.803275
828.071240,2442.679609,1850.514855,-10112.460574
828.071560,2886.803174,2368.659014,-10418.898773
828.071880,2072.576638,2146.597232,-10955.165621
828.072200,444.123565,1776.494261,-10265.679673
828.072520,814.226536,222.061783,-9959.241474
828.072841,1332.370696,-148.041188,-10189.070123
828.073161,0.000000,1258.350101,-10648.727422
828.073481,0.000000,2590.720797,-10265.679673
828.073801,1110.308913,2516.700203,-10495.508323
828.074121,2368.659014,2220.617826,-10648.727422
828.074441,2738.761985,1406.391290,-10878.556072
828.074761,518.144159,-592.164754,-10648.727422
828.075081,1776.494261,-1184.329507,-10572.117872
828.075401,666.185348,-518.144159,-9959.241474
828.075722,0.000000,2220.617826,-10418.898773
828.076042,-962.267725,3478.967927,-9806.022374
828.076362,444.123565,2664.741391,-10342.289223
828.076682,1850.514855,74.020594,-10112.460574
828.077002,1258.350101,-1702.473667,-9959.241474
828.077322,-296.082377,-2738.761985,-9193.145976
828.077642,0.000000,-3182.885551,-9806.022374
828.077962,-518.144159,-740.205942,-9806.022374
828.078282,-1480.411884,0.000000,-9652.803275
828.078603,-1332.370696,444.123565,-8656.879127
828.078923,148.041188,-740.205942,-9269.755526
828.079243,518.144159,-740.205942,-10189.070123
828.079563,222.061783,-666.185348,-10112.460574
828.079883,-592.164754,-740.205942,-9959.241474
828.080203,0.000000,-2072.576638,-10495.508323
828.080523,222.061783,-2886.803174,-9499.584175
828.080843,-592.164754,-2368.659014,-9422.974625
828.081163,-1924.535449,-222.061783,-9806.022374
828.081483,444.123565,1184.329507,-11108.384721
828.081804,1406.391290,2146.597232,-10801.946522
828.082124,962.267725,740.205942,-10725.336972
828.082444,222.061783,0.000000,-9806.022374
828.082764,962.267725,-1702.473667,-10725.336972
828.083084,1850.514855,-1258.350101,-10572.117872
828.083404,0.000000,74.020594,-10112.460574
828.083724,-296.082377,296.082377,-10648.727422
828.084044,1184.329507,962.267725,-10725.336972
828.084364,962.267725,370.102971,-10572.117872
828.084685,-370.102971,-740.205942,-10495.508323
828.085005,-592.164754,-1480.411884,-10265.679673
828.085325,2294.638420,-962.267725,-10801.946522
828.085645,2368.659014,296.082377,-10648.727422
828.085965,1036.288319,0.000000,-10572.117872
828.086285,296.082377,148.041188,-10418.898773
828.086605,148.041188,0.000000,-10495.508323
828.086925,148.041188,0.000000,-10418.898773
828.087245,0.000000,0.000000,-8886.707777
828.087566,-888.247130,518.144159,-10342.289223
828.087886,740.205942,-148.041188,-10495.508323
828.088206,888.247130,-2812.782580,-9729.412825
828.088526,-148.041188,-2886.803174,-9422.974625
828.088846,74.020594,-1480.411884,-8733.488677
828.089166,1924.535449,814.226536,-10035.851024
828.089486,1036.288319,2368.659014,-10265.679673
828.089806,-888.247130,2146.597232,-9882.631924
828.090126,-1258.350101,370.102971,-9576.193725
828.090447,0.000000,-1702.473667,-9806.022374
828.090767,-740.205942,-1850.514855,-8963.317327
828.091087,-370.102971,518.144159,-9576.193725
828.091407,444.123565,2590.720797,-9652.803275
828.091727,1258.350101,3108.864956,-9959.241474
828.092047,814.226536,2664.741391,-9959.241474
828.092367,-666.185348,-222.061783,-9806.022374
828.092687,518.144159,-2664.741391,-9652.803275
828.093007,2294.638420,-2516.700203,-9652.803275
828.093327,1184.329507,888.247130,-10265.679673
828.093648,1036.288319,3627.009116,-10112.460574
828.093968,814.226536,3627.009116,-10495.508323
828.094288,1776.494261,2442.679609,-10418.898773
828.094608,1554.432478,0.000000,-10495.508323
828.094928,74.020594,0.000000,-10342.289223
828.095248,518.144159,-148.041188,-10342.289223
828.095568,1036.288319,518.144159,-10418.898773
828.095888,74.020594,2146.597232,-9959.241474
828.096208,814.226536,1924.535449,-10035.851024
828.096529,1924.535449,1702.473667,-10265.679673
828.096849,1332.370696,1924.535449,-10572.117872
828.097169,1480.411884,1332.370696,-9576.193725
828.097489,0.000000,1184.329507,-9806.022374
828.097809,1924.535449,1332.370696,-10648.727422
828.098129,1776.494261,1258.350101,-10035.851024
828.098449,814.226536,444.123565,-10265.679673
828.098769,74.020594,1036.288319,-9806.022374
828.099089,740.205942,1184.329507,-9882.631924
828.099410,1036.288319,2220.617826,-10418.898773
828.099730,370.102971,1702.473667,-10035.851024
828.100050,666.185348,1184.329507,-10342.289223
828.100370,1406.391290,222.061783,-9882.631924
828.100690,1480.411884,74.020594,-9959.241474
828.101010,222.061783,740.205942,-10189.070123
828.101330,-1036.288319,1184.329507,-9652.803275
828.101650,74.020594,740.205942,-10418.898773
828.101970,666.185348,-518.144159,-9806.022374
828.102291,962.267725,-962.267725,-9959.241474
828.102611,-222.061783,-1850.514855,-9729.412825
828.102931,296.082377,-2442.679609,-9882.631924
828.103251,148.041188,-888.247130,-9959.241474
828.103571,-1332.370696,0.000000,-9882.631924
828.103891,-370.102971,296.082377,-9576.193725
828.104211,888.247130,-740.205942,-9806.022374
828.104531,444.123565,-1628.453072,-10572.117872
828.104851,518.144159,-1628.453072,-10112.460574
828.105171,518.144159,-1776.494261,-9959.241474
828.105492,1332.370696,-1480.411884,-10418.898773
828.105812,518.144159,666.185348,-10495.508323
828.106132,-1258.350101,1406.391290,-10342.289223
828.106452,-740.205942,1702.473667,-10265.679673
828.106772,1258.350101,1406.391290,-10725.336972
828.107092,1036.288319,1332.370696,-10725.336972
828.107412,0.000000,444.123565,-10572.117872
828.107732,148.041188,-1850.514855,-10035.851024
828.108052,1628.453072,-2294.638420,-10342.289223
828.108373,1480.411884,-1258.350101,-10189.070123
828.108693,74.020594,1332.370696,-9806.022374
828.109013,74.020594,1776.494261,-9959.241474
828.109333,518.144159,1924.535449,-10572.117872
828.109653,1850.514855,888.247130,-10418.898773
828.109973,1184.329507,-740.205942,-11491.432470
828.110293,888.247130,-1924.535449,-10112.460574
828.110613,962.267725,-2960.823768,-10035.851024
828.110933,518.144159,-2294.638420,-10035.851024
828.111254,-1554.432478,-740.205942,-9422.974625
828.111574,-1406.391290,962.267725,-10572.117872
828.111894,0.000000,296.082377,-10189.070123
828.112214,962.267725,74.020594,-10112.460574
828.112534,1258.350101,-518.144159,-10342.289223
828.112854,962.267725,-2294.638420,-9959.241474
828.113174,148.041188,-1110.308913,-10189.070123
828.113494,-370.102971,-1258.350101,-9729.412825
828.113814,-222.061783,518.144159,-10342.289223
828.114134,666.185348,2146.597232,-10112.460574
828.114455,1258.350101,1998.556043,-10495.508323
828.114775,-740.205942,2738.761985,-10955.165621
828.115095,-1554.432478,814.226536,-10112.460574
828.115415,-1554.432478,-1258.350101,-9882.631924
828.115735,-444.123565,-3108.864956,-9499.584175
828.116055,74.020594,-1332.370696,-9652.803275
828.116375,-1184.329507,1184.329507,-9806.022374
828.116695,444.123565,2590.720797,-10418.898773
828.117015,2220.617826,3256.906145,-10572.117872
828.117336,1406.391290,3404.947333,-11031.775171
828.117656,-1036.288319,2072.576638,-10189.070123
828.117976,0.000000,1184.329507,-10265.679673
828.118296,1406.391290,148.041188,-10418.898773
828.118616,1036.288319,-222.061783,-10189.070123
828.118936,518.144159,-370.102971,-9729.412825
828.119256,370.102971,-370.102971,-9729.412825
828.119576,1702.473667,1036.288319,-10418.898773
828.119896,1332.370696,2590.720797,-10495.508323
828.120217,296.082377,3256.906145,-10342.289223
828.120537,814.226536,2590.720797,-10495.508323
828.120857,1258.350101,666.185348,-10112.460574
828.121177,1702.473667,0.000000,-9959.241474
828.121497,1110.308913,-666.185348,-9652.803275
828.121817,2960.823768,370.102971,-9959.241474
828.122137,3701.029710,962.267725,-10418.898773
828.122457,2368.659014,1554.432478,-10189.070123
828.122777,444.123565,1850.514855,-9729.412825
828.123098,962.267725,518.144159,-9806.022374
828.123418,2146.597232,814.226536,-10189.070123
828.123738,1258.350101,74.020594,-9959.241474
828.124058,0.000000,296.082377,-9422.974625
828.124378,1998.556043,0.000000,-9959.241474
828.124698,2146.597232,0.000000,-10189.070123
828.125018,518.144159,0.000000,-10342.289223
828.125338,-1924.535449,1628.453072,-10112.460574
828.125658,518.144159,1998.556043,-10265.679673
828.125978,1184.329507,2516.700203,-11108.384721
828.126299,296.082377,1258.350101,-10418.898773
828.126619,-148.041188,0.000000,-9882.631924
828.126939,444.123565,-1332.370696,-10648.727422
828.127259,1110.308913,-444.123565,-10801.946522
828.127579,-370.102971,1110.308913,-11031.775171
828.127899,-2368.659014,2738.761985,-10648.727422
828.128219,-1332.370696,2368.659014,-10495.508323
828.128539,0.000000,1480.411884,-10265.679673
828.128859,592.164754,-444.123565,-10112.460574
828.129180,296.082377,-2664.741391,-9269.755526
828.129500,1110.308913,-3478.967927,-10265.679673
828.129820,222.061783,-3182.885551,-9652.803275
828.130140,0.000000,-1702.473667,-9729.412825
828.130460,-1406.391290,-296.082377,-9729.412825
828.130780,-148.041188,-592.164754,-9806.022374
828.131100,-148.041188,444.123565,-9882.631924
828.131420,-666.185348,370.102971,-8580.269578
828.131740,518.144159,1036.288319,-9652.803275
828.132061,2368.659014,-518.144159,-10035.851024
828.132381,2072.576638,-1776.494261,-9806.022374
828.132701,148.041188,-2960.823768,-9269.755526
828.133021,74.020594,-2368.659014,-9576.193725
828.133341,814.226536,-1406.391290,-9806.022374
828.133661,518.144159,592.164754,-10189.070123
828.133981,-296.082377,2590.720797,-10265.679673
828.134301,666.185348,3034.844362,-9576.193725
828.134621,1628.453072,1850.514855,-10418.898773
828.134942,1998.556043,222.061783,-10572.117872
828.135262,666.185348,-1628.453072,-10725.336972
828.135582,1258.350101,-3034.844362,-10035.851024
828.135902,666.185348,-2146.597232,-10189.070123
828.136222,74.020594,0.000000,-10648.727422
828.136542,-962.267725,2072.576638,-10342.289223
828.136862,1110.308913,2516.700203,-10878.556072
828.137182,1628.453072,2368.659014,-10572.117872
828.137502,370.102971,518.144159,-10955.165621
828.137822,0.000000,-592.164754,-10342.289223
828.138143,370.102971,-2442.679609,-10418.898773
828.138463,2442.679609,-1998.556043,-10035.851024
828.138783,1554.432478,-296.082377,-10495.508323
828.139103,0.000000,888.247130,-10035.851024
828.139423,296.082377,2368.659014,-10495.508323
828.139743,148.041188,1628.453072,-10801.946522
828.140063,222.061783,592.164754,-9959.241474
828.140383,-888.247130,-370.102971,-9576.193725
828.140703,-740.205942,-1480.411884,-9959.241474
828.141024,740.205942,-814.226536,-9882.631924
828.141344,-1184.329507,74.020594,-8886.707777
828.141664,-2294.638420,1628.453072,-9576.193725
828.141984,-1036.288319,1184.329507,-9652.803275
828.142304,1110.308913,1258.350101,-10035.851024
828.142624,1184.329507,1480.411884,-10265.679673
828.142944,666.185348,2072.576638,-9806.022374
828.143264,1628.453072,1332.370696,-10035.851024
828.143584,1628.453072,814.226536,-9806.022374
828.143905,296.082377,-296.082377,-9806.022374
828.144225,-962.267725,592.164754,-9806.022374
828.144545,222.061783,444.123565,-10035.851024
828.144865,1554.432478,1036.288319,-10265.679673
828.145185,74.020594,1776.494261,-10342.289223
828.145505,-444.123565,1998.556043,-11031.775171
828.145825,1258.350101,2368.659014,-11031.775171
828.146145,2220.617826,2368.659014,-10495.508323
828.146465,1776.494261,2368.659014,-10648.727422
828.146786,666.185348,1850.514855,-10112.460574
828.147106,1924.535449,0.000000,-10801.946522
828.147426,1480.411884,0.000000,-10342.289223
828.147746,962.267725,370.102971,-9959.241474
828.148066,592.164754,296.082377,-10189.070123
828.148386,1554.432478,1924.535449,-10265.679673
828.148706,1554.432478,2220.617826,-10572.117872
828.149026,592.164754,2738.761985,-10265.679673
828.149346,1036.288319,1332.370696,-9806.022374
828.149666,2738.761985,0.000000,-10189.070123
828.149987,1850.514855,-370.102971,-10265.679673
828.150307,518.144159,-666.185348,-9576.193725
828.150627,1258.350101,-222.061783,-9959.241474
828.150947,1850.514855,74.020594,-9882.631924
828.151267,1554.432478,962.267725,-9806.022374
828.151587,518.144159,1406.391290,-9806.022374
828.151907,-444.123565,2738.761985,-9882.631924
828.152227,-296.082377,1998.556043,-10112.460574
828.152547,-518.144159,1036.288319,-9806.022374
828.152867,-1480.411884,-518.144159,-8810.098227
828.153187,-962.267725,-1850.514855,-9576.193725
828.153507,296.082377,-2590.720797,-9652.803275
828.153827,-518.144159,-1554.432478,-9806.022374
828.154147,-1110.308913,-592.164754,-9652.803275
828.154467,-370.102971,740.205942,-9882.631924
828.154787,2072.576638,888.247130,-10495.508323
828.155108,1406.391290,962.267725,-10955.165621
828.155428,-592.164754,-222.061783,-10265.679673
828.155748,-888.247130,-888.247130,-10342.289223
828.156068,666.185348,-1332.370696,-10189.070123
828.156388,1184.329507,-1924.535449,-10112.460574
828.156708,-296.082377,-1850.514855,-9806.022374
828.157028,-1036.288319,-1998.556043,-9499.584175
828.157348,518.144159,-1406.391290,-10495.508323
828.157668,1258.350101,222.061783,-10572.117872
828.157988,0.000000,1480.411884,-10495.508323
828.158308,-1332.370696,666.185348,-10112.460574
828.158628,-518.144159,-148.041188,-10112.460574
828.158948,-444.123565,-518.144159,-10189.070123
828.159268,148.041188,-1554.432478,-9652.803275
828.159588,1036.288319,-1406.391290,-9729.412825
828.159908,2516.700203,-666.185348,-10495.508323
828.160228,1702.473667,222.061783,-10342.289223
828.160548,0.000000,444.123565,-10189.070123
828.160868,-740.205942,370.102971,-10265.679673
828.161188,0.000000,296.082377,-9882.631924
828.161508,-592.164754,-148.041188,-10342.289223
828.161828,-222.061783,74.020594,-9729.412825
828.162148,1036.288319,-666.185348,-9576.193725
828.162468,2368.659014,-1258.350101,-10495.508323
828.162788,1406.391290,-1110.308913,-11031.775171
828.163108,-740.205942,-666.185348,-9652.803275
828.163428,-1258.350101,592.164754,-10418.898773
828.163748,-740.205942,1258.350101,-10189.070123
828.164068,-888.247130,2072.576638,-10342.289223
828.164388,-296.082377,888.247130,-9729.412825
828.164708,666.185348,-518.144159,-10342.289223
828.165028,2072.576638,-1924.535449,-10342.289223
828.165348,1110.308913,-2220.617826,-10342.289223
828.165669,-222.061783,-1332.370696,-10112.460574
828.165989,1036.288319,222.061783,-10189.070123
828.166309,1850.514855,1406.391290,-10418.898773
828.166629,0.000000,1924.535449,-10112.460574
828.166949,-962.267725,1554.432478,-9882.631924
828.167269,-814.226536,962.267725,-10112.460574
828.167589,1036.288319,0.000000,-10035.851024
828.167909,0.000000,370.102971,-10418.898773
828.168229,-1850.514855,74.020594,-9193.145976
828.168549,-296.082377,74.020594,-9346.365076
828.168869,1036.288319,518.144159,-9882.631924
828.169189,1776.494261,1998.556043,-10189.070123
828.169509,962.267725,3627.009116,-9806.022374
828.169829,1924.535449,3478.967927,-10725.336972
828.170149,2664.741391,3108.864956,-10801.946522
828.170469,2516.700203,1184.329507,-10189.070123
828.170789,1332.370696,-518.144159,-9576.193725
828.171109,814.226536,-1332.370696,-9882.631924
828.171429,1702.473667,-518.144159,-10342.289223
828.171749,1036.288319,2442.679609,-10265.679673
828.172069,-518.144159,4811.338623,-10035.851024
828.172389,-888.247130,4811.338623,-10112.460574
828.172709,148.041188,2812.782580,-9806.022374
828.173029,1480.411884,740.205942,-10265.679673
828.173349,1850.514855,-1258.350101,-9882.631924
828.173669,2442.679609,-2738.761985,-9882.631924
828.173989,2368.659014,-1258.350101,-9882.631924
828.174309,74.020594,740.205942,-9882.631924
828.174629,296.082377,2738.761985,-9959.241474
828.174949,1406.391290,3849.070898,-10801.946522
828.175269,1554.432478,3182.885551,-10955.165621
828.175589,296.082377,2072.576638,-9882.631924
828.175909,296.082377,74.020594,-10112.460574
828.176229,2812.782580,-1110.308913,-10189.070123
828.176550,1998.556043,-1332.370696,-9806.022374
828.176870,-444.123565,-1850.514855,-9729.412825
828.177190,-518.144159,-1850.514855,-9269.755526
828.177510,370.102971,0.000000,-9959.241474
828.177830,-740.205942,2072.576638,-10495.508323
828.178150,-1998.556043,2220.617826,-10342.289223
828.178470,-888.247130,1332.370696,-9806.022374
828.178790,1702.473667,-148.041188,-9729.412825
828.179110,1998.556043,-1332.370696,-10189.070123
828.179430,1332.370696,-370.102971,-9959.241474
828.179750,370.102971,370.102971,-9576.193725
828.180070,2072.576638,888.247130,-10418.898773
828.180390,2294.638420,-666.185348,-10035.851024
828.180710,740.205942,-1110.308913,-9652.803275
828.181030,518.144159,-1110.308913,-9729.412825
828.181350,1036.288319,-148.041188,-9882.631924
828.181670,1110.308913,0.000000,-10112.460574
828.181990,0.000000,518.144159,-10035.851024
828.182310,222.061783,-518.144159,-9576.193725
828.182630,1480.411884,-370.102971,-10112.460574
828.182950,296.082377,-888.247130,-10342.289223
828.183270,-888.247130,-888.247130,-9882.631924
828.183590,-1924.535449,-888.247130,-9882.631924
828.183910,740.205942,-370.102971,-10112.460574
828.184230,1258.350101,296.082377,-10495.508323
828.184550,0.000000,888.247130,-10418.898773
828.184870,-222.061783,148.041188,-10342.289223
828.185190,370.102971,0.000000,-10418.898773
828.185510,0.000000,-666.185348,-10342.289223
828.185830,0.000000,-370.102971,-10265.679673
828.186150,-444.123565,-1110.308913,-10112.460574
828.186470,148.041188,-1036.288319,-10189.070123
828.186790,-1110.308913,-296.082377,-9959.241474
828.187111,-2368.659014,666.185348,-9422.974625
828.187431,-1406.391290,1332.370696,-9729.412825
828.187751,-962.267725,592.164754,-10265.679673
828.188071,-518.144159,0.000000,-10342.289223
828.188391,-1776.494261,0.000000,-10572.117872
828.188711,-1258.350101,-1776.494261,-10265.679673
828.189031,-222.061783,-1554.432478,-9806.022374
828.189351,-148.041188,296.082377,-9806.022374
828.189671,-1036.288319,1850.514855,-9806.022374
828.189991,-296.082377,2516.700203,-10342.289223
828.190311,1332.370696,2368.659014,-10495.508323
828.190631,814.226536,148.041188,-10648.727422
828.190951,222.061783,-1184.329507,-9882.631924
828.191271,444.123565,-1998.556043,-9729.412825
828.191591,1258.350101,-1036.288319,-10035.851024
828.191911,-148.041188,518.144159,-10035.851024
828.192231,-1036.288319,1924.535449,-9729.412825
828.192551,74.020594,2812.782580,-10189.070123
828.192871,1332.370696,2886.803174,-10265.679673
828.193191,222.061783,1258.350101,-10265.679673
828.193511,0.000000,0.000000,-9882.631924
828.193831,592.164754,-1628.453072,-10035.851024
828.194151,1776.494261,-1184.329507,-10189.070123
828.194471,740.205942,0.000000,-10112.460574
828.194791,222.061783,2146.597232,-10035.851024
828.195111,2072.576638,3182.885551,-9959.241474
828.195431,2738.761985,3330.926739,-10572.117872
828.195751,1184.329507,1702.473667,-10265.679673
828.196071,1332.370696,888.247130,-9806.022374
828.196391,2220.617826,-1110.308913,-10265.679673
828.196711,2664.741391,0.000000,-10035.851024
828.197031,1332.370696,1036.288319,-9806.022374
828.197351,296.082377,2590.720797,-9806.022374
828.197671,592.164754,2960.823768,-10572.117872
828.197992,1702.473667,3034.844362,-10112.460574
828.198312,888.247130,1776.494261,-10342.289223
828.198632,0.000000,74.020594,-9806.022374
828.198952,1554.432478,-1036.288319,-10112.460574
828.199272,1258.350101,-1258.350101,-9806.022374
828.199592,518.144159,0.000000,-9652.803275
828.199912,-740.205942,2146.597232,-9959.241474
828.200232,1110.308913,3034.844362,-10572.117872
828.200552,1332.370696,2220.617826,-10495.508323
828.200872,-148.041188,1332.370696,-10189.070123
828.201192,-222.061783,-1332.370696,-9729.412825
828.201512,222.061783,-2664.741391,-9806.022374
828.201832,222.061783,-2738.761985,-9729.412825
828.202152,-148.041188,-1036.288319,-9576.193725
828.202472,740.205942,1110.308913,-9959.241474
828.202792,1184.329507,2442.679609,-10189.070123
828.203112,740.205942,2072.576638,-10342.289223
828.203432,-222.061783,444.123565,-10035.851024
828.203752,0.000000,-1628.453072,-10035.851024
828.204072,2220.617826,-2664.741391,-9959.241474
828.204392,1628.453072,-1924.535449,-9729.412825
828.204712,0.000000,148.041188,-9729.412825
828.205032,518.144159,2294.638420,-10189.070123
828.205352,1702.473667,2590.720797,-10725.336972
828.205672,1554.432478,1406.391290,-10265.679673
828.205992,-740.205942,-740.205942,-9806.022374
828.206312,-1628.453072,-2664.741391,-9806.022374
828.206632,0.000000,-2368.659014,-10342.289223
828.206952,0.000000,-370.102971,-8963.317327
828.207272,1258.350101,1406.391290,-10189.070123
828.207592,2886.803174,2368.659014,-10418.898773
828.207912,3775.050304,1776.494261,-10801.946522
828.208232,2442.679609,814.226536,-10725.336972
828.208553,962.267725,-962.267725,-10189.070123
828.208873,0.000000,-2146.597232,-9806.022374
828.209193,666.185348,-1480.411884,-10342.289223
828.209513,74.020594,222.061783,-10342.289223
828.209833,-1258.350101,1406.391290,-9959.241474
828.210153,-1406.391290,1258.350101,-10572.117872
828.210473,0.000000,444.123565,-10495.508323
828.210793,0.000000,-740.205942,-10342.289223
828.211113,-370.102971,-1702.473667,-9806.022374
828.211433,518.144159,-2664.741391,-9882.631924
828.211753,740.205942,-1702.473667,-10035.851024
828.212073,0.000000,-444.123565,-10112.460574
828.212393,148.041188,518.144159,-10112.460574
828.212713,2072.576638,1776.494261,-10189.070123
828.213033,2294.638420,2664.741391,-10878.556072
828.213353,370.102971,2368.659014,-10572.117872
828.213673,-592.164754,814.226536,-9806.022374
828.213993,-222.061783,-1628.453072,-9959.241474
828.214313,0.000000,-3701.029710,-9193.145976
828.214633,-1776.494261,-3404.947333,-9193.145976
828.214953,-2072.576638,-1554.432478,-9269.755526
828.215273,0.000000,296.082377,-9422.974625
828.215593,888.247130,2294.638420,-10572.117872
828.215913,0.000000,2590.720797,-10725.336972
828.216233,-1924.535449,1998.556043,-9806.022374
828.216553,-1036.288319,296.082377,-10112.460574
828.216873,592.164754,-1110.308913,-9882.631924
828.217193,296.082377,-962.267725,-9959.241474
828.217513,-370.102971,0.000000,-9959.241474
828.217833,888.247130,296.082377,-9576.193725
828.218153,518.144159,1258.350101,-10418.898773
828.218473,222.061783,888.247130,-11568.042020
828.218793,-148.041188,296.082377,-9806.022374
828.219113,1258.350101,-222.061783,-10342.289223
828.219434,1628.453072,296.082377,-10265.679673
828.219754,962.267725,962.267725,-11108.384721
828.220074,0.000000,2146.597232,-10495.508323
828.220394,1554.432478,2368.659014,-10342.289223
828.220714,1184.329507,2516.700203,-10878.556072
828.221034,592.164754,666.185348,-10265.679673
828.221354,148.041188,-1332.370696,-9806.022374
828.221674,592.164754,-2220.617826,-10342.289223
828.221994,1480.411884,-962.267725,-9959.241474
828.222314,370.102971,1184.329507,-9882.631924
828.222634,740.205942,3330.926739,-10112.460574
828.222954,1184.329507,3849.070898,-10112.460574
828.223274,1184.329507,3775.050304,-10418.898773
828.223594,1480.411884,2294.638420,-10265.679673
828.223914,1480.411884,74.020594,-9652.803275
828.224234,1924.535449,-1258.350101,-9959.241474
828.224554,2368.659014,-1110.308913,-9806.022374
828.224874,1110.308913,148.041188,-9806.022374
828.225194,592.164754,1628.453072,-9882.631924
828.225514,-370.102971,3108.864956,-10112.460574
828.225834,74.020594,2738.761985,-10418.898773
828.226154,0.000000,1554.432478,-10035.851024
828.226474,74.020594,-888.247130,-10112.460574
828.226794,2072.576638,-2960.823768,-10189.070123
828.227114,1702.473667,-1924.535449,-9959.241474
828.227434,1406.391290,-962.267725,-9729.412825
828.227754,740.205942,0.000000,-9882.631924
828.228074,1036.288319,148.041188,-10112.460574
828.228394,-222.061783,222.061783,-10955.165621
828.228714,-1480.411884,74.020594,-9806.022374
828.229034,0.000000,518.144159,-10572.117872
828.229354,888.247130,-1036.288319,-10801.946522
828.229674,518.144159,-370.102971,-9729.412825
828.229995,0.000000,148.041188,-10189.070123
828.230315,-296.082377,666.185348,-10342.289223
828.230635,1036.288319,1406.391290,-10572.117872
828.230955,370.102971,1850.514855,-10955.165621
828.231275,0.000000,1480.411884,-10265.679673
828.231595,0.000000,444.123565,-10648.727422
828.231915,1184.329507,-592.164754,-9959.241474
828.232235,1258.350101,-1554.432478,-10189.070123
828.232555,1036.288319,-888.247130,-8886.707777
828.232875,2220.617826,296.082377,-9422.974625
828.233195,2812.782580,1998.556043,-9882.631924
828.233515,1406.391290,2146.597232,-10265.679673
828.233835,-666.185348,1110.308913,-9729.412825
828.234155,-1258.350101,-1628.453072,-9806.022374
828.234475,-370.102971,-2812.782580,-9346.365076
828.234795,-592.164754,-2220.617826,-9499.584175
828.235115,0.000000,-962.267725,-9499.584175
828.235435,740.205942,518.144159,-9652.803275
828.235755,1480.411884,0.000000,-9959.241474
828.236075,740.205942,-740.205942,-10342.289223
828.236395,-814.226536,-1184.329507,-9576.193725
828.236715,-518.144159,-1406.391290,-10265.679673
828.237035,1332.370696,-962.267725,-10418.898773
828.237355,1406.391290,-222.061783,-10418.898773
828.237675,814.226536,666.185348,-10189.070123
828.237995,518.144159,592.164754,-10418.898773
828.238315,1036.288319,518.144159,-10725.336972
828.238635,-444.123565,0.000000,-10878.556072
828.238955,-1332.370696,0.000000,-10265.679673
828.239275,-1184.329507,-740.205942,-10572.117872
828.239595,-888.247130,444.123565,-10342.289223
828.239915,-1332.370696,666.185348,-10495.508323
828.240235,-1332.370696,666.185348,-10112.460574
828.240555,888.247130,518.144159,-10418.898773
828.240876,1998.556043,1184.329507,-10878.556072
828.241196,888.247130,1628.453072,-9959.241474
828.241516,-1258.350101,1480.411884,-10265.679673
828.241836,148.041188,592.164754,-10572.117872
828.242156,592.164754,0.000000,-9882.631924
828.242476,0.000000,-222.061783,-10572.117872
828.242796,0.000000,-814.226536,-8810.098227
828.243116,1850.514855,-592.164754,-9576.193725
828.243436,3034.844362,222.061783,-10265.679673
828.243756,1036.288319,740.205942,-9729.412825
828.244076,-1776.494261,962.267725,-9499.584175
828.244396,814.226536,-148.041188,-9806.022374
828.244716,2072.576638,-370.102971,-9806.022374
828.245036,888.247130,666.185348,-9959.241474
828.245356,370.102971,0.000000,-9652.803275
828.245676,1924.535449,666.185348,-9729.412825
828.245996,2960.823768,962.267725,-10572.117872
828.246316,3108.864956,1628.453072,-10265.679673
828.246636,1776.494261,1406.391290,-10342.289223
828.246956,2220.617826,592.164754,-10495.508323
828.247276,814.226536,888.247130,-10265.679673
828.247596,-740.205942,740.205942,-9882.631924
828.247916,-888.247130,1258.350101,-9882.631924
828.248236,1480.411884,2146.597232,-10725.336972
828.248556,2072.576638,2368.659014,-11261.603821
828.248876,1110.308913,2294.638420,-10418.898773
828.249196,74.020594,1110.308913,-10648.727422
828.249516,814.226536,0.000000,-10572.117872
828.249836,814.226536,148.041188,-10418.898773
828.250156,-814.226536,666.185348,-10112.460574
828.250476,-1406.391290,1110.308913,-10035.851024
828.250796,-370.102971,888.247130,-10112.460574
828.251116,-814.226536,1036.288319,-10265.679673
828.251366,148.041188,1036.288319,-10112.460574
828.251686,0.000000,666.185348,-10189.070123
828.252006,1850.514855,-222.061783,-10189.070123
828.252326,1110.308913,-296.082377,-9729.412825
828.252646,-444.123565,-740.205942,-9652.803275
828.252966,-370.102971,-592.164754,-9269.755526
828.253286,-222.061783,222.061783,-9729.412825
828.253606,-1628.453072,666.185348,-9499.584175
828.253927,-2146.597232,518.144159,-9269.755526
828.254247,-370.102971,-370.102971,-9806.022374
828.254567,888.247130,-666.185348,-9959.241474
828.254887,666.185348,-888.247130,-9806.022374
828.255207,-1480.411884,-296.082377,-9576.193725
828.255527,-888.247130,296.082377,-9576.193725
828.255847,1184.329507,518.144159,-9959.241474
828.256167,222.061783,888.247130,-10495.508323
828.256488,-666.185348,444.123565,-9959.241474
828.256808,0.000000,-296.082377,-10189.070123
828.257128,1850.514855,-592.164754,-10495.508323
828.257448,1924.535449,74.020594,-10265.679673
828.257768,222.061783,222.061783,-10265.679673
828.258088,1184.329507,888.247130,-10265.679673
828.258408,1850.514855,1110.308913,-10801.946522
828.258728,370.102971,1036.288319,-11108.384721
828.259049,-1332.370696,296.082377,-10572.117872
828.259369,74.020594,-444.123565,-10189.070123
828.259689,3182.885551,-666.185348,-9346.365076
828.260009,4071.132681,-814.226536,-10495.508323
828.260329,2590.720797,222.061783,-10572.117872
828.260649,1332.370696,1036.288319,-10418.898773
828.260969,1480.411884,1776.494261,-10495.508323
828.261289,1184.329507,1332.370696,-10112.460574
828.261610,444.123565,0.000000,-9806.022374
828.261930,814.226536,-1776.494261,-10265.679673
828.262250,1332.370696,-2368.659014,-10265.679673
828.262570,888.247130,-740.205942,-11108.384721
828.262890,296.082377,0.000000,-9959.241474
828.263210,1332.370696,1258.350101,-10035.851024
828.263530,1184.329507,1628.453072,-10495.508323
828.263850,814.226536,1184.329507,-10572.117872
828.264170,296.082377,444.123565,-9806.022374
828.264491,370.102971,-1258.350101,-10035.851024
828.264811,1406.391290,-1184.329507,-9959.241474
828.265131,666.185348,-1332.370696,-9499.584175
828.265451,1036.288319,-148.041188,-8963.317327
828.265771,1258.350101,222.061783,-9576.193725
828.266091,-370.102971,1702.473667,-9882.631924
828.266411,-2368.659014,1628.453072,-10112.460574
828.266731,-2368.659014,592.164754,-9806.022374
828.267052,-222.061783,-1554.432478,-10342.289223
828.267372,666.185348,-2072.576638,-9576.193725
828.267692,-1110.308913,-1184.329507,-10189.070123
828.268012,-1998.556043,666.185348,-9882.631924
828.268332,-518.144159,2146.597232,-10495.508323
828.268652,148.041188,2590.720797,-10418.898773
828.268972,-814.226536,2220.617826,-10265.679673
828.269292,-592.164754,148.041188,-10418.898773
828.269613,1406.391290,-1184.329507,-9882.631924
828.269933,1480.411884,-1258.350101,-10572.117872
828.270253,592.164754,-444.123565,-10495.508323
828.270573,-740.205942,518.144159,-9959.241474
828.270893,1480.411884,1998.556043,-10495.508323
828.271213,666.185348,2368.659014,-10112.460574
828.271533,-666.185348,2294.638420,-10112.460574
828.271853,-518.144159,1184.329507,-10418.898773
828.272174,1258.350101,-148.041188,-10265.679673
828.272494,1924.535449,0.000000,-10495.508323
828.272814,592.164754,-962.267725,-9806.022374
828.273134,-296.082377,-444.123565,-9576.193725
828.273454,888.247130,1554.432478,-9806.022374
828.273774,1480.411884,3256.906145,-10035.851024
828.274094,962.267725,3552.988522,-10035.851024
828.274414,1480.411884,1850.514855,-9806.022374
828.274734,2590.720797,0.000000,-9882.631924
828.275055,2220.617826,-814.226536,-9422.974625
828.275375,1850.514855,-1480.411884,-9499.584175
828.275695,1036.288319,-148.041188,-9499.584175
828.276015,1184.329507,222.061783,-9806.022374
828.276335,1480.411884,1258.350101,-10035.851024
828.276655,148.041188,1850.514855,-9422.974625
828.276975,814.226536,1776.494261,-10265.679673
828.277295,2294.638420,1332.370696,-10342.289223
828.277616,2146.597232,666.185348,-9882.631924
828.277936,888.247130,0.000000,-9652.803275
828.278256,1184.329507,-296.082377,-9269.755526
828.278576,1184.329507,-222.061783,-10418.898773
828.278896,-444.123565,296.082377,-10342.289223
828.279216,-888.247130,1554.432478,-10572.117872
828.279536,148.041188,1110.308913,-10648.727422
828.279856,1776.494261,740.205942,-10265.679673
828.280177,1480.411884,592.164754,-11108.384721
828.280497,0.000000,888.247130,-10265.679673
828.280817,74.020594,1184.329507,-10648.727422
828.281137,444.123565,1110.308913,-10572.117872
828.281457,-370.102971,1480.411884,-10189.070123
828.281777,-1480.411884,-592.164754,-10189.070123
828.282097,0.000000,-1924.535449,-9806.022374
828.282417,888.247130,-1998.556043,-10572.117872
828.282737,-296.082377,-814.226536,-9959.241474
828.283058,-1332.370696,888.247130,-9806.022374
828.283378,0.000000,2368.659014,-9882.631924
828.283698,1036.288319,2516.700203,-10189.070123
828.284018,1332.370696,1258.350101,-11414.822920
828.284338,74.020594,-666.185348,-9499.584175
828.284658,1110.308913,-2368.659014,-9116.536426
828.284978,1332.370696,-2516.700203,-9729.412825
828.285298,518.144159,-2516.700203,-9269.755526
828.285619,-1480.411884,0.000000,-8963.317327
828.285939,-1184.329507,888.247130,-9652.803275
828.286259,-888.247130,1776.494261,-10035.851024
828.286579,-1554.432478,1258.350101,-10572.117872
828.286899,-888.247130,-222.061783,-10035.851024
828.287219,740.205942,-1110.308913,-10265.679673
828.287539,1258.350101,-1554.432478,-10112.460574
828.287859,444.123565,-962.267725,-10112.460574
828.288180,-444.123565,814.226536,-10495.508323
828.288500,888.247130,1628.453072,-10955.165621
828.288820,666.185348,2516.700203,-11184.994271
828.289140,0.000000,1702.473667,-10801.946522
828.289460,296.082377,370.102971,-10572.117872
828.289780,1110.308913,-444.123565,-10648.727422
828.290100,1480.411884,-1110.308913,-11031.775171
828.290420,148.041188,-370.102971,-10495.508323
828.290741,-74.020594,1332.370696,-10725.336972
828.291061,444.123565,1628.453072,-10495.508323
828.291381,1258.350101,2664.741391,-10418.898773
828.291701,1184.329507,1702.473667,-10572.117872
828.292021,-296.082377,-148.041188,-9806.022374
828.292341,1110.308913,-2516.700203,-9499.584175
828.292661,1702.473667,-2368.659014,-9806.022374
828.292981,1480.411884,-814.226536,-9346.365076
828.293301,444.123565,370.102971,-9499.584175
828.293622,222.061783,1850.514855,-9346.365076
828.293942,148.041188,2294.638420,-9576.193725
828.294262,-592.164754,1258.350101,-9422.974625
828.294582,-888.247130,0.000000,-9576.193725
828.294902,1480.411884,-1332.370696,-9269.755526
828.295222,1850.514855,-1776.494261,-9576.193725
828.295542,2738.761985,-2442.679609,-9729.412825
828.295862,3330.926739,-1258.350101,-9576.193725
828.296183,2072.576638,0.000000,-9806.022374
828.296503,0.000000,1406.391290,-9806.022374
828.296823,-740.205942,1702.473667,-10265.679673
828.297143,74.020594,1628.453072,-10418.898773
828.297463,814.226536,222.061783,-10495.508323
828.297783,296.082377,-962.267725,-10725.336972
828.298103,0.000000,-1332.370696,-10035.851024
828.298423,1036.288319,-666.185348,-10572.117872
828.298744,2590.720797,1332.370696,-11108.384721
828.299064,1998.556043,1924.535449,-11031.775171
828.299384,-296.082377,2368.659014,-10725.336972
828.299704,-444.123565,666.185348,-10495.508323
828.300024,0.000000,-1332.370696,-10495.508323
828.300344,222.061783,-1702.473667,-10342.289223
828.300664,-888.247130,-2146.597232,-10265.679673
828.300984,-222.061783,-296.082377,-10189.070123
828.301305,1406.391290,1258.350101,-10342.289223
828.301625,-370.102971,2368.659014,-10801.946522
828.301945,-1998.556043,1776.494261,-10189.070123
828.302265,-1628.453072,518.144159,-9882.631924
828.302585,666.185348,-888.247130,-9806.022374
828.302905,1406.391290,-1110.308913,-9806.022374
828.303225,1998.556043,-1110.308913,-9882.631924
828.303545,2368.659014,-814.226536,-9959.241474
828.303865,2590.720797,814.226536,-10112.460574
828.304186,444.123565,2146.597232,-10342.289223
828.304506,-1184.329507,2442.679609,-9806.022374
828.304826,-962.267725,1258.350101,-9729.412825
828.305146,814.226536,740.205942,-9806.022374
828.305466,666.185348,-888.247130,-9882.631924
828.305786,-370.102971,-1184.329507,-9729.412825
828.306106,444.123565,-222.061783,-9806.022374
828.306426,666.185348,296.082377,-9959.241474
828.306747,1036.288319,1924.535449,-9882.631924
828.307067,222.061783,888.247130,-9806.022374
828.307387,444.123565,-296.082377,-9806.022374
828.307707,666.185348,-592.164754,-10418.898773
828.308027,1110.308913,-592.164754,-10112.460574
828.308347,1332.370696,962.267725,-10035.851024
828.308667,2368.659014,2738.761985,-10495.508323
828.308987,2368.659014,4367.215058,-11031.775171
828.309308,814.226536,3552.988522,-11184.994271
828.309628,1406.391290,1998.556043,-10265.679673
828.309948,888.247130,-888.247130,-10112.460574
828.310268,888.247130,-2294.638420,-9729.412825
828.310588,0.000000,-1406.391290,-9652.803275
828.310908,-814.226536,222.061783,-9499.584175
828.311228,-296.082377,2146.597232,-10112.460574
828.311548,-148.041188,3034.844362,-10265.679673
828.311869,370.102971,1850.514855,-9959.241474
828.312189,-518.144159,296.082377,-9959.241474
828.312509,592.164754,-592.164754,-11184.994271
828.312829,296.082377,-888.247130,-9806.022374
828.313149,-370.102971,-296.082377,-10342.289223
828.313469,-444.123565,0.000000,-9576.193725
828.313789,-222.061783,962.267725,-9116.536426
828.314109,0.000000,1110.308913,-10342.289223
828.314429,-148.041188,1554.432478,-10112.460574
828.314750,-370.102971,1332.370696,-10265.679673
828.315070,592.164754,0.000000,-9959.241474
828.315390,518.144159,-444.123565,-9729.412825
828.315710,-518.144159,-814.226536,-9806.022374
828.316030,-740.205942,-518.144159,-9652.803275
828.316350,-370.102971,0.000000,-9806.022374
828.316670,-296.082377,0.000000,-10648.727422
828.316990,-518.144159,296.082377,-9959.241474
828.317311,296.082377,0.000000,-9806.022374
828.317631,1480.411884,74.020594,-10112.460574
828.317951,1702.473667,444.123565,-10035.851024
828.318271,666.185348,444.123565,-9882.631924
828.318591,592.164754,296.082377,-10189.070123
828.318911,1110.308913,-444.123565,-10265.679673
828.319231,814.226536,74.020594,-10495.508323
828.319551,0.000000,740.205942,-10418.898773
828.319872,148.041188,1332.370696,-10418.898773
828.320192,1702.473667,1554.432478,-10878.556072
828.320512,1850.514855,1702.473667,-10572.117872
828.320832,518.144159,1332.370696,-10495.508323
828.321152,-370.102971,1184.329507,-10035.851024
828.321472,814.226536,296.082377,-10418.898773
828.321792,1628.453072,74.020594,-10418.898773
828.322112,888.247130,-666.185348,-10189.070123
828.322432,-296.082377,-2146.597232,-9959.241474
828.322753,-222.061783,-1480.411884,-10035.851024
828.323073,0.000000,-518.144159,-9806.022374
828.323393,74.020594,740.205942,-9806.022374
828.323713,1850.514855,2072.576638,-10112.460574
828.324033,4219.173869,1702.473667,-10648.727422
828.324353,3182.885551,444.123565,-10572.117872
828.324673,444.123565,-1480.411884,-10035.851024
828.324993,-666.185348,-2960.823768,-9729.412825
828.325314,444.123565,-2146.597232,-9959.241474
828.325634,-740.205942,-592.164754,-9652.803275
828.325954,-814.226536,1554.432478,-9576.193725
828.326274,1036.288319,2294.638420,-10189.070123
828.326594,2146.597232,2294.638420,-10265.679673
828.326914,0.000000,814.226536,-9959.241474
828.327234,-2146.597232,-370.102971,-9499.584175
828.327554,-1554.432478,-1628.453072,-9193.145976
828.327875,1554.432478,-1850.514855,-9959.241474
828.328195,1332.370696,-1258.350101,-9652.803275
828.328515,0.000000,0.000000,-9499.584175
828.328835,888.247130,1554.432478,-9882.631924
828.329155,3552.988522,2886.803174,-10342.289223
828.329475,2368.659014,2738.761985,-10495.508323
828.329795,-1332.370696,1258.350101,-9959.241474
828.330115,-962.267725,-1480.411884,-9806.022374
828.330436,-444.123565,-2664.741391,-9729.412825
828.330756,222.061783,-2516.700203,-9959.241474
828.331076,518.144159,-1332.370696,-9959.241474
828.331396,1406.391290,1036.288319,-10112.460574
828.331716,1628.453072,2220.617826,-10801.946522
828.332036,962.267725,1924.535449,-10418.898773
828.332356,-592.164754,888.247130,-10189.070123
828.332676,-666.185348,-370.102971,-10648.727422
828.332996,-296.082377,-1406.391290,-10112.460574
828.333317,-148.041188,-1480.411884,-9882.631924
828.333637,296.082377,0.000000,-10035.851024
828.333957,1850.514855,814.226536,-9882.631924
828.334277,2590.720797,1332.370696,-10878.556072
828.334597,1184.329507,1702.473667,-10265.679673
828.334917,444.123565,888.247130,-10495.508323
828.335237,1258.350101,0.000000,-10265.679673
828.335557,1702.473667,-444.123565,-10189.070123
828.335878,-592.164754,148.041188,-9806.022374
828.336198,-814.226536,1406.391290,-9806.022374
828.336518,1036.288319,2294.638420,-10035.851024
828.336838,740.205942,2072.576638,-10035.851024
828.337158,-296.082377,1110.308913,-9959.241474
828.337478,-370.102971,222.061783,-9729.412825
828.337798,296.082377,-518.144159,-10112.460574
828.338118,1036.288319,-296.082377,-10572.117872
828.338439,0.000000,74.020594,-9729.412825
828.338759,148.041188,740.205942,-9729.412825
828.339079,1554.432478,1258.350101,-9806.022374
828.339399,444.123565,666.185348,-9806.022374
828.339719,-666.185348,-148.041188,-9806.022374
828.340039,0.000000,0.000000,-9806.022374
828.340359,2220.617826,0.000000,-10189.070123
828.340679,2368.659014,1110.308913,-10265.679673
828.341000,148.041188,1702.473667,-9729.412825
828.341320,-444.123565,74.020594,-9806.022374
828.341640,740.205942,-666.185348,-9959.241474
828.341960,518.144159,0.000000,-10572.117872
828.342280,-1036.288319,0.000000,-10112.460574
828.342600,-518.144159,814.226536,-9806.022374
828.342920,1110.308913,962.267725,-10878.556072
828.343240,1258.350101,740.205942,-10265.679673
828.343560,444.123565,888.247130,-10035.851024
828.343881,962.267725,888.247130,-10112.460574
828.344201,814.226536,74.020594,-10265.679673
828.344521,0.000000,444.123565,-10725.336972
828.344841,-444.123565,592.164754,-10112.460574
828.345161,148.041188,222.061783,-9959.241474
828.345481,2442.679609,370.102971,-10418.898773
828.345801,2738.761985,444.123565,-10572.117872
828.346121,1258.350101,1110.308913,-10112.460574
828.346442,1110.308913,888.247130,-10265.679673
828.346762,1406.391290,888.247130,-10648.727422
828.347082,0.000000,-666.185348,-10112.460574
828.347402,148.041188,-962.267725,-9959.241474
828.347722,444.123565,-1406.391290,-9882.631924
828.348042,1628.453072,-370.102971,-11568.042020
828.348362,1406.391290,1036.288319,-10265.679673
828.348682,962.267725,1332.370696,-10112.460574
828.349003,1258.350101,666.185348,-9882.631924
828.349323,1258.350101,0.000000,-9806.022374
828.349643,888.247130,-1702.473667,-10265.679673
828.349963,74.020594,-1554.432478,-9806.022374
828.350283,1332.370696,-1776.494261,-9882.631924
828.350603,1406.391290,-1258.350101,-10035.851024
828.350923,1702.473667,-1332.370696,-9729.412825
828.351243,74.020594,888.247130,-9806.022374
828.351563,0.000000,2220.617826,-9959.241474
828.351883,1036.288319,2294.638420,-10342.289223
828.352204,370.102971,1332.370696,-10648.727422
828.352524,-592.164754,-962.267725,-10035.851024
828.352844,-814.226536,-3256.906145,-10265.679673
828.353164,-370.102971,-3552.988522,-10035.851024
828.353484,-814.226536,-2220.617826,-9652.803275
828.353804,-592.164754,1628.453072,-10265.679673
828.354124,222.061783,3775.050304,-10725.336972
828.354444,0.000000,4367.215058,-10955.165621
828.354764,-444.123565,2220.617826,-10725.336972
828.355084,222.061783,-666.185348,-11338.213370
828.355405,1184.329507,-3182.885551,-10648.727422
828.355725,1628.453072,-3997.112087,-9959.241474
828.356045,-222.061783,-1924.535449,-9882.631924
828.356365,-1776.494261,296.082377,-9959.241474
828.356685,-888.247130,1628.453072,-9806.022374
828.357005,222.061783,2812.782580,-10342.289223
828.357325,1110.308913,2590.720797,-10189.070123
828.357645,1406.391290,592.164754,-10189.070123
828.357965,2294.638420,-1776.494261,-9959.241474
828.358285,1036.288319,-2072.576638,-9729.412825
828.358605,74.020594,-1480.411884,-9882.631924
828.358926,148.041188,296.082377,-9806.022374
828.359246,2072.576638,2590.720797,-10265.679673
828.359566,2886.803174,3775.050304,-10878.556072
828.359886,1628.453072,3775.050304,-10342.289223
828.360206,814.226536,1850.514855,-9882.631924
828.360526,1332.370696,-962.267725,-10035.851024
828.360846,1480.411884,-2368.659014,-9499.584175
828.361166,666.185348,-2664.741391,-9499.584175
828.361486,518.144159,-888.247130,-9882.631924
828.361806,1406.391290,1036.288319,-10112.460574
828.362127,1184.329507,2072.576638,-10418.898773
828.362447,296.082377,2664.741391,-10035.851024
828.362767,-1480.411884,1776.494261,-10189.070123
828.363087,-74.020594,666.185348,-10265.679673
828.363407,-444.123565,0.000000,-10342.289223
828.363727,-1258.350101,-592.164754,-9959.241474
828.364047,-592.164754,-1036.288319,-9729.412825
828.364367,444.123565,-962.267725,-9882.631924
828.364687,74.020594,74.020594,-10495.508323
828.365007,-1554.432478,1332.370696,-10342.289223
828.365327,-666.185348,2812.782580,-9193.145976
828.365648,1406.391290,2812.782580,-10495.508323
828.365968,1628.453072,1628.453072,-10572.117872
828.366288,-740.205942,0.000000,-10112.460574
828.366608,-1036.288319,-1850.514855,-9576.193725
828.366928,-888.247130,-1850.514855,-9576.193725
828.367248,-814.226536,-444.123565,-9806.022374
828.367568,-1258.350101,1480.411884,-9729.412825
828.367888,-962.267725,2146.597232,-10648.727422
828.368208,814.226536,1850.514855,-10418.898773
828.368528,222.061783,888.247130,-10112.460574
828.368849,0.000000,0.000000,-9806.022374
828.369169,0.000000,-296.082377,-9652.803275
828.369489,296.082377,74.020594,-9039.926876
828.369809,0.000000,74.020594,-10189.070123
828.370129,0.000000,-518.144159,-9806.022374
828.370449,1258.350101,-1110.308913,-10265.679673
828.370769,2812.782580,-740.205942,-9806.022374
828.371089,2590.720797,1628.453072,-9729.412825
828.371409,1702.473667,3627.009116,-10495.508323
828.371729,2220.617826,3478.967927,-10189.070123
828.372050,2516.700203,1702.473667,-10418.898773
828.372370,1628.453072,-444.123565,-9499.584175
828.372690,0.000000,-3034.844362,-9806.022374
828.373010,296.082377,-3330.926739,-9806.022374
828.373330,1258.350101,-1036.288319,-10035.851024
828.373650,1406.391290,1998.556043,-10342.289223
828.373970,1850.514855,4811.338623,-10112.460574
828.374290,2590.720797,4737.318029,-10648.727422
828.374610,2368.659014,3108.864956,-11031.775171
828.374930,888.247130,0.000000,-10418.898773
828.375250,-740.205942,-1480.411884,-9729.412825
828.375571,1406.391290,-2960.823768,-10035.851024
828.375891,2294.638420,-2220.617826,-9806.022374
828.376211,444.123565,-444.123565,-10342.289223
828.376531,0.000000,1776.494261,-9959.241474
828.376851,370.102971,2886.803174,-10572.117872
828.377171,1480.411884,3330.926739,-10955.165621
828.377491,0.000000,2294.638420,-10572.117872
828.377811,-814.226536,0.000000,-9882.631924
828.378131,296.082377,-3034.844362,-9806.022374
828.378451,2590.720797,-3849.070898,-9499.584175
828.378772,888.247130,-2590.720797,-9806.022374
828.379092,-1332.370696,-296.082377,-9346.365076
828.379412,0.000000,2294.638420,-9959.241474
828.379732,1480.411884,3997.112087,-10648.727422
828.380052,1036.288319,3330.926739,-10265.679673
828.380372,-296.082377,740.205942,-9882.631924
828.380692,296.082377,-2368.659014,-9882.631924
828.381012,-148.041188,-2960.823768,-9346.365076
828.381332,-2220.617826,-2368.659014,-9422.974625
828.381652,-2590.720797,-370.102971,-9269.755526
828.381972,148.041188,444.123565,-9959.241474
828.382293,1924.535449,1406.391290,-9806.022374
828.382613,1406.391290,1998.556043,-10418.898773
828.382933,222.061783,1258.350101,-10035.851024
828.383253,1036.288319,0.000000,-10495.508323
828.383573,296.082377,-814.226536,-9959.241474
828.383893,-962.267725,-1332.370696,-9806.022374
828.384213,-1258.350101,-1036.288319,-9652.803275
828.384533,740.205942,444.123565,-10265.679673
828.384853,592.164754,2368.659014,-10955.165621
828.385173,222.061783,2368.659014,-11108.384721
828.385494,592.164754,1924.535449,-10648.727422
828.385814,1628.453072,-148.041188,-10648.727422
828.386134,444.123565,-1628.453072,-10801.946522
828.386454,-1184.329507,-1110.308913,-10189.070123
828.386774,-1332.370696,-148.041188,-10418.898773
828.387094,-444.123565,1480.411884,-10495.508323
828.387414,296.082377,2738.761985,-10725.336972
828.387734,296.082377,1850.514855,-10418.898773
828.388054,296.082377,222.061783,-9882.631924
828.388374,1924.535449,-1258.350101,-9882.631924
828.388694,1628.453072,-740.205942,-10189.070123
828.389015,666.185348,-222.061783,-9806.022374
828.389335,222.061783,296.082377,-9806.022374
828.389655,1184.329507,740.205942,-9959.241474
828.389975,518.144159,666.185348,-10035.851024
828.390295,-888.247130,592.164754,-9729.412825
828.390615,-296.082377,0.000000,-9806.022374
828.390935,1110.308913,-296.082377,-8810.098227
828.391255,962.267725,0.000000,-9882.631924
828.391575,-740.205942,296.082377,-9806.022374
828.391895,-592.164754,296.082377,-9729.412825
828.392216,444.123565,74.020594,-9959.241474
828.392536,74.020594,0.000000,-9806.022374
828.392856,-370.102971,-740.205942,-9269.755526
828.393176,296.082377,-1184.329507,-9806.022374
828.393496,2220.617826,-1406.391290,-9806.022374
828.393816,1776.494261,0.000000,-11568.042020
828.394136,888.247130,1110.308913,-10035.851024
828.394456,518.144159,1702.473667,-10035.851024
828.394776,1406.391290,1258.350101,-10418.898773
828.395096,592.164754,962.267725,-9959.241474
828.395416,-814.226536,-518.144159,-9959.241474
828.395737,-1184.329507,-1480.411884,-10342.289223
828.396057,1184.329507,-962.267725,-10035.851024
828.396377,2072.576638,74.020594,-10801.946522
828.396697,1850.514855,1924.535449,-9959.241474
828.397017,1776.494261,2072.576638,-10648.727422
828.397337,1998.556043,1628.453072,-10495.508323
828.397657,1480.411884,518.144159,-10189.070123
828.397977,-962.267725,-370.102971,-9269.755526
828.398297,-1184.329507,-1332.370696,-9806.022374
828.398617,148.041188,-814.226536,-9806.022374
828.398938,666.185348,518.144159,-10495.508323
828.399258,444.123565,1776.494261,-9806.022374
828.399578,1332.370696,2294.638420,-10035.851024
828.399898,1406.391290,1480.411884,-10572.117872
828.400218,444.123565,296.082377,-10112.460574
828.400538,-740.205942,-518.144159,-9882.631924
828.400858,-592.164754,-1850.514855,-9959.241474
828.401178,740.205942,-1184.329507,-9959.241474
828.401498,74.020594,-296.082377,-9882.631924
828.401818,0.000000,2220.617826,-9499.584175
828.402138,592.164754,2664.741391,-10572.117872
828.402459,518.144159,1998.556043,-10418.898773
828.402779,370.102971,-296.082377,-10035.851024
828.403099,74.020594,-1850.514855,-9652.803275
828.403419,814.226536,-2590.720797,-9959.241474
828.403739,1332.370696,-1480.411884,-9806.022374
828.404059,-222.061783,148.041188,-10189.070123
828.404379,-296.082377,1924.535449,-9652.803275
828.404699,1036.288319,2960.823768,-10572.117872
828.405019,962.267725,2738.761985,-10648.727422
828.405339,-296.082377,1406.391290,-10265.679673
828.405660,-518.144159,0.000000,-9806.022374
828.405980,1998.556043,-1998.556043,-10265.679673
828.406300,2664.741391,-2368.659014,-10035.851024
828.406620,2072.576638,-962.267725,-9116.536426
828.406940,-148.041188,2220.617826,-9882.631924
828.407260,296.082377,3627.009116,-10342.289223
828.407580,1332.370696,3182.885551,-10572.117872
828.407900,1554.432478,1110.308913,-10418.898773
828.408220,1776.494261,-888.247130,-9959.241474
828.408540,2220.617826,-2220.617826,-10265.679673
828.408860,1406.391290,-1110.308913,-9959.241474
828.409181,0.000000,-74.020594,-10342.289223
828.409501,-888.247130,1258.350101,-9882.631924
828.409821,-592.164754,2220.617826,-10189.070123
828.410141,-74.020594,3108.864956,-10342.289223
828.410461,-148.041188,2294.638420,-10112.460574
828.410781,222.061783,1036.288319,-10112.460574
828.411101,2442.679609,-1184.329507,-9959.241474
828.411421,2664.741391,-2368.659014,-9806.022374
828.411741,2294.638420,-2072.576638,-9346.365076
828.412061,1184.329507,-740.205942,-9729.412825
828.412382,-222.061783,1258.350101,-9806.022374
828.412702,-592.164754,2442.679609,-10035.851024
828.413022,-814.226536,2220.617826,-10265.679673
828.413342,370.102971,962.267725,-9882.631924
828.413662,1702.473667,-1110.308913,-9806.022374
828.413982,1036.288319,-2368.659014,-9806.022374
828.414302,-666.185348,-1998.556043,-9422.974625
828.414622,-1332.370696,-592.164754,-9959.241474
828.414942,-740.205942,296.082377,-10189.070123
828.415262,-1110.308913,1110.308913,-10265.679673
828.415582,-962.267725,1036.288319,-9959.241474
828.415903,-444.123565,888.247130,-10418.898773
828.416223,1258.350101,370.102971,-10342.289223
828.416543,1480.411884,296.082377,-9499.584175
828.416863,740.205942,1184.329507,-10112.460574
828.417183,518.144159,1258.350101,-10495.508323
828.417503,592.164754,962.267725,-10572.117872
828.417823,-962.267725,444.123565,-10495.508323
828.418143,-2146.597232,-370.102971,-9882.631924
828.418463,-1924.535449,-1332.370696,-10112.460574
828.418783,-296.082377,-1480.411884,-10112.460574
828.419104,0.000000,-222.061783,-10342.289223
828.419424,-518.144159,1924.535449,-11184.994271
828.419744,-592.164754,1628.453072,-10648.727422
828.420064,74.020594,2220.617826,-10801.946522
828.420384,-518.144159,888.247130,-10648.727422
828.420704,0.000000,-296.082377,-9959.241474
828.421024,1332.370696,-1998.556043,-10189.070123
828.421344,3256.906145,-1628.453072,-9806.022374
828.421664,3627.009116,-74.020594,-10035.851024
828.421984,3108.864956,1480.411884,-10035.851024
828.422304,2738.761985,1850.514855,-9729.412825
828.422625,1776.494261,1258.350101,-10265.679673
828.422945,296.082377,148.041188,-9806.022374
828.423265,-1628.453072,-1036.288319,-9576.193725
828.423585,-888.247130,-1554.432478,-9729.412825
828.423905,592.164754,-962.267725,-9882.631924
828.424225,1110.308913,1110.308913,-10342.289223
828.424545,592.164754,3034.844362,-9959.241474
828.424865,1702.473667,3404.947333,-10648.727422
828.425185,2442.679609,2590.720797,-10572.117872
828.425505,370.102971,962.267725,-10418.898773
828.425826,-740.205942,-1110.308913,-9652.803275
828.426146,888.247130,-3108.864956,-9806.022374
828.426466,2220.617826,-2590.720797,-9269.755526
828.426786,1258.350101,-1554.432478,-9729.412825
828.427106,1258.350101,1480.411884,-10189.070123
828.427426,2442.679609,3256.906145,-10725.336972
828.427746,2368.659014,3627.009116,-10878.556072
828.428066,0.000000,2516.700203,-10342.289223
828.428386,-1480.411884,-666.185348,-10035.851024
828.428706,-222.061783,-3478.967927,-9729.412825
828.429026,1258.350101,-3849.070898,-10035.851024
828.429347,370.102971,-1776.494261,-10572.117872
828.429667,0.000000,222.061783,-9729.412825
828.429987,0.000000,2146.597232,-10265.679673
828.430307,222.061783,3108.864956,-10265.679673
828.430627,-1110.308913,2960.823768,-10648.727422
828.430947,-2294.638420,962.267725,-9806.022374
828.431267,-814.226536,-2294.638420,-9959.241474
828.431587,740.205942,-2960.823768,-9806.022374
828.431907,0.000000,-1628.453072,-9193.145976
828.432227,518.144159,222.061783,-9422.974625
828.432548,1776.494261,2516.700203,-10112.460574
828.432868,1998.556043,3108.864956,-10265.679673
828.433188,1332.370696,1480.411884,-9959.241474
828.433508,444.123565,666.185348,-9576.193725
828.433828,518.144159,-1850.514855,-9806.022374
828.434148,592.164754,-2516.700203,-9729.412825
828.434468,740.205942,-1184.329507,-9806.022374
828.434788,0.000000,0.000000,-10035.851024
828.435108,592.164754,2368.659014,-9806.022374
828.435428,-444.123565,3108.864956,-10495.508323
828.435748,-370.102971,2220.617826,-9959.241474
828.436069,74.020594,296.082377,-10035.851024
828.436389,2960.823768,-1110.308913,-10495.508323
828.436709,2146.597232,-2368.659014,-10189.070123
828.437029,962.267725,-1258.350101,-9806.022374
828.437349,-444.123565,1258.350101,-10418.898773
828.437669,1258.350101,3775.050304,-10801.946522
828.437989,888.247130,3701.029710,-10725.336972
828.438309,518.144159,1776.494261,-10418.898773
828.438629,814.226536,-518.144159,-10725.336972
828.438949,1924.535449,-1850.514855,-10342.289223
828.439270,1184.329507,-1258.350101,-10801.946522
828.439590,-888.247130,0.000000,-9806.022374
828.439910,-888.247130,814.226536,-9806.022374
828.440230,444.123565,1702.473667,-10035.851024
828.440550,296.082377,1036.288319,-10112.460574
828.440870,-814.226536,518.144159,-10725.336972
828.441190,-296.082377,-444.123565,-10189.070123
828.441510,2590.720797,370.102971,-9806.022374
828.441830,1628.453072,-666.185348,-10265.679673
828.442150,222.061783,-518.144159,-8810.098227
828.442470,-1406.391290,-296.082377,-9882.631924
828.442791,0.000000,370.102971,-9652.803275
828.443111,-444.123565,1554.432478,-10265.679673
828.443431,-666.185348,1184.329507,-9806.022374
828.443751,888.247130,-962.267725,-9959.241474
828.444071,1036.288319,-1554.432478,-9959.241474
828.444391,370.102971,-1776.494261,-9806.022374
828.444711,-370.102971,0.000000,-9652.803275
828.445031,-666.185348,1628.453072,-9806.022374
828.445351,592.164754,2812.782580,-10418.898773
828.445671,592.164754,2146.597232,-10878.556072
828.445992,-1184.329507,666.185348,-10112.460574
828.446312,-666.185348,-814.226536,-10418.898773
828.446632,592.164754,-888.247130,-10035.851024
828.446952,1406.391290,-740.205942,-9806.022374
828.447272,740.205942,814.226536,-10035.851024
828.447592,592.164754,1036.288319,-10495.508323
828.447912,740.205942,666.185348,-10418.898773
828.448232,-666.185348,1628.453072,-10648.727422
828.448552,-444.123565,1998.556043,-9882.631924
828.448872,1036.288319,592.164754,-10495.508323
828.449192,3404.947333,0.000000,-9806.022374
828.449513,3701.029710,-444.123565,-10035.851024
828.449833,2442.679609,0.000000,-9576.193725
828.450153,1924.535449,814.226536,-10035.851024
828.450473,740.205942,1554.432478,-10189.070123
828.450793,-1184.329507,1184.329507,-9116.536426
828.451113,-1480.411884,0.000000,-9652.803275
828.451433,-296.082377,-1480.411884,-9652.803275
828.451753,1776.494261,-1776.494261,-9959.241474
828.452073,1924.535449,0.000000,-9729.412825
828.452393,2442.679609,888.247130,-10112.460574
828.452714,3404.947333,1998.556043,-10112.460574
828.453034,2664.741391,2590.720797,-10648.727422
828.453353,444.123565,592.164754,-10265.679673
828.453673,0.000000,-518.144159,-9729.412825
828.453993,-518.144159,-1776.494261,-10648.727422
828.454313,-888.247130,-1036.288319,-10418.898773
828.454633,-1184.329507,444.123565,-10112.460574
828.454953,-370.102971,1776.494261,-10189.070123
828.455273,962.267725,2220.617826,-10572.117872
828.455593,666.185348,2294.638420,-10878.556072
828.455913,-888.247130,1110.308913,-10035.851024
828.456233,-1036.288319,-444.123565,-10648.727422
828.456553,1258.350101,-1480.411884,-11184.994271
828.456873,2220.617826,-962.267725,-10265.679673
828.457193,296.082377,222.061783,-10572.117872
828.457513,-370.102971,1184.329507,-10342.289223
828.457833,1480.411884,1258.350101,-9806.022374
828.458153,444.123565,1258.350101,-10418.898773
828.458473,-592.164754,740.205942,-9882.631924
828.458793,-1332.370696,-444.123565,-9959.241474
828.459113,370.102971,-1184.329507,-9576.193725
828.459433,1184.329507,-2368.659014,-9959.241474
828.459753,1110.308913,-1554.432478,-9499.584175
828.460073,962.267725,-444.123565,-9729.412825
828.460393,1406.391290,444.123565,-9882.631924
828.460713,222.061783,2220.617826,-10112.460574
828.461033,-740.205942,1554.432478,-10112.460574
828.461353,-370.102971,296.082377,-9729.412825
828.461673,1036.288319,-444.123565,-9959.241474
828.461993,1036.288319,-222.061783,-10112.460574
828.462313,592.164754,-296.082377,-9193.145976
828.462633,370.102971,888.247130,-9806.022374
828.462953,518.144159,1480.411884,-9806.022374
828.463273,0.000000,518.144159,-10265.679673
828.463593,-666.185348,-148.041188,-9652.803275
828.463913,0.000000,-1554.432478,-9959.241474
828.464233,1776.494261,-1776.494261,-10112.460574
828.464553,1406.391290,-666.185348,-10189.070123
828.464873,1110.308913,962.267725,-10418.898773
828.465193,1702.473667,1332.370696,-10418.898773
828.465513,1776.494261,1850.514855,-10418.898773
828.465833,-148.041188,1406.391290,-10725.336972
828.466153,-1406.391290,0.000000,-10112.460574
828.466472,-1184.329507,-1332.370696,-11031.775171
828.466792,518.144159,-2294.638420,-10495.508323
828.467112,1036.288319,-1332.370696,-10035.851024
828.467432,1036.288319,518.144159,-10189.070123
828.467752,1702.473667,2368.659014,-10725.336972
828.468072,1628.453072,2960.823768,-10418.898773
828.468392,888.247130,2516.700203,-10878.556072
828.468712,-740.205942,1480.411884,-9959.241474
828.469032,-814.226536,-1258.350101,-10495.508323
828.469352,888.247130,-2812.782580,-9806.022374
828.469672,740.205942,-1776.494261,-9806.022374
828.469992,1036.288319,148.041188,-9806.022374
828.470312,1184.329507,1702.473667,-10112.460574
828.470632,0.000000,3034.844362,-10418.898773
828.470952,-666.185348,2590.720797,-10189.070123
828.471272,-1406.391290,1184.329507,-9576.193725
828.471592,-444.123565,-1480.411884,-10035.851024
828.471912,518.144159,-2590.720797,-9499.584175
828.472232,74.020594,-2072.576638,-9806.022374
828.472552,666.185348,888.247130,-9882.631924
828.472872,2738.761985,2812.782580,-10112.460574
828.473192,2442.679609,5107.421000,-10342.289223
828.473512,296.082377,3404.947333,-10725.336972
828.473832,-1406.391290,1110.308913,-10189.070123
828.474152,-148.041188,-1998.556043,-10189.070123
828.474472,370.102971,-2664.741391,-10112.460574
828.474792,-1184.329507,-1406.391290,-9806.022374
828.475112,-1036.288319,1554.432478,-10572.117872
828.475432,518.144159,3478.967927,-10112.460574
828.475752,888.247130,3330.926739,-10495.508323
828.476072,148.041188,2590.720797,-9959.241474
828.476392,-222.061783,1258.350101,-9346.365076
828.476712,1258.350101,-444.123565,-10342.289223
828.477032,2442.679609,-1554.432478,-9882.631924
828.477352,2146.597232,-1332.370696,-10189.070123
828.477672,2146.597232,-888.247130,-9422.974625
828.477992,3552.988522,1258.350101,-10035.851024
828.478312,3108.864956,3256.906145,-10648.727422
828.478632,222.061783,3478.967927,-10418.898773
828.478952,-1036.288319,2368.659014,-10495.508323
828.479272,370.102971,-296.082377,-10189.070123
828.479592,444.123565,-2738.761985,-9806.022374
828.479911,0.000000,-3404.947333,-9422.974625
828.480231,-666.185348,-1554.432478,-9346.365076
828.480551,888.247130,814.226536,-9882.631924
828.480871,1702.473667,2294.638420,-10189.070123
828.481191,1702.473667,2146.597232,-10189.070123
828.481511,1776.494261,1184.329507,-10495.508323
828.481831,1554.432478,-444.123565,-10725.336972
828.482151,814.226536,-888.247130,-9499.584175
828.482471,518.144159,-740.205942,-9806.022374
828.482791,1036.288319,-518.144159,-10189.070123
828.483111,1554.432478,-370.102971,-10265.679673
828.483431,296.082377,740.205942,-10265.679673
828.483751,-962.267725,962.267725,-10112.460574
828.484071,-370.102971,1332.370696,-10725.336972
828.484391,1258.350101,592.164754,-10648.727422
828.484711,444.123565,-592.164754,-10189.070123
828.485031,-1184.329507,-1332.370696,-9959.241474
828.485351,-814.226536,-1184.329507,-9882.631924
828.485671,296.082377,-814.226536,-9652.803275
828.485991,148.041188,296.082377,-10342.289223
828.486311,740.205942,444.123565,-9269.755526
828.486631,1554.432478,148.041188,-10265.679673
828.486951,1554.432478,-1480.411884,-9959.241474
828.487271,-1036.288319,-1554.432478,-9576.193725
828.487591,-1554.432478,-1184.329507,-9576.193725
828.487911,74.020594,0.000000,-9576.193725
828.488231,1332.370696,592.164754,-10035.851024
828.488551,1110.308913,74.020594,-10572.117872
828.488871,-444.123565,-148.041188,-9806.022374
828.489191,-444.123565,-592.164754,-10342.289223
828.489511,1480.411884,-666.185348,-9959.241474
828.489831,1480.411884,666.185348,-10342.289223
828.490151,-148.041188,888.247130,-9806.022374
828.490471,-296.082377,1406.391290,-9806.022374
828.490791,666.185348,1554.432478,-9882.631924
828.491111,-518.144159,1184.329507,-10572.117872
828.491431,-1850.514855,74.020594,-9499.584175
828.491751,-1406.391290,-1406.391290,-10648.727422
828.492071,1480.411884,-2294.638420,-9652.803275
828.492391,2220.617826,-740.205942,-10418.898773
828.492711,666.185348,0.000000,-9882.631924
828.493030,740.205942,1332.370696,-9729.412825
828.493350,740.205942,3256.906145,-10189.070123
828.493670,-444.123565,2368.659014,-10955.165621
828.493990,-592.164754,888.247130,-9422.974625
828.494310,296.082377,-1776.494261,-10189.070123
828.494630,1924.535449,-2368.659014,-9806.022374
828.494950,1110.308913,-1480.411884,-10725.336972
828.495270,1036.288319,666.185348,-10035.851024
828.495590,1110.308913,2368.659014,-9729.412825
828.495910,962.267725,3404.947333,-10265.679673
828.496230,-296.082377,2738.761985,-11414.822920
828.496550,-1702.473667,370.102971,-9959.241474
828.496870,-148.041188,-1776.494261,-10342.289223
828.497190,1184.329507,-1776.494261,-9806.022374
828.497510,1776.494261,-148.041188,-9806.022374
828.497830,2886.803174,2072.576638,-10648.727422
828.498150,2738.761985,3182.885551,-9959.241474
828.498470,1628.453072,3330.926739,-10418.898773
828.498790,222.061783,1924.535449,-10265.679673
828.499110,-1406.391290,0.000000,-9652.803275
828.499430,592.164754,-962.267725,-10265.679673
828.499750,1850.514855,-518.144159,-10265.679673
828.500070,74.020594,592.164754,-10112.460574
828.500390,148.041188,1554.432478,-9959.241474
828.500710,1184.329507,3330.926739,-10265.679673
828.501030,1110.308913,2368.659014,-10648.727422
828.501350,814.226536,1776.494261,-10189.070123
828.501670,-370.102971,666.185348,-10189.070123
828.501990,370.102971,-1998.556043,-10035.851024
828.502310,1628.453072,-1628.453072,-10035.851024
828.502630,962.267725,-962.267725,-9806.022374
828.502950,1036.288319,962.267725,-9806.022374
828.503270,1924.535449,2072.576638,-10112.460574
828.503590,1776.494261,2368.659014,-10418.898773
828.503910,592.164754,2368.659014,-10265.679673
828.504230,-370.102971,518.144159,-10189.070123
828.504550,148.041188,-1332.370696,-10572.117872
828.504870,592.164754,-1998.556043,-9576.193725
828.505190,-518.144159,-888.247130,-9729.412825
828.505510,-370.102971,518.144159,-9806.022374
828.505830,1332.370696,1554.432478,-9806.022374
828.506149,1184.329507,1998.556043,-10955.165621
828.506469,-148.041188,1184.329507,-9576.193725
828.506789,-1184.329507,-148.041188,-9882.631924
828.507109,-148.041188,-962.267725,-9806.022374
828.507429,-148.041188,-1554.432478,-10189.070123
828.507749,-1110.308913,-1554.432478,-9116.536426
828.508069,666.185348,-814.226536,-9729.412825
828.508389,2664.741391,-222.061783,-9882.631924
828.508709,1184.329507,814.226536,-10495.508323
828.509029,-1258.350101,888.247130,-9882.631924
828.509349,-740.205942,222.061783,-10265.679673
828.509669,1850.514855,-1480.411884,-10112.460574
828.509989,1628.453072,-1480.411884,-10495.508323
828.510309,-1184.329507,-1332.370696,-10035.851024
828.510629,-222.061783,-1036.288319,-9959.241474
828.510949,1332.370696,444.123565,-10418.898773
828.511269,370.102971,962.267725,-10572.117872
828.511589,518.144159,1036.288319,-10418.898773
828.511909,888.247130,-370.102971,-10495.508323
828.512229,2146.597232,-1702.473667,-10801.946522
828.512549,222.061783,-962.267725,-10495.508323
828.512869,-1036.288319,74.020594,-9806.022374
828.513189,222.061783,1036.288319,-10265.679673
828.513509,2072.576638,2294.638420,-10112.460574
828.513829,592.164754,1554.432478,-10801.946522
828.514149,-444.123565,-222.061783,-9729.412825
828.514469,888.247130,-2738.761985,-10189.070123
828.514789,2072.576638,-2220.617826,-10112.460574
828.515109,0.000000,-1554.432478,-9959.241474
828.515429,-1036.288319,444.123565,-9576.193725
828.515749,0.000000,1184.329507,-10035.851024
828.516069,1110.308913,1776.494261,-10189.070123
828.516389,-592.164754,1702.473667,-10342.289223
828.516709,-1332.370696,518.144159,-9652.803275
828.517029,74.020594,-1258.350101,-9806.022374
828.517349,1776.494261,-2368.659014,-10189.070123
828.517669,518.144159,-2442.679609,-9806.022374
828.517989,-518.144159,-1184.329507,-9652.803275
828.518309,74.020594,740.205942,-10035.851024
828.518629,-370.102971,2664.741391,-10035.851024
828.518949,-592.164754,2960.823768,-10648.727422
828.519269,-592.164754,2960.823768,-10112.460574
828.519588,888.247130,74.020594,-10572.117872
828.519908,1850.514855,-1554.432478,-10418.898773
828.520228,0.000000,-1998.556043,-9806.022374
828.520548,-1406.391290,-592.164754,-10112.460574
828.520868,0.000000,666.185348,-10112.460574
828.521188,1554.432478,1776.494261,-10418.898773
828.521508,370.102971,2590.720797,-10189.070123
828.521828,-740.205942,1924.535449,-9959.241474
828.522148,1702.473667,1110.308913,-11184.994271
828.522468,1850.514855,296.082377,-10495.508323
828.522788,1924.535449,222.061783,-10418.898773
828.523108,296.082377,888.247130,-9806.022374
828.523428,-370.102971,1554.432478,-10189.070123
828.523748,814.226536,1702.473667,-10112.460574
828.524068,740.205942,2664.741391,-10418.898773
828.524388,592.164754,1924.535449,-9806.022374
828.524708,2368.659014,1184.329507,-10648.727422
828.525028,2738.761985,1702.473667,-9959.241474
828.525348,814.226536,1628.453072,-9652.803275
828.525668,518.144159,2368.659014,-9422.974625
828.525988,2368.659014,1554.432478,-9193.145976
828.526308,2072.576638,666.185348,-9576.193725
828.526628,2072.576638,-888.247130,-9193.145976
828.526948,1628.453072,-2368.659014,-9039.926876
828.527268,3034.844362,-1702.473667,-9576.193725
828.527588,1850.514855,-666.185348,-9576.193725
828.527908,-296.082377,1850.514855,-9806.022374
828.528228,-888.247130,2516.700203,-9346.365076
828.528548,814.226536,1628.453072,-9882.631924
828.528868,444.123565,666.185348,-9806.022374
828.529188,-592.164754,222.061783,-10878.556072
828.529508,-1406.391290,148.041188,-10189.070123
828.529828,2146.597232,-370.102971,-10418.898773
828.530148,1406.391290,518.144159,-10418.898773
828.530468,-740.205942,1332.370696,-9499.584175
828.530788,-1110.308913,1850.514855,-10418.898773
828.531108,222.061783,1702.473667,-10801.946522
828.531428,-222.061783,1406.391290,-11031.775171
828.531748,-1184.329507,962.267725,-10189.070123
828.532068,740.205942,-740.205942,-10572.117872
828.532388,1554.432478,-740.205942,-10878.556072
828.532707,666.185348,-666.185348,-10725.336972
828.533027,-444.123565,1332.370696,-10418.898773
828.533347,-962.267725,518.144159,-9806.022374
828.533667,1332.370696,814.226536,-10495.508323
828.533987,0.000000,444.123565,-10572.117872
828.534307,-518.144159,0.000000,-9806.022374
828.534627,-962.267725,-888.247130,-9882.631924
828.534947,-518.144159,-1776.494261,-10189.070123
828.535267,74.020594,-1554.432478,-9729.412825
828.535587,0.000000,-1036.288319,-9422.974625
828.535907,1036.288319,-740.205942,-9269.755526
828.536227,1110.308913,444.123565,-9729.412825
828.536547,-296.082377,222.061783,-9576.193725
828.536867,-1406.391290,-962.267725,-8810.098227
828.537187,0.000000,-2664.741391,-9269.755526
828.537507,2368.659014,-2294.638420,-9729.412825
828.537827,1110.308913,-1776.494261,-9499.584175
828.538147,666.185348,-518.144159,-9193.145976
828.538467,1998.556043,0.000000,-9652.803275
828.538787,2220.617826,148.041188,-9882.631924
828.539107,740.205942,296.082377,-10265.679673
828.539427,-962.267725,-148.041188,-9652.803275
828.539747,1110.308913,-370.102971,-10801.946522
828.540067,1850.514855,-222.061783,-10801.946522
828.540387,-518.144159,-148.041188,-10648.727422
828.540707,-592.164754,0.000000,-10112.460574
828.541027,1480.411884,0.000000,-10342.289223
828.541347,1332.370696,962.267725,-11261.603821
828.541667,0.000000,888.247130,-10801.946522
828.541987,-444.123565,888.247130,-10112.460574
828.542307,-518.144159,0.000000,-11031.775171
828.542627,888.247130,-666.185348,-10955.165621
828.542947,0.000000,-370.102971,-10878.556072
828.543267,-518.144159,296.082377,-9959.241474
828.543587,592.164754,1332.370696,-10878.556072
828.543907,1554.432478,2146.597232,-10725.336972
828.544227,222.061783,814.226536,-10495.508323
828.544547,-888.247130,0.000000,-9806.022374
828.544867,0.000000,-1036.288319,-10801.946522
828.545187,740.205942,-444.123565,-10342.289223
828.545507,0.000000,-592.164754,-9576.193725
828.545827,0.000000,666.185348,-9499.584175
828.546146,0.000000,1554.432478,-10495.508323
828.546466,-1036.288319,1924.535449,-10035.851024
828.546786,-740.205942,888.247130,-9576.193725
828.547106,296.082377,-1036.288319,-8886.707777
828.547426,2072.576638,-1776.494261,-10189.070123
828.547746,888.247130,-1554.432478,-9269.755526
828.548066,-148.041188,296.082377,-9729.412825
828.548386,-592.164754,1924.535449,-9193.145976
828.548706,370.102971,2812.782580,-9729.412825
828.549026,740.205942,1998.556043,-9806.022374
828.549346,-148.041188,962.267725,-9959.241474
828.549666,1036.288319,222.061783,-9806.022374
828.549986,1998.556043,-592.164754,-10725.336972
828.550306,962.267725,-740.205942,-9959.241474
828.550626,1110.308913,814.226536,-10342.289223
828.550946,222.061783,2516.700203,-10265.679673
828.551266,1850.514855,3182.885551,-11031.775171
828.551586,1110.308913,3478.967927,-10495.508323
828.551906,-148.041188,2738.761985,-10189.070123
828.552226,1036.288319,1184.329507,-10801.946522
828.552546,2960.823768,-444.123565,-10495.508323
828.552866,1998.556043,0.000000,-10648.727422
828.553186,296.082377,-296.082377,-9882.631924
828.553506,740.205942,1776.494261,-10418.898773
828.553826,1554.432478,2294.638420,-10265.679673
828.554146,296.082377,2590.720797,-10418.898773
828.554466,0.000000,1406.391290,-9729.412825
828.554786,962.267725,148.041188,-9806.022374
828.555106,3330.926739,-296.082377,-10342.289223
828.555426,1702.473667,-296.082377,-9882.631924
828.555746,666.185348,148.041188,-9729.412825
828.556066,888.247130,1480.411884,-9652.803275
828.556386,1554.432478,1850.514855,-9806.022374
828.556705,0.000000,1702.473667,-10035.851024
828.557025,-2294.638420,74.020594,-9269.755526
828.557345,-592.164754,-1332.370696,-9729.412825
828.557665,1258.350101,-1850.514855,-9806.022374
828.557985,666.185348,-2146.597232,-9729.412825
828.558305,0.000000,-444.123565,-9499.584175
828.558625,-814.226536,0.000000,-9499.584175
828.558945,-444.123565,592.164754,-11414.822920
828.559265,-814.226536,1036.288319,-10189.070123
828.559585,-962.267725,0.000000,-10112.460574
828.559905,1036.288319,-1110.308913,-10265.679673
828.560225,2368.659014,-1184.329507,-10265.679673
828.560545,444.123565,-962.267725,-10572.117872
828.560865,-222.061783,0.000000,-9882.631924
828.561185,-444.123565,1258.350101,-10342.289223
828.561505,888.247130,1776.494261,-10955.165621
828.561824,814.226536,0.000000,-10725.336972
828.562144,-1036.288319,-888.247130,-10418.898773
828.562464,-592.164754,-2220.617826,-10878.556072
828.562784,1258.350101,-1924.535449,-10801.946522
828.563104,740.205942,-296.082377,-10572.117872
828.563424,-444.123565,1850.514855,-10265.679673
828.563744,1480.411884,2146.597232,-10572.117872
828.564064,666.185348,2294.638420,-10418.898773
828.564384,296.082377,370.102971,-10189.070123
828.564704,-740.205942,-1036.288319,-9882.631924
828.565024,814.226536,-3034.844362,-10112.460574
828.565344,1702.473667,-1924.535449,-9882.631924
828.565664,888.247130,-1332.370696,-9422.974625
828.565984,0.000000,814.226536,-9729.412825
828.566304,148.041188,962.267725,-9652.803275
828.566624,1184.329507,1258.350101,-10265.679673
828.566943,888.247130,0.000000,-9806.022374
828.567263,296.082377,-370.102971,-9499.584175
828.567583,1110.308913,-2220.617826,-11184.994271
828.567903,1184.329507,-1850.514855,-9882.631924
828.568223,296.082377,-814.226536,-9806.022374
828.568543,-296.082377,888.247130,-9959.241474
828.568863,814.226536,2368.659014,-10112.460574
828.569183,444.123565,2590.720797,-10648.727422
828.569503,0.000000,1184.329507,-10572.117872
828.569823,-1258.350101,0.000000,-9882.631924
828.570143,222.061783,-1332.370696,-10265.679673
828.570463,1480.411884,-1776.494261,-10035.851024
828.570783,592.164754,-296.082377,-9959.241474
828.571103,518.144159,1554.432478,-10265.679673
828.571423,370.102971,1702.473667,-10495.508323
828.571743,148.041188,1554.432478,-10801.946522
828.572062,-962.267725,1480.411884,-10189.070123
828.572382,-740.205942,740.205942,-10035.851024
828.572702,2072.576638,-666.185348,-10955.165621
828.573022,2220.617826,-518.144159,-10418.898773
828.573342,518.144159,666.185348,-10112.460574
828.573662,-888.247130,1184.329507,-9806.022374
828.573982,-148.041188,2368.659014,-10648.727422
828.574302,-222.061783,3330.926739,-10495.508323
828.574622,-222.061783,2220.617826,-10112.460574
828.574942,444.123565,444.123565,-9806.022374
828.575262,1924.535449,-2516.700203,-10112.460574
828.575582,1702.473667,-1998.556043,-10035.851024
828.575902,148.041188,-962.267725,-9193.145976
828.576222,814.226536,1776.494261,-9576.193725
828.576542,1110.308913,3256.906145,-9652.803275
828.576861,1998.556043,3923.091493,-10342.289223
828.577181,962.267725,2886.803174,-9652.803275
828.577501,1332.370696,-296.082377,-9576.193725
828.577821,1702.473667,-1998.556043,-9652.803275
828.578141,888.247130,-1554.432478,-9422.974625
828.578461,888.247130,148.041188,-9652.803275
828.578781,2220.617826,2146.597232,-9729.412825
828.579101,3404.947333,3034.844362,-10112.460574
828.579421,222.061783,2516.700203,-10418.898773
828.579741,-962.267725,814.226536,-9806.022374
828.580061,-962.267725,-666.185348,-9806.022374
828.580381,1702.473667,-1924.535449,-10112.460574
828.580701,222.061783,-2220.617826,-9806.022374
828.581021,-740.205942,-1702.473667,-10035.851024
828.581341,-296.082377,-666.185348,-10418.898773
828.581661,296.082377,2072.576638,-9806.022374
828.581980,0.000000,4219.173869,-11184.994271
828.582300,-444.123565,4885.359217,-10648.727422
828.582620,-148.041188,3108.864956,-11414.822920
828.582940,1998.556043,-740.205942,-10725.336972
828.583260,2368.659014,-2590.720797,-10801.946522
828.583580,-296.082377,-3478.967927,-9806.022374
828.583900,-222.061783,-1850.514855,-10495.508323
828.584220,-222.061783,592.164754,-10265.679673
828.584540,-444.123565,2368.659014,-10265.679673
828.584860,-1628.453072,2516.700203,-9882.631924
828.585180,370.102971,592.164754,-10265.679673
828.585500,1258.350101,-1850.514855,-10035.851024
828.585820,0.000000,-2664.741391,-9806.022374
828.586140,-592.164754,-2664.741391,-8656.879127
828.586460,962.267725,-1258.350101,-9346.365076
828.586780,740.205942,-222.061783,-9652.803275
828.587099,1110.308913,0.000000,-10112.460574
828.587419,-296.082377,74.020594,-8886.707777
828.587739,592.164754,0.000000,-10648.727422
828.588059,1036.288319,296.082377,-10112.460574
828.588379,0.000000,-148.041188,-9882.631924
828.588699,-666.185348,-740.205942,-9652.803275
828.589019,148.041188,-1776.494261,-9806.022374
828.589339,-148.041188,-1184.329507,-10035.851024
828.589659,-1480.411884,-222.061783,-10495.508323
828.589979,-518.144159,296.082377,-9806.022374
828.590299,2368.659014,444.123565,-10342.289223
828.590619,3627.009116,740.205942,-10265.679673
828.590939,2516.700203,1332.370696,-10572.117872
828.591259,1924.535449,1258.350101,-10189.070123
828.591579,3108.864956,814.226536,-10265.679673
828.591899,2664.741391,444.123565,-10725.336972
828.592218,-1332.370696,444.123565,-10035.851024
828.592538,-3552.988522,0.000000,-9806.022374
828.592858,-1258.350101,-814.226536,-10265.679673
828.593178,-370.102971,-592.164754,-9959.241474
828.593498,0.000000,-222.061783,-10112.460574
828.593818,-518.144159,962.267725,-10035.851024
828.594138,0.000000,888.247130,-9959.241474
828.594458,74.020594,1850.514855,-10265.679673
828.594778,-2146.597232,1110.308913,-10035.851024
828.595098,-370.102971,0.000000,-9882.631924
828.595418,1998.556043,-148.041188,-10189.070123
828.595738,1480.411884,518.144159,-9959.241474
828.596058,518.144159,1036.288319,-9806.022374
828.596378,148.041188,1332.370696,-9959.241474
828.596698,0.000000,1850.514855,-9806.022374
828.597017,1998.556043,1628.453072,-10725.336972
828.597337,592.164754,1332.370696,-10035.851024
828.597657,-1184.329507,-296.082377,-9652.803275
828.597977,888.247130,0.000000,-10265.679673
828.598297,-222.061783,814.226536,-9806.022374
828.598617,0.000000,2072.576638,-10265.679673
828.598937,-222.061783,2738.761985,-9269.755526
828.599257,888.247130,2220.617826,-10035.851024
828.599577,2294.638420,2220.617826,-10495.508323
828.599897,1702.473667,1110.308913,-9882.631924
828.600217,1184.329507,-666.185348,-8810.098227
828.600537,1776.494261,-1480.411884,-9882.631924
828.600857,1480.411884,-962.267725,-9882.631924
828.601177,962.267725,888.247130,-9806.022374
828.601497,666.185348,2368.659014,-9729.412825
828.601817,888.247130,4071.132681,-10955.165621
828.602136,592.164754,3478.967927,-10725.336972
828.602456,962.267725,888.247130,-10112.460574
828.602776,814.226536,-1850.514855,-9882.631924
828.603096,1480.411884,-2294.638420,-10955.165621
828.603416,814.226536,-1702.473667,-9806.022374
828.603736,1110.308913,814.226536,-9959.241474
828.604056,1998.556043,814.226536,-9806.022374
828.604376,1702.473667,1850.514855,-9729.412825
828.604696,1110.308913,2368.659014,-10265.679673
828.605016,518.144159,444.123565,-9882.631924
828.605336,814.226536,-1258.350101,-9959.241474
828.605656,1332.370696,-962.267725,-10112.460574
828.605976,370.102971,-888.247130,-9576.193725
828.606296,-888.247130,-666.185348,-9806.022374
828.606616,444.123565,-222.061783,-9882.631924
828.606936,222.061783,74.020594,-9959.241474
828.607255,-148.041188,666.185348,-10418.898773
828.607575,-518.144159,1702.473667,-10035.851024
828.607895,0.000000,-370.102971,-10189.070123
828.608215,962.267725,-666.185348,-9959.241474
828.608535,-740.205942,-2146.597232,-9729.412825
828.608855,0.000000,-2368.659014,-8197.221829
828.609175,-222.061783,-1480.411884,-9882.631924
828.609495,888.247130,0.000000,-10112.460574
828.609815,2146.597232,592.164754,-10418.898773
828.610135,-518.144159,0.000000,-9806.022374
828.610455,0.000000,0.000000,-10189.070123
828.610775,222.061783,-962.267725,-10265.679673
828.611095,888.247130,-296.082377,-10648.727422
828.611415,-444.123565,296.082377,-9576.193725
828.611735,1258.350101,1036.288319,-10265.679673
828.612055,1480.411884,74.020594,-10495.508323
828.612374,0.000000,-962.267725,-10648.727422
828.612694,-1776.494261,-1628.453072,-9652.803275
828.613014,-1258.350101,-2368.659014,-10648.727422
828.613334,0.000000,518.144159,-10189.070123
828.613654,370.102971,1702.473667,-10112.460574
828.613974,1850.514855,2294.638420,-10189.070123
828.614294,2294.638420,814.226536,-10189.070123
828.614614,2812.782580,-1332.370696,-10189.070123
828.614934,370.102971,-1332.370696,-9882.631924
828.615254,-1036.288319,-888.247130,-9729.412825
828.615574,666.185348,370.102971,-10648.727422
828.615894,666.185348,1480.411884,-9422.974625
828.616214,-1036.288319,148.041188,-10189.070123
828.616534,-2072.576638,-888.247130,-9729.412825
828.616854,-592.164754,-444.123565,-9959.241474
828.617174,962.267725,222.061783,-10418.898773
828.617493,962.267725,222.061783,-10112.460574
828.617813,0.000000,0.000000,-10189.070123
828.618133,148.041188,-444.123565,-10265.679673
828.618453,0.000000,814.226536,-10265.679673
828.618773,-888.247130,888.247130,-9806.022374
828.619093,0.000000,2442.679609,-10112.460574
828.619413,1554.432478,2220.617826,-10342.289223
828.619733,1776.494261,518.144159,-10801.946522
828.620053,-296.082377,-1036.288319,-9806.022374
828.620373,-666.185348,-370.102971,-10112.460574
828.620693,0.000000,592.164754,-10495.508323
828.621013,-444.123565,814.226536,-10112.460574
828.621333,-518.144159,888.247130,-10035.851024
828.621653,0.000000,1406.391290,-11108.384721
828.621973,666.185348,1110.308913,-10342.289223
828.622292,2590.720797,444.123565,-10112.460574
828.622612,1258.350101,1406.391290,-9959.241474
828.622932,296.082377,1406.391290,-9959.241474
828.623252,1702.473667,888.247130,-10801.946522
828.623572,1184.329507,-518.144159,-9346.365076
828.623892,-444.123565,296.082377,-9882.631924
828.624212,-592.164754,148.041188,-9346.365076
828.624532,2738.761985,666.185348,-9806.022374
828.624852,2072.576638,1850.514855,-9959.241474
828.625172,1998.556043,2812.782580,-10112.460574
828.625492,1036.288319,1184.329507,-10265.679673
828.625812,2072.576638,-1258.350101,-9729.412825
828.626132,3182.885551,-1406.391290,-10112.460574
828.626452,1554.432478,0.000000,-9806.022374
828.626772,1258.350101,1554.432478,-10189.070123
828.627092,1924.535449,2368.659014,-9882.631924
828.627411,740.205942,3256.906145,-11031.775171
828.627731,-740.205942,1998.556043,-9806.022374
828.628051,888.247130,518.144159,-10572.117872
828.628371,2368.659014,-666.185348,-10342.289223
828.628691,1998.556043,0.000000,-10265.679673
828.629011,-222.061783,0.000000,-9882.631924
828.629331,148.041188,0.000000,-10112.460574
828.629651,74.020594,296.082377,-10112.460574
828.629971,518.144159,1628.453072,-10418.898773
828.630291,518.144159,1924.535449,-10035.851024
828.630611,1258.350101,296.082377,-10648.727422
828.630931,2220.617826,-370.102971,-10035.851024
828.631251,0.000000,-222.061783,-10495.508323
828.631571,-2368.659014,-370.102971,-9346.365076
828.631891,-1998.556043,-740.205942,-10035.851024
828.632211,-1110.308913,-370.102971,-9882.631924
828.632530,-1332.370696,1036.288319,-10112.460574
828.632850,-1998.556043,370.102971,-9576.193725
828.633170,0.000000,-296.082377,-10112.460574
828.633490,370.102971,-1110.308913,-9346.365076
828.633810,444.123565,-1184.329507,-10342.289223
828.634130,148.041188,-1924.535449,-9116.536426
828.634450,2664.741391,-2812.782580,-9346.365076
828.634770,1628.453072,-888.247130,-10035.851024
828.635090,-222.061783,592.164754,-9806.022374
828.635410,-1554.432478,1258.350101,-9959.241474
828.635730,148.041188,1850.514855,-10418.898773
828.636050,2368.659014,740.205942,-10418.898773
828.636370,370.102971,-518.144159,-10035.851024
828.636690,-962.267725,-1406.391290,-9806.022374
828.637010,0.000000,-1406.391290,-10189.070123
828.637330,444.123565,-740.205942,-10035.851024
828.637649,888.247130,-518.144159,-9882.631924
828.637969,0.000000,0.000000,-10189.070123
828.638289,0.000000,-444.123565,-10572.117872
828.638609,888.247130,1184.329507,-11031.775171
828.638929,1998.556043,1332.370696,-10725.336972
828.639249,1850.514855,1924.535449,-10112.460574
828.639569,1924.535449,1628.453072,-10878.556072
828.639889,1554.432478,1924.535449,-11261.603821
828.640209,1036.288319,814.226536,-10648.727422
828.640529,-222.061783,0.000000,-10035.851024
828.640849,1332.370696,-1258.350101,-10342.289223
828.641169,2738.761985,-444.123565,-10342.289223
828.641489,2516.700203,740.205942,-9806.022374
828.641809,1184.329507,2368.659014,-9959.241474
828.642129,666.185348,1480.411884,-10112.460574
828.642448,-962.267725,1924.535449,-10265.679673
828.642768,-2368.659014,1924.535449,-9652.803275
828.643088,-1036.288319,1036.288319,-9652.803275
828.643408,1184.329507,518.144159,-10035.851024
828.643728,1480.411884,-148.041188,-9959.241474
828.644048,518.144159,-1332.370696,-9193.145976
828.644368,740.205942,0.000000,-9039.926876
828.644688,1702.473667,74.020594,-9499.584175
828.645008,1406.391290,962.267725,-9806.022374
828.645328,-518.144159,1036.288319,-9269.755526
828.645648,-1036.288319,-740.205942,-9806.022374
828.645968,-444.123565,-1554.432478,-9346.365076
828.646288,-296.082377,-2738.761985,-9806.022374
828.646608,-1702.473667,-592.164754,-9499.584175
828.646928,-1554.432478,1776.494261,-9806.022374
828.647248,-296.082377,3552.988522,-10265.679673
828.647567,592.164754,3256.906145,-10801.946522
828.647887,-444.123565,1258.350101,-10112.460574
828.648207,-666.185348,-1332.370696,-10495.508323
828.648527,148.041188,-2516.700203,-10112.460574
828.648847,962.267725,-592.164754,-10495.508323
828.649167,1850.514855,1480.411884,-10572.117872
828.649487,2442.679609,2738.761985,-10801.946522
828.649807,3182.885551,3034.844362,-10878.556072
828.650127,1554.432478,3256.906145,-11261.603821
828.650447,370.102971,1406.391290,-10418.898773
828.650767,666.185348,-296.082377,-10725.336972
828.651087,1702.473667,-2072.576638,-10035.851024
828.651407,1554.432478,-2368.659014,-9959.241474
828.651727,0.000000,-1110.308913,-9652.803275
828.652047,148.041188,518.144159,-9959.241474
828.652367,444.123565,2294.638420,-10265.679673
828.652686,0.000000,3330.926739,-10572.117872
828.653006,0.000000,2294.638420,-9346.365076
828.653326,1628.453072,-962.267725,-9882.631924
828.653646,2738.761985,-3034.844362,-9499.584175
828.653966,1406.391290,-3775.050304,-9729.412825
828.654286,814.226536,-2220.617826,-8963.317327
828.654606,1480.411884,-148.041188,-9499.584175
828.654926,2368.659014,1924.535449,-9729.412825
828.655246,666.185348,2368.659014,-10342.289223
828.655566,-740.205942,1184.329507,-9499.584175
828.655886,518.144159,-1184.329507,-10265.679673
828.656206,1406.391290,-2146.597232,-9652.803275
828.656526,-518.144159,-2220.617826,-9729.412825
828.656846,-2368.659014,-962.267725,-9346.365076
828.657166,0.000000,-814.226536,-10648.727422
828.657486,814.226536,296.082377,-10342.289223
828.657806,-814.226536,370.102971,-10418.898773
828.658126,-814.226536,666.185348,-9959.241474
828.658446,1110.308913,74.020594,-10495.508323
828.658766,2812.782580,0.000000,-10801.946522
828.659086,814.226536,-518.144159,-10648.727422
828.659406,-1998.556043,-370.102971,-9729.412825
828.659726,-1850.514855,-296.082377,-10342.289223
828.660046,-666.185348,0.000000,-10342.289223
828.660366,74.020594,0.000000,-10572.117872
828.660686,296.082377,-370.102971,-10035.851024
828.661006,2072.576638,-888.247130,-10572.117872
828.661326,2368.659014,-296.082377,-10112.460574
828.661646,1554.432478,0.000000,-10265.679673
828.661966,-518.144159,814.226536,-9959.241474
828.662286,370.102971,888.247130,-9959.241474
828.662606,518.144159,814.226536,-9959.241474
828.662926,-444.123565,1184.329507,-10648.727422
828.663246,0.000000,-296.082377,-9806.022374
828.663566,962.267725,-1258.350101,-10801.946522
828.663886,888.247130,148.041188,-10112.460574
828.664206,444.123565,1850.514855,-9729.412825
828.664526,-666.185348,3330.926739,-9499.584175
828.664846,-592.164754,2886.803174,-10189.070123
828.665166,222.061783,2146.597232,-9959.241474
828.665485,148.041188,-222.061783,-9959.241474
828.665805,1110.308913,-1332.370696,-9116.536426
828.666125,2368.659014,-1850.514855,-9576.193725
828.666445,2664.741391,-296.082377,-9806.022374
828.666765,1924.535449,2738.761985,-9729.412825
828.667085,1702.473667,3923.091493,-9806.022374
828.667405,1406.391290,3404.947333,-9959.241474
828.667725,370.102971,1554.432478,-10648.727422
828.668045,-666.185348,222.061783,-9959.241474
828.668365,-296.082377,-1406.391290,-10035.851024
828.668685,1406.391290,-2072.576638,-9882.631924
828.669005,0.000000,-666.185348,-10572.117872
828.669325,-962.267725,1036.288319,-10035.851024
828.669645,-962.267725,2368.659014,-10648.727422
828.669965,-740.205942,3849.070898,-9959.241474
828.670285,-296.082377,3256.906145,-10801.946522
828.670605,-296.082377,1036.288319,-10342.289223
828.670925,1184.329507,-1628.453072,-10342.289223
828.671245,2072.576638,-2368.659014,-10495.508323
828.671565,1332.370696,-592.164754,-9652.803275
828.671885,148.041188,592.164754,-9729.412825
828.672205,740.205942,2294.638420,-10265.679673
828.672525,888.247130,3108.864956,-10495.508323
828.672845,-518.144159,2442.679609,-10189.070123
828.673165,-2590.720797,444.123565,-9652.803275
828.673485,-1850.514855,-1924.535449,-9806.022374
828.673805,592.164754,-2442.679609,-9729.412825
828.674125,1184.329507,-2072.576638,-9806.022374
828.674445,-74.020594,-296.082377,-9346.365076
828.674765,74.020594,888.247130,-10035.851024
828.675085,1554.432478,1998.556043,-9959.241474
828.675405,1406.391290,2368.659014,-10572.117872
828.675725,814.226536,1776.494261,-9806.022374
828.676045,444.123565,74.020594,-10035.851024
828.676365,1554.432478,-518.144159,-9806.022374
828.676685,1332.370696,-814.226536,-10112.460574
828.677005,1776.494261,-666.185348,-9806.022374
828.677325,2368.659014,-518.144159,-9959.241474
828.677645,2960.823768,962.267725,-10342.289223
828.677965,1480.411884,2368.659014,-10648.727422
828.678285,74.020594,2368.659014,-10342.289223
828.678605,148.041188,1332.370696,-9652.803275
828.678925,1258.350101,518.144159,-10572.117872
828.679245,1258.350101,0.000000,-10572.117872
828.679565,1036.288319,222.061783,-10265.679673
828.679885,1258.350101,296.082377,-10418.898773
828.680205,1332.370696,888.247130,-10265.679673
828.680525,296.082377,814.226536,-10342.289223
828.680845,-444.123565,74.020594,-10035.851024
828.681165,962.267725,-1110.308913,-10189.070123
828.681485,1924.535449,-1406.391290,-9959.241474
828.681805,740.205942,-962.267725,-9959.241474
828.682124,-518.144159,222.061783,-9652.803275
828.682444,74.020594,444.123565,-9882.631924
828.682764,962.267725,814.226536,-9806.022374
828.683084,-296.082377,-370.102971,-9959.241474
828.683404,-592.164754,-1184.329507,-9729.412825
828.683724,222.061783,-1702.473667,-9959.241474
828.684044,1332.370696,-1036.288319,-9652.803275
828.684364,148.041188,-370.102971,-9806.022374
828.684684,-666.185348,74.020594,-9576.193725
828.685004,-370.102971,-444.123565,-9882.631924
828.685324,-592.164754,-666.185348,-10189.070123
828.685644,-1110.308913,-740.205942,-9959.241474
828.685964,-1776.494261,-888.247130,-9652.803275
828.686284,0.000000,-888.247130,-10265.679673
828.686604,1258.350101,-518.144159,-10112.460574
828.686924,1554.432478,-370.102971,-10189.070123
828.687244,1036.288319,-444.123565,-10265.679673
828.687564,1184.329507,-444.123565,-9806.022374
828.687884,444.123565,888.247130,-10495.508323
828.688204,-222.061783,2072.576638,-10648.727422
828.688524,370.102971,1998.556043,-9652.803275
828.688844,1998.556043,666.185348,-10955.165621
828.689164,2072.576638,-518.144159,-10495.508323
828.689484,592.164754,-888.247130,-10112.460574
828.689804,-814.226536,370.102971,-10112.460574
828.690124,-444.123565,1998.556043,-9806.022374
828.690444,-740.205942,2368.659014,-10648.727422
828.690764,-444.123565,1480.411884,-10418.898773
828.691084,-296.082377,-666.185348,-10418.898773
828.691404,1406.391290,-1554.432478,-11108.384721
828.691724,1332.370696,-666.185348,-10342.289223
828.692044,518.144159,1184.329507,-9959.241474
