#time,accel_x,accel_y,accel_z
869.327271,518.144159,592.164754,-9959.241474
869.327592,444.123565,518.144159,-10112.460574
869.327912,740.205942,296.082377,-9959.241474
869.328232,148.041188,222.061783,-10112.460574
869.328552,592.164754,-148.041188,-9882.631924
869.328873,370.102971,-296.082377,-9959.241474
869.329193,296.082377,0.000000,-9882.631924
869.329513,222.061783,370.102971,-9959.241474
869.329833,296.082377,666.185348,-10035.851024
869.330153,740.205942,444.123565,-9882.631924
869.330474,962.267725,148.041188,-10265.679673
869.330794,740.205942,0.000000,-10572.117872
869.331114,222.061783,-222.061783,-10189.070123
869.331434,0.000000,0.000000,-10189.070123
869.331754,444.123565,0.000000,-9959.241474
869.332075,592.164754,518.144159,-10342.289223
869.332395,0.000000,592.164754,-9729.412825
869.332715,518.144159,222.061783,-10265.679673
869.333035,962.267725,0.000000,-10265.679673
869.333355,814.226536,148.041188,-10035.851024
869.333676,222.061783,222.061783,-10265.679673
869.333996,370.102971,148.041188,-10265.679673
869.334316,518.144159,222.061783,-10189.070123
869.334636,444.123565,74.020594,-10189.070123
869.334957,0.000000,0.000000,-10189.070123
869.335277,-444.123565,-592.164754,-10112.460574
869.335597,-814.226536,-592.164754,-10035.851024
869.335917,-74.020594,-370.102971,-10035.851024
869.336237,0.000000,0.000000,-10342.289223
869.336558,-740.205942,0.000000,-10035.851024
869.336878,-1036.288319,-296.082377,-10112.460574
869.337198,-148.041188,-666.185348,-10035.851024
869.337518,-444.123565,-888.247130,-9806.022374
869.337838,-1258.350101,-1332.370696,-9959.241474
869.338159,-1036.288319,-1480.411884,-9576.193725
869.338479,-370.102971,-1480.411884,-9729.412825
869.338799,-814.226536,-1406.391290,-9882.631924
869.339119,-1776.494261,-1702.473667,-10112.460574
869.339439,-1924.535449,-1702.473667,-9806.022374
869.339760,-1406.391290,-1702.473667,-9499.584175
869.340080,-740.205942,-1702.473667,-9882.631924
869.340400,-1406.391290,-1628.453072,-10035.851024
869.340720,-1332.370696,-2368.659014,-9882.631924
869.341041,-444.123565,-1850.514855,-9729.412825
869.341361,74.020594,-1924.535449,-10035.851024
869.341681,-814.226536,-1702.473667,-10112.460574
869.342001,-2368.659014,-2072.576638,-10418.898773
869.342321,-3034.844362,-2664.741391,-9882.631924
869.342642,-2590.720797,-2812.782580,-9959.241474
869.342962,-2590.720797,-3108.864956,-9882.631924
869.343282,-2516.700203,-3478.967927,-10035.851024
869.343602,-2738.761985,-3775.050304,-10112.460574
869.343922,-2590.720797,-2664.741391,-9806.022374
869.344243,-222.061783,-2220.617826,-10495.508323
869.344563,1184.329507,-1406.391290,-10342.289223
869.344883,740.205942,-1110.308913,-10648.727422
869.345203,-370.102971,-962.267725,-10418.898773
869.345524,-2368.659014,-888.247130,-10342.289223
869.345844,-3256.906145,-2442.679609,-10189.070123
869.346164,-4959.379811,-3849.070898,-9959.241474
869.346484,-5625.565159,-4885.359217,-9729.412825
869.346804,-4885.359217,-4885.359217,-9499.584175
869.347125,-2072.576638,-5181.441594,-9882.631924
869.347445,0.000000,-3552.988522,-10342.289223
869.347765,740.205942,-1258.350101,-10265.679673
869.348085,1258.350101,518.144159,-11414.822920
869.348405,2072.576638,1998.556043,-10801.946522
869.348726,2516.700203,1406.391290,-10495.508323
869.349046,1776.494261,0.000000,-10495.508323
869.349366,-518.144159,-1850.514855,-10265.679673
869.349686,-1776.494261,-2738.761985,-9882.631924
869.350006,-3923.091493,-3182.885551,-9882.631924
869.350327,-5551.544565,-3478.967927,-9346.365076
869.350647,-5477.523971,-4219.173869,-9193.145976
869.350967,-3627.009116,-4589.276840,-9729.412825
869.351287,-148.041188,-4737.318029,-9806.022374
869.351608,1406.391290,-3404.947333,-9806.022374
869.351928,1554.432478,0.000000,-10265.679673
869.352248,2812.782580,3256.906145,-10189.070123
869.352568,4071.132681,4737.318029,-10801.946522
869.352888,3627.009116,3923.091493,-11108.384721
869.353209,-296.082377,666.185348,-10265.679673
869.353529,-4737.318029,-2664.741391,-10112.460574
869.353849,-6661.853478,-5329.482782,-8886.707777
869.354169,-5551.544565,-6809.894666,-9499.584175
869.354489,-4071.132681,-6513.812290,-9422.974625
869.354810,-3478.967927,-5255.462188,-9346.365076
869.355130,-2220.617826,-2516.700203,-9652.803275
869.355450,370.102971,962.267725,-10265.679673
869.355770,2442.679609,3552.988522,-10878.556072
869.356091,3034.844362,3923.091493,-10725.336972
869.356411,3182.885551,2738.761985,-10572.117872
869.356731,2590.720797,296.082377,-11721.261119
869.357051,888.247130,-1998.556043,-10801.946522
869.357371,-2294.638420,-2146.597232,-10035.851024
869.357692,-5107.421000,-1998.556043,-9806.022374
869.358012,-5847.626942,-1924.535449,-10878.556072
869.358332,-7550.100608,-3404.947333,-9959.241474
869.358652,-7846.182985,-5551.544565,-8580.269578
869.358972,-5773.606348,-6883.915261,-9039.926876
869.359293,-1258.350101,-5699.585753,-9346.365076
869.359613,2368.659014,-1702.473667,-10265.679673
869.359933,3108.864956,1554.432478,-10495.508323
869.360253,1924.535449,4293.194464,-10189.070123
869.360573,1406.391290,4737.318029,-10495.508323
869.360894,2294.638420,2516.700203,-10342.289223
869.361214,1406.391290,-1110.308913,-10572.117872
869.361534,-1036.288319,-3552.988522,-10342.289223
869.361854,-4885.359217,-5107.421000,-10112.460574
869.362175,-7698.141797,-5255.462188,-9576.193725
869.362495,-8734.430116,-4219.173869,-8886.707777
869.362815,-8068.244768,-4219.173869,-9116.536426
869.363135,-4145.153275,-4737.318029,-8656.879127
869.363455,1036.288319,-4293.194464,-10112.460574
869.363776,3701.029710,-2516.700203,-10572.117872
869.364096,3182.885551,-1480.411884,-10342.289223
869.364416,3108.864956,1480.411884,-10495.508323
869.364736,3330.926739,3182.885551,-10955.165621
869.365056,3701.029710,3923.091493,-11108.384721
869.365377,888.247130,1332.370696,-10878.556072
869.365697,-4737.318029,-1406.391290,-10342.289223
869.366017,-7402.059420,-4885.359217,-9652.803275
869.366337,-7402.059420,-8586.388927,-9806.022374
869.366657,-5403.503377,-9474.636058,-8733.488677
869.366978,-4515.256246,-9326.594869,-9116.536426
869.367298,-3256.906145,-7105.977043,-9346.365076
869.367618,-888.247130,-2960.823768,-9193.145976
869.367938,2442.679609,1480.411884,-10801.946522
869.368259,6439.791695,3849.070898,-11031.775171
869.368579,6809.894666,3182.885551,-11491.432470
869.368899,3256.906145,1258.350101,-10725.336972
869.369219,-444.123565,-1110.308913,-10418.898773
869.369539,-3404.947333,-2960.823768,-10265.679673
869.369860,-4441.235652,-4663.297435,-10265.679673
869.370180,-6439.791695,-4071.132681,-10112.460574
869.370500,-9104.533087,-5181.441594,-9729.412825
869.370820,-7772.162391,-6069.688724,-8886.707777
869.371140,-3775.050304,-5921.647536,-9882.631924
869.371461,-444.123565,-4589.276840,-9959.241474
869.371781,0.000000,-1406.391290,-10648.727422
869.372101,-222.061783,-296.082377,-10418.898773
869.372421,1776.494261,444.123565,-10189.070123
869.372742,3552.988522,888.247130,-10418.898773
869.373062,3627.009116,2294.638420,-10801.946522
869.373382,1776.494261,666.185348,-10955.165621
869.373702,74.020594,-666.185348,-10648.727422
869.374022,-2368.659014,-3330.926739,-10189.070123
869.374343,-5477.523971,-4885.359217,-9729.412825
869.374663,-8068.244768,-4589.276840,-9576.193725
869.374983,-7105.977043,-5181.441594,-9422.974625
869.375303,-5033.400406,-4737.318029,-9499.584175
869.375623,-1036.288319,-2294.638420,-9346.365076
869.375944,2220.617826,-1332.370696,-10112.460574
869.376264,3701.029710,0.000000,-10418.898773
869.376584,2960.823768,666.185348,-9729.412825
869.376904,148.041188,1628.453072,-10572.117872
869.377224,1332.370696,1258.350101,-10035.851024
869.377545,1480.411884,148.041188,-10418.898773
869.377865,1110.308913,0.000000,-10112.460574
869.378185,-1184.329507,-666.185348,-9806.022374
869.378505,-2738.761985,-3404.947333,-9576.193725
869.378826,-3034.844362,-4589.276840,-9959.241474
869.379146,-3108.864956,-4071.132681,-9652.803275
869.379466,-3923.091493,-2516.700203,-9346.365076
869.379786,-2738.761985,-962.267725,-9806.022374
869.380106,-1628.453072,-518.144159,-10112.460574
869.380427,-1850.514855,-740.205942,-10112.460574
869.380747,0.000000,666.185348,-10265.679673
869.381067,1776.494261,0.000000,-9806.022374
869.381387,1628.453072,2368.659014,-10725.336972
869.381707,1406.391290,1702.473667,-10572.117872
869.382028,444.123565,370.102971,-10418.898773
869.382348,-296.082377,-1184.329507,-9806.022374
869.382668,-2590.720797,-3256.906145,-10189.070123
869.382988,-3552.988522,-5107.421000,-9422.974625
869.383308,-4589.276840,-4145.153275,-9729.412825
869.383629,-3701.029710,-2368.659014,-9193.145976
869.383949,-1332.370696,592.164754,-9806.022374
869.384269,148.041188,1184.329507,-10495.508323
869.384589,666.185348,370.102971,-10035.851024
869.384909,2590.720797,1184.329507,-10725.336972
869.385230,3330.926739,814.226536,-10801.946522
869.385550,740.205942,592.164754,-10112.460574
869.385870,-740.205942,0.000000,-10035.851024
869.386190,-444.123565,-1184.329507,-9729.412825
869.386510,-740.205942,0.000000,-9806.022374
869.386831,-962.267725,-1480.411884,-9806.022374
869.387151,-370.102971,-2368.659014,-10265.679673
869.387471,-296.082377,-2516.700203,-9652.803275
869.387791,370.102971,-2442.679609,-9652.803275
869.388111,1110.308913,-2812.782580,-9806.022374
869.388431,1480.411884,-962.267725,-9806.022374
869.388752,1554.432478,1702.473667,-10572.117872
869.389072,1776.494261,4071.132681,-10725.336972
869.389392,4663.297435,4589.276840,-10495.508323
869.389712,2146.597232,3256.906145,-10725.336972
869.390032,-296.082377,-962.267725,-10342.289223
869.390353,-1554.432478,-3849.070898,-9576.193725
869.390673,-1554.432478,-3923.091493,-9422.974625
869.390993,-444.123565,-2738.761985,-10265.679673
869.391313,-814.226536,-2368.659014,-10189.070123
869.391633,-2738.761985,74.020594,-10035.851024
869.391953,-3034.844362,222.061783,-10342.289223
869.392274,1776.494261,-962.267725,-9959.241474
869.392594,3552.988522,-962.267725,-10495.508323
869.392914,3330.926739,666.185348,-10418.898773
869.393234,1406.391290,1258.350101,-10648.727422
869.393554,1406.391290,2368.659014,-10189.070123
869.393875,1258.350101,1554.432478,-10342.289223
869.394195,-666.185348,1036.288319,-9959.241474
869.394515,-1332.370696,1480.411884,-10112.460574
869.394835,-2664.741391,-222.061783,-10418.898773
869.395155,-1924.535449,-4885.359217,-9806.022374
869.395475,-2072.576638,-3923.091493,-9422.974625
869.395796,-1628.453072,-2294.638420,-9346.365076
869.396116,-1776.494261,-370.102971,-10342.289223
869.396436,1110.308913,0.000000,-9346.365076
869.396756,2738.761985,222.061783,-10189.070123
869.397076,4219.173869,1406.391290,-10878.556072
869.397397,3478.967927,3478.967927,-11108.384721
869.397717,1480.411884,4071.132681,-10572.117872
869.398037,296.082377,2368.659014,-9576.193725
869.398357,666.185348,-592.164754,-10265.679673
869.398677,-444.123565,-3034.844362,-9422.974625
869.398997,-592.164754,-2664.741391,-10418.898773
869.399318,-1554.432478,-2960.823768,-9039.926876
869.399638,-2368.659014,-1998.556043,-9499.584175
869.399958,-1628.453072,148.041188,-9346.365076
869.400278,370.102971,592.164754,-10112.460574
869.400598,2812.782580,-148.041188,-10265.679673
869.400919,2812.782580,-1850.514855,-9269.755526
869.401239,2072.576638,-444.123565,-10035.851024
869.401559,1998.556043,1332.370696,-9806.022374
869.401879,2738.761985,1776.494261,-10418.898773
869.402199,3108.864956,740.205942,-10495.508323
869.402520,1850.514855,148.041188,-10035.851024
869.402840,592.164754,444.123565,-10572.117872
869.403160,-1776.494261,666.185348,-10189.070123
869.403480,-2590.720797,-148.041188,-10112.460574
869.403800,-3330.926739,0.000000,-10495.508323
869.404120,-814.226536,-1332.370696,-10112.460574
869.404441,1480.411884,-370.102971,-9652.803275
869.404761,2812.782580,1184.329507,-10801.946522
869.405081,3701.029710,2590.720797,-10878.556072
869.405401,2886.803174,4293.194464,-10418.898773
869.405721,2812.782580,3330.926739,-10725.336972
869.406042,2368.659014,0.000000,-9499.584175
869.406362,1110.308913,-370.102971,-11108.384721
869.406682,592.164754,-1776.494261,-9959.241474
869.407002,0.000000,-1258.350101,-10495.508323
869.407322,-1258.350101,-74.020594,-10035.851024
869.407642,-2886.803174,1332.370696,-10342.289223
869.407963,-2072.576638,-296.082377,-10035.851024
869.408283,-814.226536,-962.267725,-9576.193725
869.408603,1036.288319,-1628.453072,-10112.460574
869.408923,2294.638420,666.185348,-10265.679673
869.409243,2516.700203,0.000000,-9806.022374
869.409564,666.185348,-296.082377,-9882.631924
869.409884,-222.061783,518.144159,-9269.755526
869.410204,-592.164754,2368.659014,-10342.289223
869.410524,444.123565,1184.329507,-10189.070123
869.410844,148.041188,-444.123565,-9882.631924
869.411164,-740.205942,-1924.535449,-9652.803275
869.411485,-3997.112087,-1480.411884,-9193.145976
869.411805,-3404.947333,-888.247130,-9652.803275
869.412125,-2664.741391,-1258.350101,-10035.851024
869.412445,-1036.288319,-1332.370696,-9806.022374
869.412765,0.000000,-666.185348,-10035.851024
869.413086,888.247130,962.267725,-10035.851024
869.413406,2738.761985,2812.782580,-9806.022374
869.413726,1184.329507,4663.297435,-11874.480219
869.414046,1110.308913,3256.906145,-10342.289223
869.414366,74.020594,1406.391290,-10265.679673
869.414686,74.020594,-740.205942,-9959.241474
869.415007,222.061783,-1036.288319,-10495.508323
869.415327,-518.144159,-1036.288319,-10648.727422
869.415647,-592.164754,-148.041188,-9882.631924
869.415967,370.102971,-1110.308913,-10265.679673
869.416287,0.000000,-592.164754,-9499.584175
869.416608,74.020594,-148.041188,-10342.289223
869.416928,1924.535449,666.185348,-10801.946522
869.417248,3256.906145,1850.514855,-10342.289223
869.417568,2146.597232,2812.782580,-10189.070123
869.417888,2664.741391,2812.782580,-10418.898773
869.418208,3256.906145,444.123565,-9882.631924
869.418529,2886.803174,-962.267725,-10342.289223
869.418849,2368.659014,-518.144159,-10265.679673
869.419169,370.102971,-74.020594,-10265.679673
869.419489,518.144159,962.267725,-10265.679673
869.419809,-296.082377,518.144159,-9499.584175
869.420130,296.082377,-592.164754,-9806.022374
869.420450,370.102971,370.102971,-9729.412825
869.420770,1998.556043,370.102971,-10112.460574
869.421090,2886.803174,-592.164754,-10418.898773
869.421410,3256.906145,1628.453072,-9729.412825
869.421730,3108.864956,888.247130,-10342.289223
869.422051,2220.617826,888.247130,-9959.241474
869.422371,2146.597232,3256.906145,-9882.631924
869.422691,1776.494261,2812.782580,-10725.336972
869.423011,148.041188,1258.350101,-10342.289223
869.423331,-1924.535449,74.020594,-10112.460574
869.423652,-666.185348,-1998.556043,-10265.679673
869.423972,-814.226536,-4515.256246,-9193.145976
869.424292,-296.082377,-2516.700203,-10265.679673
869.424612,-740.205942,-148.041188,-10418.898773
869.424932,-1480.411884,518.144159,-9959.241474
869.425253,-592.164754,2516.700203,-10418.898773
869.425573,592.164754,3256.906145,-10495.508323
869.425893,2072.576638,1998.556043,-10572.117872
869.426213,3627.009116,296.082377,-10648.727422
869.426533,3034.844362,-1480.411884,-10648.727422
869.426853,-148.041188,-1628.453072,-9959.241474
869.427174,-2590.720797,-962.267725,-10035.851024
869.427494,-4737.318029,-296.082377,-9269.755526
869.427814,-3330.926739,0.000000,-9422.974625
869.428134,-2516.700203,-814.226536,-9652.803275
869.428454,-1776.494261,-2072.576638,-10035.851024
869.428775,740.205942,-2368.659014,-9422.974625
869.429095,592.164754,-222.061783,-9959.241474
869.429415,518.144159,2368.659014,-9882.631924
869.429735,1776.494261,1554.432478,-9806.022374
869.430055,1776.494261,148.041188,-9882.631924
869.430375,1110.308913,-1110.308913,-9806.022374
869.430696,0.000000,-148.041188,-10342.289223
869.431016,-1554.432478,148.041188,-10035.851024
869.431336,-2664.741391,2072.576638,-10265.679673
869.431656,-2294.638420,1776.494261,-10495.508323
869.431976,-888.247130,-1702.473667,-9806.022374
869.432297,518.144159,-2442.679609,-10112.460574
869.432617,-444.123565,-1628.453072,-9882.631924
869.432937,1258.350101,-296.082377,-10418.898773
869.433257,2516.700203,2072.576638,-10725.336972
869.433577,3997.112087,1258.350101,-10265.679673
869.433897,1998.556043,2516.700203,-11031.775171
869.434218,148.041188,1036.288319,-10495.508323
869.434538,962.267725,1184.329507,-11031.775171
869.434858,2294.638420,666.185348,-10572.117872
869.435178,1110.308913,592.164754,-10265.679673
869.435498,1332.370696,-1258.350101,-9882.631924
869.435819,370.102971,-3849.070898,-9576.193725
869.436139,-370.102971,-4293.194464,-9116.536426
869.436459,-1184.329507,-2146.597232,-9422.974625
869.436779,444.123565,2368.659014,-9959.241474
869.437099,2368.659014,4737.318029,-10189.070123
869.437419,6217.729913,3997.112087,-10648.727422
869.437740,5477.523971,1406.391290,-9576.193725
869.438060,2072.576638,74.020594,-9499.584175
869.438380,1480.411884,-814.226536,-9499.584175
869.438700,370.102971,0.000000,-9422.974625
869.439020,-1480.411884,592.164754,-9269.755526
869.439341,-1332.370696,1110.308913,-9039.926876
869.439661,-296.082377,0.000000,-9499.584175
869.439981,-296.082377,-592.164754,-9806.022374
869.440301,1036.288319,-296.082377,-10189.070123
869.440621,1628.453072,0.000000,-9729.412825
869.440941,1924.535449,1480.411884,-9959.241474
869.441262,2812.782580,2294.638420,-10189.070123
869.441582,2738.761985,1332.370696,-10342.289223
869.441902,888.247130,296.082377,-10342.289223
869.442222,814.226536,296.082377,-10572.117872
869.442542,222.061783,1110.308913,-10572.117872
869.442863,-148.041188,1110.308913,-10878.556072
869.443183,0.000000,296.082377,-9882.631924
869.443503,-1924.535449,-2590.720797,-10572.117872
869.443823,-2368.659014,-666.185348,-10572.117872
869.444143,-2442.679609,1110.308913,-10572.117872
869.444463,-296.082377,2220.617826,-11414.822920
869.444784,592.164754,2590.720797,-10342.289223
869.445104,814.226536,2664.741391,-10955.165621
869.445424,740.205942,888.247130,-10112.460574
869.445744,1406.391290,-222.061783,-10495.508323
869.446064,1702.473667,-74.020594,-10418.898773
869.446385,2220.617826,2812.782580,-9959.241474
869.446705,1184.329507,5255.462188,-10189.070123
869.447025,74.020594,4441.235652,-10342.289223
869.447345,0.000000,148.041188,-9576.193725
869.447665,-814.226536,-3256.906145,-9346.365076
869.447985,-1850.514855,-5921.647536,-8656.879127
869.448306,-1480.411884,-3775.050304,-9039.926876
869.448626,0.000000,-962.267725,-9806.022374
869.448946,888.247130,2294.638420,-9499.584175
869.449266,1628.453072,1776.494261,-9806.022374
869.449586,1480.411884,1184.329507,-9652.803275
869.449907,814.226536,444.123565,-10725.336972
869.450227,444.123565,-444.123565,-10189.070123
869.450547,518.144159,-444.123565,-9652.803275
869.450867,444.123565,888.247130,-9806.022374
869.451187,148.041188,1184.329507,-10189.070123
869.451508,1406.391290,1110.308913,-10189.070123
869.451828,1036.288319,666.185348,-10189.070123
869.452148,-888.247130,-518.144159,-10342.289223
869.452468,-1184.329507,-814.226536,-10035.851024
869.452788,-222.061783,-148.041188,-9806.022374
869.453108,592.164754,0.000000,-10265.679673
869.453429,1406.391290,-148.041188,-10342.289223
869.453749,2072.576638,1924.535449,-11108.384721
869.454069,2368.659014,1776.494261,-11338.213370
869.454389,1998.556043,2812.782580,-10878.556072
869.454709,1480.411884,4737.318029,-10265.679673
869.455030,740.205942,2886.803174,-11491.432470
869.455350,74.020594,-74.020594,-10495.508323
869.455670,666.185348,-1998.556043,-10112.460574
869.455990,-222.061783,-1628.453072,-10495.508323
869.456310,0.000000,-1554.432478,-10112.460574
869.456630,-666.185348,1406.391290,-9806.022374
869.456951,1184.329507,3182.885551,-10112.460574
869.457271,1332.370696,2442.679609,-9959.241474
869.457591,1776.494261,0.000000,-10112.460574
869.457911,1998.556043,-2146.597232,-9346.365076
869.458231,296.082377,-1110.308913,-9652.803275
869.458552,148.041188,-148.041188,-9193.145976
869.458872,2664.741391,666.185348,-9116.536426
869.459192,2442.679609,-148.041188,-9422.974625
869.459512,1406.391290,222.061783,-9806.022374
869.459832,-666.185348,518.144159,-9959.241474
869.460152,-2368.659014,-296.082377,-9576.193725
869.460473,-2294.638420,0.000000,-9576.193725
869.460793,-1776.494261,-148.041188,-9116.536426
869.461113,666.185348,-1406.391290,-9959.241474
869.461433,2738.761985,-518.144159,-10035.851024
869.461753,2294.638420,0.000000,-10418.898773
869.462074,962.267725,1776.494261,-10572.117872
869.462394,518.144159,2960.823768,-10725.336972
869.462714,1036.288319,4145.153275,-10418.898773
869.463034,444.123565,2368.659014,-10342.289223
869.463354,1184.329507,-592.164754,-10878.556072
869.463674,-74.020594,-1406.391290,-11184.994271
869.463995,-1554.432478,-1850.514855,-10495.508323
869.464315,-1036.288319,-814.226536,-10189.070123
869.464635,-1628.453072,666.185348,-10189.070123
869.464955,592.164754,518.144159,-11184.994271
869.465275,1554.432478,666.185348,-11108.384721
869.465596,1184.329507,888.247130,-10189.070123
869.465916,518.144159,666.185348,-10495.508323
869.466236,518.144159,1628.453072,-10418.898773
869.466556,1036.288319,2072.576638,-9576.193725
869.466876,1406.391290,1036.288319,-10265.679673
869.467196,2368.659014,-444.123565,-10572.117872
869.467517,592.164754,-1480.411884,-9499.584175
869.467837,-222.061783,-1258.350101,-10189.070123
869.468157,-888.247130,370.102971,-9269.755526
869.468477,-962.267725,962.267725,-9729.412825
869.468797,148.041188,1924.535449,-10418.898773
869.469118,-814.226536,-148.041188,-9422.974625
869.469438,-1702.473667,-1184.329507,-9806.022374
869.469758,-1554.432478,-370.102971,-9729.412825
869.470078,592.164754,296.082377,-10265.679673
869.470398,2294.638420,1998.556043,-9806.022374
869.470718,1628.453072,2368.659014,-8656.879127
869.471039,148.041188,888.247130,-10189.070123
869.471359,-222.061783,-518.144159,-9422.974625
869.471679,222.061783,-148.041188,-9959.241474
869.471999,-296.082377,148.041188,-9959.241474
869.472319,370.102971,-296.082377,-9806.022374
869.472640,518.144159,-592.164754,-9499.584175
869.472960,1184.329507,-1850.514855,-10189.070123
869.473280,1110.308913,-962.267725,-10342.289223
869.473600,370.102971,1480.411884,-10725.336972
869.473920,888.247130,2664.741391,-10648.727422
869.474241,296.082377,3775.050304,-10801.946522
869.474561,148.041188,3404.947333,-10955.165621
869.474881,370.102971,1998.556043,-10878.556072
869.475201,592.164754,-518.144159,-10265.679673
869.475521,1184.329507,-666.185348,-10342.289223
869.475841,1480.411884,-1036.288319,-10572.117872
869.476162,1850.514855,74.020594,-10189.070123
869.476482,962.267725,444.123565,-9806.022374
869.476802,74.020594,1258.350101,-9806.022374
869.477122,148.041188,1258.350101,-9959.241474
869.477442,1776.494261,1776.494261,-10342.289223
869.477763,2294.638420,2072.576638,-9806.022374
869.478083,1998.556043,1480.411884,-9729.412825
869.478403,1702.473667,1036.288319,-9806.022374
869.478723,1776.494261,-148.041188,-9882.631924
869.479043,2146.597232,-1628.453072,-9269.755526
869.479363,1702.473667,-222.061783,-9269.755526
869.479684,1184.329507,1110.308913,-9422.974625
869.480004,0.000000,1776.494261,-10112.460574
869.480324,-1184.329507,1554.432478,-9806.022374
869.480644,1702.473667,222.061783,-8963.317327
869.480964,2664.741391,-1184.329507,-9652.803275
869.481285,2960.823768,-2516.700203,-10189.070123
869.481605,2738.761985,-1554.432478,-10265.679673
869.481925,-518.144159,148.041188,-10189.070123
869.482245,444.123565,3330.926739,-10112.460574
869.482565,0.000000,3404.947333,-10418.898773
869.482885,-518.144159,1998.556043,-10801.946522
869.483205,-888.247130,222.061783,-10572.117872
869.483525,-814.226536,-888.247130,-11568.042020
869.483845,-962.267725,-1110.308913,-10342.289223
869.484165,-1258.350101,-592.164754,-9729.412825
869.484485,-370.102971,-592.164754,-10189.070123
869.484805,0.000000,-592.164754,-10342.289223
869.485125,-814.226536,-962.267725,-10265.679673
869.485445,370.102971,0.000000,-10495.508323
869.485765,814.226536,1184.329507,-10725.336972
869.486085,1406.391290,1850.514855,-10725.336972
869.486405,1406.391290,814.226536,-10572.117872
869.486725,-74.020594,148.041188,-10418.898773
869.487045,-962.267725,444.123565,-9959.241474
869.487365,-2294.638420,1702.473667,-10342.289223
869.487685,-1998.556043,814.226536,-10418.898773
869.488005,-888.247130,0.000000,-10035.851024
869.488325,-1554.432478,-2368.659014,-9269.755526
869.488645,-1406.391290,-4515.256246,-9039.926876
869.488965,-1110.308913,-4737.318029,-8810.098227
869.489285,-222.061783,-1554.432478,-9806.022374
869.489605,740.205942,1554.432478,-10418.898773
869.489925,1332.370696,3330.926739,-10112.460574
869.490245,1332.370696,3108.864956,-10112.460574
869.490565,1850.514855,-148.041188,-10035.851024
869.490885,1776.494261,-2590.720797,-9882.631924
869.491205,222.061783,-2960.823768,-10265.679673
869.491525,296.082377,-1628.453072,-10112.460574
869.491845,-222.061783,-518.144159,-10955.165621
869.492165,-296.082377,1924.535449,-10189.070123
869.492485,222.061783,2368.659014,-10112.460574
869.492805,-666.185348,3256.906145,-11031.775171
869.493125,-74.020594,3478.967927,-10878.556072
869.493445,962.267725,3330.926739,-11261.603821
869.493765,1628.453072,1850.514855,-10265.679673
869.494085,1924.535449,222.061783,-9959.241474
869.494405,2960.823768,-1702.473667,-10112.460574
869.494725,3034.844362,-1850.514855,-10112.460574
869.495045,2812.782580,-814.226536,-10265.679673
869.495365,2812.782580,888.247130,-10801.946522
869.495685,2072.576638,1628.453072,-10572.117872
869.496005,962.267725,4071.132681,-9882.631924
869.496325,-1480.411884,3182.885551,-10342.289223
869.496645,296.082377,1628.453072,-10189.070123
869.496965,1554.432478,0.000000,-9882.631924
869.497285,1184.329507,-2146.597232,-10265.679673
869.497605,740.205942,-2664.741391,-9269.755526
869.497925,814.226536,-518.144159,-9116.536426
869.498245,1332.370696,2368.659014,-9729.412825
869.498565,740.205942,2516.700203,-10418.898773
869.498885,592.164754,1924.535449,-10112.460574
869.499205,-518.144159,814.226536,-9729.412825
869.499525,-888.247130,518.144159,-9576.193725
869.499845,-148.041188,-148.041188,-9729.412825
869.500165,222.061783,-148.041188,-9959.241474
869.500485,666.185348,-962.267725,-9499.584175
869.500805,-666.185348,-1258.350101,-8580.269578
869.501125,-1110.308913,-518.144159,-9882.631924
869.501445,0.000000,-148.041188,-9729.412825
869.501765,518.144159,888.247130,-10189.070123
869.502085,740.205942,1998.556043,-9499.584175
869.502405,592.164754,1036.288319,-9806.022374
869.502725,1110.308913,296.082377,-10112.460574
869.503045,1628.453072,74.020594,-10112.460574
869.503364,666.185348,518.144159,-10955.165621
869.503684,444.123565,222.061783,-9806.022374
869.504004,148.041188,0.000000,-10342.289223
869.504324,-296.082377,-1776.494261,-10189.070123
869.504644,-518.144159,-1554.432478,-9959.241474
869.504964,0.000000,0.000000,-10418.898773
869.505284,888.247130,1480.411884,-10495.508323
869.505604,2294.638420,1184.329507,-10648.727422
869.505924,2220.617826,2220.617826,-10265.679673
869.506244,592.164754,592.164754,-10495.508323
869.506564,222.061783,-296.082377,-10035.851024
869.506884,148.041188,-592.164754,-10418.898773
869.507204,-370.102971,-148.041188,-10189.070123
869.507524,-962.267725,74.020594,-10342.289223
869.507844,0.000000,296.082377,-9882.631924
869.508164,740.205942,592.164754,-9806.022374
869.508484,518.144159,-444.123565,-10189.070123
869.508804,74.020594,-222.061783,-10572.117872
869.509124,-1036.288319,-2072.576638,-10035.851024
869.509444,-814.226536,-962.267725,-9959.241474
869.509764,-1924.535449,296.082377,-9193.145976
869.510084,-888.247130,1406.391290,-9959.241474
869.510404,1406.391290,148.041188,-10112.460574
869.510724,2738.761985,222.061783,-9499.584175
869.511044,2516.700203,74.020594,-10572.117872
869.511364,-148.041188,666.185348,-9806.022374
869.511684,-2220.617826,1036.288319,-9729.412825
869.512004,888.247130,1776.494261,-9806.022374
869.512324,222.061783,74.020594,-10265.679673
869.512644,148.041188,-2442.679609,-8886.707777
869.512964,-1850.514855,-2220.617826,-10035.851024
869.513284,370.102971,-1776.494261,-9652.803275
869.513604,1406.391290,1406.391290,-11031.775171
869.513924,1776.494261,2220.617826,-10801.946522
869.514244,1332.370696,1480.411884,-10265.679673
869.514564,814.226536,148.041188,-10495.508323
869.514884,814.226536,-370.102971,-11338.213370
869.515204,148.041188,0.000000,-11031.775171
869.515524,962.267725,74.020594,-10265.679673
869.515844,148.041188,1702.473667,-10418.898773
869.516164,814.226536,1628.453072,-11108.384721
869.516484,2146.597232,888.247130,-10955.165621
869.516804,2072.576638,-296.082377,-10572.117872
869.517124,1850.514855,-740.205942,-10189.070123
869.517444,-222.061783,888.247130,-9499.584175
869.517764,-296.082377,1184.329507,-10112.460574
869.518084,-222.061783,296.082377,-9806.022374
869.518404,370.102971,-888.247130,-9806.022374
869.518724,592.164754,666.185348,-9882.631924
869.519044,-148.041188,0.000000,-10035.851024
869.519364,1554.432478,888.247130,-9729.412825
869.519684,1554.432478,2220.617826,-10112.460574
869.520004,2220.617826,1406.391290,-9806.022374
869.520324,1184.329507,-1110.308913,-9576.193725
869.520644,222.061783,-2220.617826,-9039.926876
869.520964,-962.267725,-2368.659014,-9806.022374
869.521284,-222.061783,-1406.391290,-9499.584175
869.521604,592.164754,1406.391290,-9652.803275
869.521924,2220.617826,2220.617826,-10418.898773
869.522244,2146.597232,1776.494261,-8733.488677
869.522564,1628.453072,-296.082377,-10648.727422
869.522884,0.000000,-1998.556043,-9806.022374
869.523204,-888.247130,-1776.494261,-9729.412825
869.523524,-1184.329507,1110.308913,-9576.193725
869.523844,-1036.288319,2220.617826,-10342.289223
869.524164,0.000000,1406.391290,-10495.508323
869.524484,1184.329507,814.226536,-10801.946522
869.524804,1036.288319,-740.205942,-10342.289223
869.525123,2294.638420,-222.061783,-10189.070123
869.525443,2960.823768,444.123565,-10572.117872
869.525763,518.144159,962.267725,-10495.508323
869.526083,-1036.288319,518.144159,-10495.508323
869.526403,148.041188,-370.102971,-10342.289223
869.526723,74.020594,222.061783,-10495.508323
869.527043,0.000000,888.247130,-10725.336972
869.527363,-1110.308913,740.205942,-10572.117872
869.527683,-518.144159,0.000000,-10189.070123
869.528003,-518.144159,-444.123565,-9806.022374
869.528323,-592.164754,-1036.288319,-9806.022374
869.528643,-1998.556043,-1850.514855,-9729.412825
869.528963,-3034.844362,-1406.391290,-9729.412825
869.529283,-1332.370696,592.164754,-9116.536426
869.529603,0.000000,74.020594,-9882.631924
869.529923,1998.556043,-814.226536,-9959.241474
869.530243,2368.659014,-666.185348,-9806.022374
869.530563,1702.473667,296.082377,-10035.851024
869.530883,1332.370696,888.247130,-9959.241474
869.531203,444.123565,592.164754,-9882.631924
869.531523,666.185348,-148.041188,-9652.803275
869.531843,-222.061783,-1110.308913,-9806.022374
869.532163,0.000000,-1184.329507,-9882.631924
869.532483,-222.061783,-518.144159,-10265.679673
869.532803,370.102971,1184.329507,-10572.117872
869.533123,592.164754,2960.823768,-10572.117872
869.533443,1554.432478,4219.173869,-10572.117872
869.533763,1776.494261,3182.885551,-10725.336972
869.534083,1110.308913,1184.329507,-10418.898773
869.534403,1110.308913,-666.185348,-9806.022374
869.534723,1998.556043,-1702.473667,-10035.851024
869.535043,2220.617826,-740.205942,-9806.022374
869.535363,1480.411884,222.061783,-10112.460574
869.535683,1332.370696,222.061783,-10342.289223
869.536003,1924.535449,1776.494261,-9959.241474
869.536323,3404.947333,2516.700203,-10878.556072
869.536643,2516.700203,2960.823768,-10495.508323
869.536963,-814.226536,2590.720797,-10495.508323
869.537283,-1406.391290,666.185348,-9806.022374
869.537603,518.144159,-666.185348,-10112.460574
869.537923,666.185348,-2368.659014,-9729.412825
869.538243,962.267725,-2072.576638,-9576.193725
869.538563,1406.391290,-1628.453072,-9806.022374
869.538883,2368.659014,444.123565,-9882.631924
869.539203,2368.659014,3330.926739,-9269.755526
869.539523,1110.308913,2072.576638,-9806.022374
869.539843,0.000000,1258.350101,-9652.803275
869.540163,-962.267725,370.102971,-9806.022374
869.540483,-370.102971,-222.061783,-9882.631924
869.540803,666.185348,-1332.370696,-9499.584175
869.541123,0.000000,-1184.329507,-9806.022374
869.541443,-740.205942,-1776.494261,-9269.755526
869.541763,296.082377,-592.164754,-9576.193725
869.542083,-962.267725,666.185348,-10265.679673
869.542403,74.020594,2442.679609,-10495.508323
869.542723,0.000000,2886.803174,-10189.070123
869.543043,370.102971,2812.782580,-10418.898773
869.543363,888.247130,1036.288319,-10418.898773
869.543683,148.041188,-814.226536,-10418.898773
869.544003,-814.226536,-1702.473667,-10112.460574
869.544323,-1184.329507,-2220.617826,-9806.022374
869.544643,222.061783,-888.247130,-10418.898773
869.544963,-814.226536,518.144159,-10418.898773
869.545283,-740.205942,814.226536,-10112.460574
869.545603,-1776.494261,222.061783,-10648.727422
869.545923,-444.123565,74.020594,-10265.679673
869.546243,-888.247130,-148.041188,-10495.508323
869.546562,296.082377,-74.020594,-11184.994271
869.546882,370.102971,-666.185348,-9882.631924
869.547202,740.205942,-592.164754,-9959.241474
869.547522,2220.617826,-888.247130,-10648.727422
869.547842,666.185348,-370.102971,-11031.775171
869.548162,-592.164754,222.061783,-10495.508323
869.548482,-1924.535449,1036.288319,-10495.508323
869.548802,-2368.659014,1776.494261,-10801.946522
869.549122,-2072.576638,814.226536,-10189.070123
869.549442,-222.061783,-1998.556043,-9959.241474
869.549762,2220.617826,-2368.659014,-9806.022374
869.550082,1480.411884,-1036.288319,-10342.289223
869.550402,1406.391290,-296.082377,-10189.070123
869.550722,2146.597232,296.082377,-10418.898773
869.551042,2368.659014,2072.576638,-9806.022374
869.551362,1702.473667,1184.329507,-10572.117872
869.551682,1110.308913,-148.041188,-9806.022374
869.552002,-1628.453072,148.041188,-9499.584175
869.552322,-1998.556043,-370.102971,-10035.851024
869.552642,148.041188,-222.061783,-9959.241474
869.552962,1110.308913,-1332.370696,-9499.584175
869.553282,1480.411884,-2368.659014,-9729.412825
869.553602,1184.329507,-1998.556043,-9576.193725
869.553922,222.061783,-592.164754,-9729.412825
869.554242,740.205942,1850.514855,-10495.508323
869.554562,444.123565,3256.906145,-10572.117872
869.554882,1036.288319,2442.679609,-9882.631924
869.555202,2664.741391,74.020594,-10495.508323
869.555522,3849.070898,-1258.350101,-10342.289223
869.555842,4737.318029,-1184.329507,-9882.631924
869.556162,2220.617826,-518.144159,-10265.679673
869.556482,1554.432478,1258.350101,-11491.432470
869.556802,1406.391290,2590.720797,-10035.851024
869.557122,296.082377,2590.720797,-10112.460574
869.557442,0.000000,296.082377,-9882.631924
869.557762,0.000000,-222.061783,-9729.412825
869.558082,592.164754,-518.144159,-10189.070123
869.558402,3330.926739,0.000000,-10035.851024
869.558722,1554.432478,2072.576638,-10265.679673
869.559042,666.185348,2442.679609,-10342.289223
869.559362,888.247130,962.267725,-10035.851024
869.559682,1036.288319,0.000000,-9806.022374
869.560002,74.020594,814.226536,-10189.070123
869.560322,0.000000,740.205942,-10342.289223
869.560642,592.164754,1776.494261,-9959.241474
869.560962,1110.308913,1036.288319,-9959.241474
869.561282,1036.288319,-370.102971,-10035.851024
869.561602,1332.370696,-1554.432478,-9422.974625
869.561922,-518.144159,-1184.329507,-10035.851024
869.562242,-814.226536,518.144159,-9806.022374
869.562562,-2812.782580,1924.535449,-9806.022374
869.562882,-2442.679609,2294.638420,-9499.584175
869.563202,0.000000,888.247130,-9959.241474
869.563522,1554.432478,0.000000,-9959.241474
869.563842,1480.411884,-296.082377,-10572.117872
869.564162,0.000000,0.000000,-10648.727422
869.564482,-1258.350101,592.164754,-10189.070123
869.564802,-2442.679609,1110.308913,-9576.193725
869.565122,-1924.535449,740.205942,-10495.508323
869.565442,-296.082377,0.000000,-10035.851024
869.565762,370.102971,0.000000,-10112.460574
869.566082,296.082377,222.061783,-11108.384721
869.566402,74.020594,74.020594,-9806.022374
869.566722,222.061783,1036.288319,-9959.241474
869.567042,666.185348,740.205942,-10648.727422
869.567362,888.247130,814.226536,-9882.631924
869.567682,-296.082377,518.144159,-10035.851024
869.568002,1184.329507,444.123565,-10035.851024
869.568321,740.205942,74.020594,-10725.336972
869.568641,0.000000,518.144159,-9576.193725
869.568961,-814.226536,-962.267725,-9499.584175
869.569281,-74.020594,-2368.659014,-9652.803275
869.569601,370.102971,-2146.597232,-9959.241474
869.569921,370.102971,-1036.288319,-10189.070123
869.570241,-518.144159,518.144159,-10035.851024
869.570561,-888.247130,2368.659014,-9959.241474
869.570881,1258.350101,1776.494261,-10112.460574
869.571201,3478.967927,370.102971,-10189.070123
869.571521,3627.009116,-370.102971,-10265.679673
869.571841,3034.844362,-888.247130,-10495.508323
869.572161,1258.350101,148.041188,-10189.070123
869.572481,-740.205942,518.144159,-10572.117872
869.572801,-2590.720797,1776.494261,-9806.022374
869.573121,-814.226536,1924.535449,-9882.631924
869.573441,1776.494261,2072.576638,-11261.603821
869.573761,1924.535449,1258.350101,-10572.117872
869.574081,1406.391290,962.267725,-10801.946522
869.574401,1702.473667,592.164754,-9806.022374
869.574721,2442.679609,740.205942,-9652.803275
869.575041,2220.617826,-148.041188,-10189.070123
869.575361,1406.391290,-814.226536,-9346.365076
869.575681,0.000000,666.185348,-9959.241474
869.576001,518.144159,2368.659014,-10572.117872
869.576321,1406.391290,2664.741391,-9806.022374
869.576641,1554.432478,2220.617826,-9729.412825
869.576961,3182.885551,-666.185348,-9882.631924
869.577281,3404.947333,-3034.844362,-9269.755526
869.577601,2220.617826,-3849.070898,-9729.412825
869.577921,0.000000,-3108.864956,-9729.412825
869.578241,-1110.308913,0.000000,-9499.584175
869.578561,-1480.411884,2886.803174,-9729.412825
869.578881,-74.020594,3034.844362,-10112.460574
869.579201,1110.308913,962.267725,-10265.679673
869.579521,2072.576638,148.041188,-10112.460574
869.579841,1110.308913,-740.205942,-10189.070123
869.580161,1184.329507,814.226536,-10112.460574
869.580481,0.000000,1480.411884,-10265.679673
869.580801,-518.144159,814.226536,-9959.241474
869.581121,370.102971,-1036.288319,-10112.460574
869.581441,888.247130,-1184.329507,-10189.070123
869.581761,1184.329507,222.061783,-10495.508323
869.582081,74.020594,2442.679609,-10648.727422
869.582401,-296.082377,3923.091493,-10035.851024
869.582721,-222.061783,2960.823768,-10495.508323
869.583041,0.000000,-592.164754,-10342.289223
869.583361,-1036.288319,-2664.741391,-10418.898773
869.583681,-2072.576638,-1850.514855,-9959.241474
869.584001,-1924.535449,-962.267725,-9806.022374
869.584321,-518.144159,888.247130,-9806.022374
869.584641,740.205942,1332.370696,-10112.460574
869.584961,-444.123565,370.102971,-9806.022374
869.585281,-888.247130,-370.102971,-10035.851024
869.585601,296.082377,518.144159,-10035.851024
869.585920,1184.329507,0.000000,-10265.679673
869.586240,1406.391290,-518.144159,-9729.412825
869.586560,370.102971,-1924.535449,-9729.412825
869.586880,370.102971,-4219.173869,-9039.926876
869.587200,370.102971,-3552.988522,-9576.193725
869.587520,444.123565,0.000000,-9959.241474
869.587839,518.144159,3552.988522,-11031.775171
869.588159,444.123565,5625.565159,-10648.727422
869.588479,-518.144159,2960.823768,-10342.289223
869.588799,-370.102971,-888.247130,-10112.460574
869.589119,-296.082377,-3701.029710,-9806.022374
869.589439,666.185348,-3478.967927,-10495.508323
869.589758,-222.061783,-1776.494261,-10572.117872
869.590078,-148.041188,1628.453072,-10189.070123
869.590398,-1110.308913,4811.338623,-10265.679673
869.590718,1036.288319,5181.441594,-10572.117872
869.591038,2368.659014,4145.153275,-10801.946522
869.591358,3034.844362,1702.473667,-11491.432470
869.591677,2368.659014,-666.185348,-10189.070123
869.591997,666.185348,-2294.638420,-9193.145976
869.592317,-444.123565,-2368.659014,-9422.974625
869.592637,-444.123565,-2294.638420,-9346.365076
869.592957,0.000000,-666.185348,-9959.241474
869.593277,962.267725,1554.432478,-10189.070123
869.593596,1628.453072,3552.988522,-10189.070123
869.593916,1110.308913,3478.967927,-10112.460574
869.594236,-518.144159,2146.597232,-9729.412825
869.594556,592.164754,-1480.411884,-9652.803275
869.594876,1850.514855,-4367.215058,-8273.831378
869.595196,1924.535449,-4737.318029,-9116.536426
869.595515,2146.597232,-2072.576638,-9576.193725
869.595835,1924.535449,1110.308913,-9959.241474
869.596155,1850.514855,4293.194464,-9729.412825
869.596475,2220.617826,4293.194464,-9806.022374
869.596795,2590.720797,1776.494261,-10035.851024
869.597115,3404.947333,0.000000,-9729.412825
869.597434,2368.659014,-1110.308913,-10495.508323
869.597754,-148.041188,-962.267725,-10189.070123
869.598074,-1924.535449,740.205942,-9729.412825
869.598394,-2146.597232,1480.411884,-10112.460574
869.598714,0.000000,1998.556043,-10265.679673
869.599034,1036.288319,1554.432478,-11951.089769
869.599353,-370.102971,666.185348,-11414.822920
869.599673,-814.226536,962.267725,-10495.508323
869.599993,666.185348,1628.453072,-10572.117872
869.600313,1628.453072,1924.535449,-11184.994271
869.600633,1036.288319,666.185348,-10878.556072
869.600953,-592.164754,1036.288319,-10725.336972
869.601272,1554.432478,1628.453072,-10648.727422
869.601592,3552.988522,2368.659014,-10955.165621
869.601912,1702.473667,2960.823768,-10955.165621
869.602232,-518.144159,1924.535449,-9959.241474
869.602552,-370.102971,-592.164754,-9882.631924
869.602872,1184.329507,-3182.885551,-9806.022374
869.603191,1110.308913,-3256.906145,-9729.412825
869.603511,-222.061783,-1924.535449,-9806.022374
869.603831,-1628.453072,1406.391290,-9576.193725
869.604151,-962.267725,3775.050304,-9882.631924
869.604471,592.164754,2146.597232,-9882.631924
869.604791,1480.411884,-962.267725,-9499.584175
869.605110,1036.288319,-2664.741391,-9193.145976
869.605430,1554.432478,-3478.967927,-9499.584175
869.605750,1110.308913,-1332.370696,-9576.193725
869.606070,-222.061783,1110.308913,-9882.631924
869.606390,-1554.432478,370.102971,-9576.193725
869.606710,-296.082377,-296.082377,-9729.412825
869.607029,0.000000,-370.102971,-9806.022374
869.607349,888.247130,74.020594,-10112.460574
869.607669,0.000000,1998.556043,-10725.336972
869.607989,-296.082377,3256.906145,-10418.898773
869.608309,-518.144159,1332.370696,-10418.898773
869.608629,-1036.288319,222.061783,-10572.117872
869.608948,-1480.411884,-2146.597232,-10189.070123
869.609268,-1258.350101,-2590.720797,-10035.851024
869.609588,-1258.350101,74.020594,-10955.165621
869.609908,-370.102971,2368.659014,-10418.898773
869.610228,-518.144159,3108.864956,-11491.432470
869.610548,0.000000,1628.453072,-10495.508323
869.610867,-370.102971,592.164754,-11031.775171
869.611187,1628.453072,1406.391290,-11031.775171
869.611507,2220.617826,1480.411884,-10801.946522
869.611827,2220.617826,2294.638420,-10725.336972
869.612147,2368.659014,2220.617826,-10112.460574
869.612467,1924.535449,0.000000,-9652.803275
869.612786,1184.329507,-666.185348,-9806.022374
869.613106,740.205942,-148.041188,-10801.946522
869.613426,296.082377,814.226536,-9729.412825
869.613746,-296.082377,2146.597232,-9576.193725
869.614066,-1406.391290,2368.659014,-9422.974625
869.614386,-1850.514855,1184.329507,-9039.926876
869.614705,-962.267725,-1554.432478,-8963.317327
869.615025,962.267725,-1702.473667,-9193.145976
869.615345,2146.597232,-888.247130,-9116.536426
869.615665,3552.988522,222.061783,-8733.488677
869.615985,2294.638420,2220.617826,-9039.926876
869.616305,1332.370696,1184.329507,-9576.193725
869.616624,814.226536,-296.082377,-8886.707777
869.616944,1258.350101,-1332.370696,-9269.755526
869.617264,1332.370696,-1998.556043,-9576.193725
869.617584,666.185348,-814.226536,-9269.755526
869.617904,-370.102971,-740.205942,-9806.022374
869.618224,148.041188,-666.185348,-10265.679673
869.618543,592.164754,-370.102971,-10495.508323
869.618863,1036.288319,296.082377,-10725.336972
869.619183,1406.391290,888.247130,-11031.775171
869.619503,2146.597232,2072.576638,-11644.651570
869.619823,1110.308913,2812.782580,-11644.651570
869.620143,-888.247130,1480.411884,-10955.165621
869.620462,-814.226536,-592.164754,-10725.336972
869.620782,222.061783,-2812.782580,-11031.775171
869.621102,1406.391290,-3034.844362,-10955.165621
869.621422,814.226536,-1628.453072,-10801.946522
869.621742,-222.061783,1332.370696,-10418.898773
869.622062,666.185348,2368.659014,-11184.994271
869.622381,1850.514855,2368.659014,-11031.775171
869.622701,1924.535449,0.000000,-10801.946522
869.623021,518.144159,-1406.391290,-10265.679673
869.623341,1258.350101,-2960.823768,-9729.412825
869.623661,518.144159,-962.267725,-9882.631924
869.623981,444.123565,-444.123565,-10112.460574
869.624300,888.247130,-370.102971,-9346.365076
869.624620,1036.288319,74.020594,-9959.241474
869.624940,1850.514855,-1332.370696,-9422.974625
869.625260,1776.494261,-666.185348,-9806.022374
869.625580,-1332.370696,0.000000,-9422.974625
869.625900,-740.205942,518.144159,-9346.365076
869.626219,296.082377,370.102971,-9039.926876
869.626539,1258.350101,-1258.350101,-8733.488677
869.626859,1998.556043,-2294.638420,-9346.365076
869.627179,666.185348,-1702.473667,-9882.631924
869.627499,-296.082377,1110.308913,-9882.631924
869.627819,-1332.370696,2146.597232,-9882.631924
869.628138,-1850.514855,2146.597232,-9652.803275
869.628458,-1036.288319,1332.370696,-10265.679673
869.628778,-592.164754,222.061783,-10342.289223
869.629098,0.000000,-148.041188,-10342.289223
869.629418,-1110.308913,222.061783,-10342.289223
869.629738,-1184.329507,444.123565,-10189.070123
869.630057,370.102971,0.000000,-10878.556072
869.630377,1998.556043,-222.061783,-10342.289223
869.630697,962.267725,592.164754,-10878.556072
869.631017,-296.082377,2442.679609,-11031.775171
869.631337,-2294.638420,3849.070898,-10648.727422
869.631657,-1480.411884,3775.050304,-10955.165621
869.631976,296.082377,1924.535449,-10725.336972
869.632296,740.205942,-444.123565,-9882.631924
869.632616,370.102971,-2072.576638,-10418.898773
869.632936,888.247130,-1184.329507,-9959.241474
869.633256,296.082377,1184.329507,-10112.460574
869.633576,592.164754,2664.741391,-10035.851024
869.633895,592.164754,3775.050304,-10035.851024
869.634215,1480.411884,2442.679609,-9576.193725
869.634535,1480.411884,1332.370696,-9729.412825
869.634855,1850.514855,0.000000,-9729.412825
869.635175,2886.803174,0.000000,-9499.584175
869.635495,1924.535449,1036.288319,-9346.365076
869.635814,1924.535449,1554.432478,-9499.584175
869.636134,1110.308913,222.061783,-9039.926876
869.636454,962.267725,-222.061783,-9269.755526
869.636774,962.267725,-370.102971,-9193.145976
869.637094,0.000000,0.000000,-9422.974625
869.637414,1110.308913,740.205942,-9959.241474
869.637733,1628.453072,-666.185348,-9882.631924
869.638053,2516.700203,-888.247130,-9729.412825
869.638373,1998.556043,-222.061783,-9729.412825
869.638693,1406.391290,1628.453072,-10112.460574
869.639013,1554.432478,3182.885551,-10878.556072
869.639333,740.205942,3627.009116,-10725.336972
869.639652,592.164754,1110.308913,-10495.508323
869.639972,148.041188,-1628.453072,-10495.508323
869.640292,-222.061783,-2294.638420,-10265.679673
869.640612,518.144159,-1628.453072,-11031.775171
869.640932,2072.576638,740.205942,-10801.946522
869.641252,1850.514855,2590.720797,-10955.165621
869.641571,74.020594,3256.906145,-11108.384721
869.641891,-444.123565,1628.453072,-9576.193725
869.642211,-962.267725,-370.102971,-10265.679673
869.642531,-296.082377,-888.247130,-10648.727422
869.642851,0.000000,148.041188,-10035.851024
869.643171,-962.267725,1184.329507,-10572.117872
869.643490,-148.041188,592.164754,-10035.851024
869.643810,-148.041188,-444.123565,-10035.851024
869.644130,-814.226536,-1480.411884,-9652.803275
869.644450,-2442.679609,-444.123565,-9729.412825
869.644770,-2442.679609,74.020594,-9806.022374
869.645090,-814.226536,518.144159,-9959.241474
869.645409,-444.123565,-518.144159,-9729.412825
869.645729,222.061783,-2368.659014,-9269.755526
869.646049,74.020594,-2886.803174,-8273.831378
869.646369,148.041188,-2220.617826,-9806.022374
869.646689,1184.329507,-592.164754,-9959.241474
869.647009,1036.288319,1480.411884,-10265.679673
869.647328,666.185348,2368.659014,-10572.117872
869.647648,74.020594,1998.556043,-10725.336972
869.647968,-444.123565,222.061783,-10112.460574
869.648288,-296.082377,296.082377,-10572.117872
869.648608,518.144159,740.205942,-11108.384721
869.648928,444.123565,1406.391290,-10112.460574
869.649247,-444.123565,1110.308913,-10418.898773
869.649567,0.000000,0.000000,-9882.631924
869.649887,0.000000,-370.102971,-10189.070123
869.650207,0.000000,0.000000,-10342.289223
869.650527,666.185348,2146.597232,-11031.775171
869.650847,2146.597232,4219.173869,-10725.336972
869.651166,2664.741391,3775.050304,-10878.556072
869.651486,3627.009116,2516.700203,-10418.898773
869.651806,2812.782580,0.000000,-10342.289223
869.652126,592.164754,-1480.411884,-9499.584175
869.652446,74.020594,-2294.638420,-9499.584175
869.652766,1258.350101,-518.144159,-9346.365076
869.653085,962.267725,1480.411884,-9806.022374
869.653405,1036.288319,1628.453072,-9882.631924
869.653725,-148.041188,1110.308913,-9422.974625
869.654045,-148.041188,-296.082377,-9806.022374
869.654365,1480.411884,-740.205942,-8963.317327
869.654685,1258.350101,-740.205942,-8733.488677
869.655004,740.205942,740.205942,-9269.755526
869.655324,1406.391290,1480.411884,-9652.803275
869.655644,2368.659014,1110.308913,-10112.460574
869.655964,3701.029710,1110.308913,-9806.022374
869.656284,3775.050304,666.185348,-9959.241474
869.656604,2072.576638,222.061783,-9652.803275
869.656923,1702.473667,-814.226536,-9422.974625
869.657243,444.123565,-370.102971,-9729.412825
869.657563,1258.350101,-666.185348,-11031.775171
869.657883,1036.288319,-296.082377,-10189.070123
869.658203,0.000000,-666.185348,-10189.070123
869.658523,-814.226536,148.041188,-10265.679673
869.658842,-2072.576638,1924.535449,-9346.365076
869.659162,-2220.617826,1702.473667,-10572.117872
869.659482,-592.164754,666.185348,-10725.336972
869.659802,2590.720797,-666.185348,-10878.556072
869.660122,1258.350101,-2220.617826,-10725.336972
869.660442,-370.102971,-2738.761985,-10112.460574
869.660761,-1036.288319,-1998.556043,-10265.679673
869.661081,-370.102971,-592.164754,-10572.117872
869.661401,148.041188,1036.288319,-10648.727422
869.661721,-518.144159,1258.350101,-10572.117872
869.662041,-962.267725,1406.391290,-10801.946522
869.662361,-370.102971,148.041188,-11184.994271
869.662680,-1406.391290,-1184.329507,-10189.070123
869.663000,-2368.659014,-2664.741391,-9959.241474
869.663320,-2368.659014,-2886.803174,-9729.412825
869.663640,-814.226536,-2738.761985,-10265.679673
869.663960,-370.102971,-2294.638420,-10112.460574
869.664280,-444.123565,222.061783,-9806.022374
869.664599,-740.205942,1554.432478,-9959.241474
869.664919,-1036.288319,1036.288319,-9959.241474
869.665239,-148.041188,-962.267725,-9576.193725
869.665559,-148.041188,-2368.659014,-9269.755526
869.665879,888.247130,-3034.844362,-9499.584175
869.666199,1702.473667,-1480.411884,-9806.022374
869.666519,888.247130,-1184.329507,-10035.851024
869.666838,444.123565,0.000000,-9882.631924
869.667158,-296.082377,370.102971,-10112.460574
869.667478,370.102971,1480.411884,-10801.946522
869.667798,74.020594,1776.494261,-10495.508323
869.668118,222.061783,2442.679609,-10725.336972
869.668438,666.185348,2442.679609,-10495.508323
869.668757,444.123565,1036.288319,-10189.070123
869.669077,0.000000,-740.205942,-10189.070123
869.669397,888.247130,-2368.659014,-9652.803275
869.669717,1924.535449,-1998.556043,-9882.631924
869.670037,1924.535449,-222.061783,-10112.460574
869.670357,592.164754,2368.659014,-10418.898773
869.670676,1184.329507,3108.864956,-10342.289223
869.670996,1850.514855,2738.761985,-10725.336972
869.671316,2368.659014,1332.370696,-10572.117872
869.671636,2368.659014,-296.082377,-11414.822920
869.671956,2590.720797,-222.061783,-10189.070123
869.672276,2664.741391,-518.144159,-10265.679673
869.672595,1924.535449,518.144159,-10035.851024
869.672915,962.267725,1110.308913,-10265.679673
869.673235,592.164754,1998.556043,-10265.679673
869.673555,518.144159,2368.659014,-9959.241474
869.673875,592.164754,2516.700203,-10189.070123
869.674195,222.061783,2146.597232,-10035.851024
869.674514,1110.308913,148.041188,-9729.412825
869.674834,1036.288319,-1332.370696,-9652.803275
869.675154,1480.411884,-666.185348,-9652.803275
869.675474,1110.308913,962.267725,-9729.412825
869.675794,666.185348,2664.741391,-10035.851024
869.676114,1110.308913,4145.153275,-10342.289223
869.676433,370.102971,3330.926739,-9959.241474
869.676753,1480.411884,1554.432478,-9729.412825
869.677073,2738.761985,222.061783,-9882.631924
869.677393,2664.741391,-1258.350101,-9039.926876
869.677713,444.123565,0.000000,-9882.631924
869.678033,-1554.432478,962.267725,-10112.460574
869.678352,-1554.432478,2072.576638,-9729.412825
869.678672,-370.102971,1554.432478,-10648.727422
869.678992,666.185348,888.247130,-9729.412825
869.679312,518.144159,592.164754,-10035.851024
869.679632,-370.102971,370.102971,-10342.289223
869.679952,-222.061783,74.020594,-10495.508323
869.680271,0.000000,1184.329507,-11108.384721
869.680591,-296.082377,740.205942,-10495.508323
869.680911,-444.123565,1110.308913,-10342.289223
869.681231,148.041188,740.205942,-10342.289223
869.681551,444.123565,592.164754,-10265.679673
869.681871,518.144159,888.247130,-10495.508323
869.682190,814.226536,1110.308913,-10495.508323
869.682510,-814.226536,518.144159,-10189.070123
869.682830,-814.226536,-370.102971,-9959.241474
869.683150,74.020594,-1554.432478,-10112.460574
869.683470,0.000000,-222.061783,-9959.241474
869.683790,-296.082377,962.267725,-10342.289223
869.684109,-962.267725,1628.453072,-9959.241474
869.684429,-370.102971,1480.411884,-9499.584175
869.684749,1776.494261,-222.061783,-10035.851024
869.685069,2368.659014,-1480.411884,-9729.412825
869.685389,592.164754,-1776.494261,-9729.412825
869.685709,-1332.370696,-1184.329507,-9806.022374
869.686029,-592.164754,-740.205942,-9346.365076
869.686349,-1406.391290,0.000000,-9806.022374
869.686669,-444.123565,222.061783,-9806.022374
869.686989,74.020594,0.000000,-10035.851024
869.687309,1258.350101,-962.267725,-10189.070123
869.687628,2738.761985,-1702.473667,-10648.727422
869.687948,1628.453072,-740.205942,-10418.898773
869.688268,296.082377,-370.102971,-10648.727422
869.688588,-370.102971,518.144159,-9882.631924
869.688908,74.020594,740.205942,-9959.241474
869.689228,1702.473667,518.144159,-9959.241474
869.689548,2146.597232,0.000000,-10725.336972
869.689868,3182.885551,-1036.288319,-10035.851024
869.690188,3108.864956,-296.082377,-9959.241474
869.690508,3627.009116,296.082377,-10801.946522
869.690828,2886.803174,370.102971,-11108.384721
869.691148,962.267725,740.205942,-10189.070123
869.691468,-370.102971,1406.391290,-10035.851024
869.691787,-962.267725,2072.576638,-9959.241474
869.692107,518.144159,2220.617826,-10035.851024
869.692427,1628.453072,2220.617826,-10112.460574
869.692747,2072.576638,814.226536,-10035.851024
869.693067,2368.659014,-2220.617826,-9422.974625
869.693387,814.226536,-4441.235652,-8886.707777
869.693707,0.000000,-4145.153275,-9193.145976
869.694027,-592.164754,-1850.514855,-9269.755526
869.694347,-740.205942,1924.535449,-9652.803275
869.694667,0.000000,3552.988522,-10035.851024
869.694987,0.000000,2516.700203,-10418.898773
869.695307,1184.329507,444.123565,-9806.022374
869.695627,1036.288319,-1554.432478,-9959.241474
869.695946,888.247130,-1776.494261,-9882.631924
869.696266,-1110.308913,-1332.370696,-10955.165621
869.696586,-1406.391290,-1184.329507,-10112.460574
869.696906,-740.205942,-296.082377,-9729.412825
869.697226,-222.061783,814.226536,-10572.117872
869.697546,0.000000,1850.514855,-11338.213370
869.697866,0.000000,2368.659014,-11261.603821
869.698186,-444.123565,2812.782580,-10572.117872
869.698506,-222.061783,1702.473667,-10648.727422
869.698826,0.000000,666.185348,-10648.727422
869.699146,1110.308913,-814.226536,-10189.070123
869.699466,1480.411884,-592.164754,-10342.289223
869.699786,2220.617826,74.020594,-10189.070123
869.700105,1110.308913,2146.597232,-10801.946522
869.700425,518.144159,2960.823768,-10725.336972
869.700745,-444.123565,1628.453072,-9806.022374
869.701065,0.000000,74.020594,-9652.803275
869.701385,1850.514855,-814.226536,-10112.460574
869.701705,3256.906145,-666.185348,-11031.775171
869.702025,1184.329507,74.020594,-10112.460574
869.702345,-1110.308913,-1036.288319,-9269.755526
869.702665,-1332.370696,-1110.308913,-9422.974625
869.702985,-666.185348,-1998.556043,-9576.193725
869.703305,-666.185348,-962.267725,-9652.803275
869.703625,444.123565,888.247130,-9806.022374
869.703945,74.020594,1924.535449,-9652.803275
869.704264,1110.308913,2220.617826,-10035.851024
869.704584,1184.329507,888.247130,-10112.460574
869.704904,296.082377,-814.226536,-9422.974625
869.705224,-370.102971,-1258.350101,-9806.022374
869.705544,0.000000,-1332.370696,-10189.070123
869.705864,-222.061783,0.000000,-9729.412825
869.706184,-962.267725,814.226536,-9652.803275
869.706504,-740.205942,1702.473667,-9882.631924
869.706824,740.205942,2368.659014,-9959.241474
869.707144,1554.432478,2960.823768,-10955.165621
869.707464,296.082377,2516.700203,-9806.022374
869.707784,148.041188,592.164754,-10418.898773
869.708104,592.164754,-148.041188,-9806.022374
869.708423,518.144159,-1480.411884,-10189.070123
869.708743,148.041188,-1184.329507,-10265.679673
869.709063,444.123565,666.185348,-10265.679673
869.709383,1406.391290,2664.741391,-10955.165621
869.709703,2368.659014,3330.926739,-10801.946522
869.710023,2590.720797,3552.988522,-10342.289223
869.710343,1036.288319,1924.535449,-11491.432470
869.710663,296.082377,-962.267725,-10112.460574
869.710983,1702.473667,-1702.473667,-10418.898773
869.711303,1924.535449,-1110.308913,-10035.851024
869.711623,1702.473667,370.102971,-10265.679673
869.711943,518.144159,1480.411884,-9806.022374
869.712263,0.000000,1776.494261,-9882.631924
869.712582,296.082377,1554.432478,-9882.631924
869.712902,148.041188,444.123565,-9422.974625
869.713222,2664.741391,-2368.659014,-9116.536426
869.713542,2886.803174,-2812.782580,-9499.584175
869.713862,1184.329507,-2294.638420,-8963.317327
869.714182,-222.061783,-592.164754,-9193.145976
869.714502,74.020594,2072.576638,-9499.584175
869.714822,814.226536,3182.885551,-9882.631924
869.715142,1184.329507,3108.864956,-10112.460574
869.715462,3330.926739,1776.494261,-9959.241474
869.715782,3330.926739,518.144159,-9806.022374
869.716102,1036.288319,-1258.350101,-9652.803275
869.716422,-222.061783,-2072.576638,-9652.803275
869.716742,0.000000,-2294.638420,-10112.460574
869.717061,0.000000,-814.226536,-10189.070123
869.717381,-518.144159,814.226536,-10418.898773
869.717701,-1332.370696,2738.761985,-10189.070123
869.718021,-1406.391290,3034.844362,-10648.727422
869.718341,148.041188,2220.617826,-11031.775171
869.718661,1628.453072,0.000000,-10801.946522
869.718981,666.185348,-962.267725,-10418.898773
869.719301,518.144159,-1110.308913,-10878.556072
869.719621,148.041188,148.041188,-10418.898773
869.719941,296.082377,2146.597232,-10725.336972
869.720261,74.020594,2516.700203,-10648.727422
869.720581,0.000000,1406.391290,-10418.898773
869.720901,222.061783,148.041188,-10495.508323
869.721220,296.082377,-888.247130,-10342.289223
869.721540,-814.226536,-1036.288319,-9959.241474
869.721860,-592.164754,74.020594,-9729.412825
869.722180,-814.226536,148.041188,-10035.851024
869.722500,-740.205942,-592.164754,-10112.460574
869.722820,-1184.329507,-962.267725,-9499.584175
869.723140,-1258.350101,74.020594,-8120.612279
869.723460,-1184.329507,814.226536,-9116.536426
869.723780,-740.205942,1332.370696,-9499.584175
869.724100,444.123565,-888.247130,-9806.022374
869.724420,1480.411884,-3256.906145,-9499.584175
869.724740,1480.411884,-2960.823768,-9806.022374
869.725060,-370.102971,-1850.514855,-9806.022374
869.725379,-1628.453072,1184.329507,-9652.803275
869.725699,-2072.576638,2664.741391,-9729.412825
869.726019,0.000000,2664.741391,-11184.994271
869.726339,370.102971,814.226536,-10572.117872
869.726659,592.164754,-1480.411884,-10572.117872
869.726979,74.020594,-1850.514855,-10418.898773
869.727299,1554.432478,-1554.432478,-9959.241474
869.727619,1554.432478,1480.411884,-10035.851024
869.727939,1702.473667,2738.761985,-10878.556072
869.728259,1554.432478,2590.720797,-10955.165621
869.728579,1628.453072,1554.432478,-10955.165621
869.728899,1702.473667,666.185348,-10648.727422
869.729219,1628.453072,0.000000,-10725.336972
869.729538,1480.411884,370.102971,-10112.460574
869.729858,1702.473667,592.164754,-10955.165621
869.730178,2368.659014,74.020594,-10725.336972
869.730498,1998.556043,666.185348,-10189.070123
869.730818,592.164754,3404.947333,-10572.117872
869.731138,222.061783,3552.988522,-10035.851024
869.731458,740.205942,3849.070898,-10035.851024
869.731778,1924.535449,2516.700203,-9652.803275
869.732098,1776.494261,-1480.411884,-9652.803275
869.732418,666.185348,-4737.318029,-8963.317327
869.732738,148.041188,-3627.009116,-8963.317327
869.733058,666.185348,-1554.432478,-9116.536426
869.733378,1628.453072,1406.391290,-9806.022374
869.733697,1480.411884,2960.823768,-9652.803275
869.734017,592.164754,1554.432478,-9346.365076
869.734337,-444.123565,-814.226536,-9269.755526
869.734657,962.267725,-1850.514855,-10342.289223
869.734977,1554.432478,-2590.720797,-9499.584175
869.735297,-222.061783,-592.164754,-9422.974625
869.735617,-518.144159,0.000000,-9729.412825
869.735937,888.247130,148.041188,-10418.898773
869.736257,962.267725,-444.123565,-10265.679673
869.736577,-296.082377,518.144159,-10112.460574
869.736897,-666.185348,2590.720797,-10342.289223
869.737217,296.082377,3552.988522,-10648.727422
869.737537,1332.370696,2516.700203,-10801.946522
869.737856,962.267725,296.082377,-10265.679673
869.738176,888.247130,-1554.432478,-10418.898773
869.738496,0.000000,-1258.350101,-10418.898773
869.738816,-370.102971,1258.350101,-10342.289223
869.739136,-814.226536,2442.679609,-10801.946522
869.739456,-1702.473667,3108.864956,-11031.775171
869.739776,-518.144159,2294.638420,-10572.117872
869.740096,888.247130,814.226536,-11108.384721
869.740416,518.144159,0.000000,-10878.556072
869.740736,740.205942,-148.041188,-10725.336972
869.741056,962.267725,0.000000,-10035.851024
869.741376,518.144159,370.102971,-9806.022374
869.741696,518.144159,-296.082377,-9959.241474
869.742015,-148.041188,-1332.370696,-9806.022374
869.742335,-222.061783,-888.247130,-9959.241474
869.742655,-814.226536,0.000000,-9576.193725
869.742975,0.000000,1110.308913,-10112.460574
869.743295,666.185348,2072.576638,-9729.412825
869.743615,814.226536,740.205942,-9729.412825
869.743935,1110.308913,-296.082377,-9346.365076
869.744255,1184.329507,-1628.453072,-9652.803275
869.744575,592.164754,-1258.350101,-10495.508323
869.744895,444.123565,-888.247130,-9576.193725
869.745215,-888.247130,370.102971,-9576.193725
869.745535,-888.247130,1258.350101,-9959.241474
869.745855,-592.164754,1332.370696,-8886.707777
869.746174,222.061783,1628.453072,-9959.241474
869.746494,296.082377,1036.288319,-10342.289223
869.746814,0.000000,-148.041188,-10112.460574
869.747134,518.144159,-370.102971,-10035.851024
869.747454,1332.370696,-148.041188,-9806.022374
869.747774,1480.411884,-148.041188,-10265.679673
869.748094,814.226536,74.020594,-10725.336972
869.748414,1110.308913,592.164754,-10418.898773
869.748734,592.164754,1406.391290,-10572.117872
869.749054,-592.164754,1554.432478,-10342.289223
869.749374,-1332.370696,1554.432478,-10342.289223
869.749694,-370.102971,444.123565,-10572.117872
869.750014,1480.411884,-1036.288319,-10495.508323
869.750334,2960.823768,-1258.350101,-10035.851024
869.750653,2368.659014,-296.082377,-10418.898773
869.750973,1924.535449,1110.308913,-9959.241474
869.751293,592.164754,1924.535449,-10572.117872
869.751613,2368.659014,0.000000,-10035.851024
869.751933,1110.308913,-518.144159,-9806.022374
869.752253,0.000000,-1628.453072,-9729.412825
869.752573,0.000000,-1998.556043,-9806.022374
869.752893,-370.102971,0.000000,-9422.974625
869.753213,-666.185348,1480.411884,-9806.022374
869.753533,-666.185348,2516.700203,-9806.022374
869.753853,592.164754,518.144159,-9729.412825
869.754173,962.267725,-962.267725,-9882.631924
869.754493,888.247130,-1776.494261,-8503.660028
869.754812,1776.494261,0.000000,-9882.631924
869.755132,1480.411884,1480.411884,-9882.631924
869.755452,666.185348,592.164754,-9959.241474
869.755772,1332.370696,370.102971,-10112.460574
869.756092,2146.597232,-148.041188,-9806.022374
869.756412,1184.329507,370.102971,-10265.679673
869.756732,592.164754,1480.411884,-10418.898773
869.757052,0.000000,444.123565,-10189.070123
869.757372,74.020594,1110.308913,-10112.460574
869.757692,444.123565,-1480.411884,-10112.460574
869.758012,370.102971,-1924.535449,-10035.851024
869.758332,740.205942,-370.102971,-10572.117872
869.758652,592.164754,1924.535449,-11797.870669
869.758971,592.164754,3775.050304,-10955.165621
869.759291,0.000000,3108.864956,-10801.946522
869.759611,0.000000,1406.391290,-10418.898773
869.759931,444.123565,-962.267725,-10495.508323
869.760251,444.123565,-1628.453072,-9806.022374
869.760571,-518.144159,-888.247130,-10112.460574
869.760891,-740.205942,740.205942,-9882.631924
869.761211,-370.102971,1850.514855,-10112.460574
869.761531,0.000000,740.205942,-9729.412825
869.761851,592.164754,-518.144159,-9806.022374
869.762171,1184.329507,-444.123565,-9959.241474
869.762491,740.205942,0.000000,-10112.460574
869.762811,444.123565,74.020594,-10035.851024
869.763130,-148.041188,888.247130,-9422.974625
869.763450,-148.041188,296.082377,-10112.460574
869.763770,-74.020594,-370.102971,-10035.851024
869.764090,-296.082377,-518.144159,-9576.193725
869.764410,-1776.494261,0.000000,-10112.460574
869.764730,222.061783,814.226536,-10035.851024
869.765050,-148.041188,1258.350101,-10112.460574
869.765370,-296.082377,666.185348,-9959.241474
869.765690,296.082377,-888.247130,-9806.022374
869.766010,74.020594,-740.205942,-10189.070123
869.766330,-444.123565,-370.102971,-10342.289223
869.766650,-1110.308913,592.164754,-10112.460574
869.766970,370.102971,3256.906145,-10878.556072
869.767289,1184.329507,2664.741391,-12410.747068
869.767609,2220.617826,1258.350101,-10878.556072
869.767929,1258.350101,0.000000,-10495.508323
869.768249,-814.226536,-74.020594,-10801.946522
869.768569,-1258.350101,-666.185348,-10035.851024
869.768889,-592.164754,-74.020594,-11031.775171
869.769209,-370.102971,0.000000,-10035.851024
869.769529,740.205942,0.000000,-9576.193725
869.769849,1036.288319,2220.617826,-10189.070123
869.770169,1110.308913,2664.741391,-10265.679673
869.770489,222.061783,3256.906145,-10265.679673
869.770809,1628.453072,2146.597232,-9882.631924
869.771129,2590.720797,-444.123565,-9806.022374
869.771448,3108.864956,-3034.844362,-9116.536426
869.771768,3108.864956,-3923.091493,-9346.365076
869.772088,2146.597232,-1554.432478,-9806.022374
869.772408,1850.514855,888.247130,-10112.460574
869.772728,2146.597232,2590.720797,-9729.412825
869.773048,1036.288319,2590.720797,-10035.851024
869.773368,518.144159,1702.473667,-9806.022374
869.773688,518.144159,0.000000,-10418.898773
869.774008,1480.411884,-1480.411884,-9882.631924
869.774328,1110.308913,-888.247130,-10112.460574
869.774648,518.144159,-222.061783,-10112.460574
869.774968,888.247130,222.061783,-9729.412825
869.775288,1480.411884,370.102971,-10495.508323
869.775607,1480.411884,1480.411884,-10418.898773
869.775927,0.000000,2812.782580,-10801.946522
869.776247,-740.205942,3330.926739,-11108.384721
869.776567,592.164754,2442.679609,-10189.070123
869.776887,1628.453072,1480.411884,-10495.508323
869.777207,1850.514855,-1184.329507,-10112.460574
869.777527,1406.391290,-2072.576638,-9882.631924
869.777847,962.267725,-1036.288319,-10265.679673
869.778167,518.144159,0.000000,-9959.241474
869.778487,0.000000,1332.370696,-9959.241474
869.778807,-1036.288319,2294.638420,-10112.460574
869.779127,-1628.453072,2146.597232,-9806.022374
869.779447,-296.082377,-148.041188,-10112.460574
869.779766,888.247130,-888.247130,-9729.412825
869.780086,962.267725,-1036.288319,-9346.365076
869.780406,222.061783,-1480.411884,-9729.412825
869.780726,-296.082377,-444.123565,-9422.974625
869.781046,-1332.370696,-296.082377,-9499.584175
869.781366,-370.102971,-592.164754,-9882.631924
869.781686,444.123565,74.020594,-9422.974625
869.782006,-592.164754,444.123565,-10035.851024
869.782326,-1036.288319,444.123565,-9882.631924
869.782646,-518.144159,222.061783,-9652.803275
869.782966,-296.082377,-518.144159,-10189.070123
869.783286,666.185348,-1480.411884,-10418.898773
869.783606,370.102971,-1776.494261,-10112.460574
869.783926,-444.123565,0.000000,-10112.460574
869.784245,-592.164754,1406.391290,-10342.289223
869.784565,-1480.411884,3256.906145,-10878.556072
869.784885,-148.041188,2442.679609,-10725.336972
869.785205,0.000000,0.000000,-10495.508323
869.785525,222.061783,-1110.308913,-10725.336972
869.785845,0.000000,-444.123565,-10418.898773
869.786165,-1850.514855,0.000000,-10495.508323
869.786485,-666.185348,814.226536,-10189.070123
869.786805,888.247130,962.267725,-10495.508323
869.787125,2812.782580,-592.164754,-10265.679673
869.787445,2368.659014,-1258.350101,-10035.851024
869.787765,740.205942,-222.061783,-10189.070123
869.788085,1110.308913,2294.638420,-10418.898773
869.788405,1924.535449,3182.885551,-10265.679673
869.788725,2812.782580,2960.823768,-10878.556072
869.789045,2368.659014,148.041188,-10495.508323
869.789365,1850.514855,-1998.556043,-9806.022374
869.789684,0.000000,-2960.823768,-9652.803275
869.790004,0.000000,-2368.659014,-8733.488677
869.790324,-666.185348,148.041188,-9499.584175
869.790644,-1036.288319,2146.597232,-9959.241474
869.790964,592.164754,3108.864956,-10035.851024
869.791284,2220.617826,2738.761985,-9959.241474
869.791604,2590.720797,1258.350101,-9499.584175
869.791924,2738.761985,-962.267725,-10112.460574
869.792244,3034.844362,-1110.308913,-9806.022374
869.792564,1036.288319,-1332.370696,-9422.974625
869.792884,-296.082377,-962.267725,-9882.631924
869.793204,-1332.370696,-740.205942,-9576.193725
869.793524,-1036.288319,74.020594,-10112.460574
869.793844,-222.061783,888.247130,-10112.460574
869.794164,962.267725,1554.432478,-10495.508323
869.794484,2368.659014,1332.370696,-10265.679673
869.794804,2442.679609,-296.082377,-10495.508323
869.795124,2886.803174,-666.185348,-10342.289223
869.795444,1110.308913,-592.164754,-10418.898773
869.795764,-296.082377,-148.041188,-10418.898773
869.796084,-814.226536,1332.370696,-10572.117872
869.796404,-1110.308913,2220.617826,-10648.727422
869.796724,0.000000,1406.391290,-10725.336972
869.797044,1110.308913,-148.041188,-9959.241474
869.797364,1110.308913,0.000000,-10035.851024
869.797683,148.041188,0.000000,-10572.117872
869.798003,148.041188,222.061783,-10342.289223
869.798323,-444.123565,518.144159,-10112.460574
869.798643,-962.267725,0.000000,-10495.508323
869.798963,-592.164754,-740.205942,-9959.241474
869.799283,518.144159,-148.041188,-9806.022374
869.799603,1998.556043,1184.329507,-10342.289223
869.799923,1998.556043,2072.576638,-10418.898773
869.800243,740.205942,2886.803174,-10495.508323
869.800563,-1036.288319,444.123565,-9576.193725
869.800883,74.020594,-1110.308913,-9652.803275
869.801203,-148.041188,-3330.926739,-9422.974625
869.801523,-444.123565,-2886.803174,-8963.317327
869.801843,-1998.556043,-444.123565,-9269.755526
869.802163,-1702.473667,2072.576638,-9806.022374
869.802483,-296.082377,2886.803174,-9882.631924
869.802803,1332.370696,1924.535449,-10189.070123
869.803123,2220.617826,-1184.329507,-9959.241474
869.803443,1998.556043,-2146.597232,-10112.460574
869.803763,1110.308913,-1776.494261,-10035.851024
869.804083,-592.164754,-296.082377,-10418.898773
869.804403,-1110.308913,1628.453072,-10112.460574
869.804723,-666.185348,2442.679609,-10418.898773
869.805043,-518.144159,1406.391290,-10189.070123
869.805363,0.000000,518.144159,-10878.556072
869.805682,888.247130,0.000000,-11031.775171
869.806002,592.164754,74.020594,-10725.336972
869.806322,0.000000,-148.041188,-11108.384721
869.806642,444.123565,148.041188,-10878.556072
869.806962,592.164754,0.000000,-10572.117872
869.807282,888.247130,814.226536,-10418.898773
869.807602,592.164754,2738.761985,-10725.336972
869.807922,1036.288319,3034.844362,-10725.336972
869.808242,1332.370696,2146.597232,-10648.727422
869.808562,1998.556043,1406.391290,-11108.384721
869.808882,1998.556043,-1406.391290,-9806.022374
869.809202,1110.308913,-2738.761985,-9346.365076
869.809522,518.144159,-1776.494261,-9806.022374
869.809842,888.247130,222.061783,-9346.365076
869.810162,296.082377,2812.782580,-9882.631924
869.810482,740.205942,3108.864956,-9652.803275
869.810802,2442.679609,2294.638420,-9806.022374
869.811122,2294.638420,-222.061783,-9193.145976
869.811442,3997.112087,-2146.597232,-9806.022374
869.811762,2960.823768,-2220.617826,-9499.584175
869.812082,1258.350101,-518.144159,-9959.241474
869.812402,-962.267725,518.144159,-9806.022374
869.812722,-592.164754,1110.308913,-10189.070123
869.813042,74.020594,814.226536,-9806.022374
869.813362,0.000000,740.205942,-10572.117872
869.813681,1184.329507,1258.350101,-10342.289223
869.814001,1258.350101,1184.329507,-10725.336972
869.814321,0.000000,962.267725,-10495.508323
869.814641,1776.494261,-888.247130,-10418.898773
869.814961,1036.288319,-1850.514855,-10265.679673
869.815281,-444.123565,-296.082377,-10725.336972
869.815601,-518.144159,1110.308913,-10112.460574
869.815921,-370.102971,3182.885551,-10725.336972
869.816241,0.000000,3182.885551,-10648.727422
869.816561,296.082377,888.247130,-10725.336972
869.816881,0.000000,-1702.473667,-10265.679673
869.817201,-444.123565,-2664.741391,-10801.946522
869.817521,-1628.453072,-1850.514855,-9729.412825
869.817841,-1036.288319,74.020594,-10112.460574
869.818161,-962.267725,2072.576638,-10342.289223
869.818481,-444.123565,888.247130,-8963.317327
869.818801,666.185348,-962.267725,-9806.022374
869.819121,962.267725,-444.123565,-10112.460574
869.819441,740.205942,592.164754,-9882.631924
869.819761,74.020594,666.185348,-10035.851024
869.820081,0.000000,518.144159,-9116.536426
869.820401,-888.247130,-1702.473667,-9806.022374
869.820721,-1480.411884,-3256.906145,-9346.365076
869.821041,-2516.700203,-2812.782580,-9576.193725
869.821361,-1554.432478,-740.205942,-9576.193725
869.821680,1480.411884,370.102971,-9729.412825
869.822000,2220.617826,2442.679609,-10572.117872
869.822320,1110.308913,1258.350101,-10265.679673
869.822640,-296.082377,-444.123565,-9959.241474
869.822960,0.000000,-1554.432478,-9806.022374
869.823280,296.082377,-2146.597232,-9882.631924
869.823600,1406.391290,-1258.350101,-10112.460574
869.823920,1406.391290,814.226536,-10495.508323
869.824240,1850.514855,1184.329507,-10495.508323
869.824560,1480.411884,0.000000,-10418.898773
869.824880,148.041188,518.144159,-9959.241474
869.825200,-148.041188,1406.391290,-11184.994271
869.825520,1480.411884,1480.411884,-10801.946522
869.825840,740.205942,962.267725,-10342.289223
869.826160,148.041188,-740.205942,-9959.241474
869.826480,-888.247130,-1924.535449,-9729.412825
869.826800,-1036.288319,-1702.473667,-9729.412825
869.827120,814.226536,370.102971,-10648.727422
869.827440,3108.864956,2368.659014,-10342.289223
869.827760,2590.720797,4293.194464,-10495.508323
869.828080,3330.926739,4145.153275,-10725.336972
869.828400,1406.391290,2146.597232,-9959.241474
869.828720,-148.041188,370.102971,-9806.022374
869.829040,148.041188,0.000000,-9576.193725
869.829360,1850.514855,-962.267725,-9729.412825
869.829679,2590.720797,-962.267725,-9652.803275
869.829999,1184.329507,-962.267725,-9116.536426
869.830319,2072.576638,-666.185348,-9346.365076
869.830639,1628.453072,0.000000,-9499.584175
869.830959,1258.350101,1406.391290,-10189.070123
869.831279,1110.308913,3034.844362,-10801.946522
869.831599,148.041188,2886.803174,-10342.289223
869.831919,-1480.411884,1480.411884,-10035.851024
869.832239,0.000000,-1110.308913,-9959.241474
869.832559,592.164754,-1628.453072,-9806.022374
869.832879,296.082377,-1554.432478,-10801.946522
869.833199,888.247130,222.061783,-9806.022374
869.833519,1554.432478,2368.659014,-10572.117872
869.833839,1554.432478,3404.947333,-10342.289223
869.834159,2146.597232,2368.659014,-10342.289223
869.834479,1628.453072,888.247130,-10265.679673
869.834799,666.185348,296.082377,-10495.508323
869.835119,148.041188,444.123565,-10495.508323
869.835439,-1406.391290,1702.473667,-10035.851024
869.835759,-1258.350101,1850.514855,-10035.851024
869.836079,592.164754,1628.453072,-10801.946522
869.836399,-296.082377,74.020594,-10495.508323
869.836719,-1480.411884,222.061783,-10189.070123
869.837039,-1776.494261,592.164754,-10112.460574
869.837359,-2072.576638,1332.370696,-9882.631924
869.837678,-1924.535449,518.144159,-10189.070123
869.837998,0.000000,-814.226536,-9959.241474
869.838318,1036.288319,-1628.453072,-9652.803275
869.838638,2368.659014,-1184.329507,-9806.022374
869.838958,3775.050304,-222.061783,-10035.851024
869.839278,2294.638420,2220.617826,-10342.289223
869.839598,1480.411884,2664.741391,-10342.289223
869.839918,-444.123565,1184.329507,-10189.070123
869.840238,-2812.782580,-1776.494261,-9652.803275
869.840558,-3108.864956,-2960.823768,-9269.755526
869.840878,-1628.453072,-2960.823768,-9422.974625
869.841198,-518.144159,-2368.659014,-9652.803275
869.841518,296.082377,296.082377,-9959.241474
869.841838,-666.185348,740.205942,-9729.412825
869.842158,740.205942,-444.123565,-9806.022374
869.842478,-296.082377,-444.123565,-9806.022374
869.842798,-1036.288319,-814.226536,-10112.460574
869.843118,-1850.514855,-444.123565,-10112.460574
869.843438,-1110.308913,-222.061783,-10035.851024
869.843758,888.247130,296.082377,-10342.289223
869.844078,2368.659014,-370.102971,-10342.289223
869.844398,3552.988522,74.020594,-10878.556072
869.844718,1702.473667,592.164754,-10648.727422
869.845038,962.267725,814.226536,-10801.946522
869.845358,1554.432478,1332.370696,-10801.946522
869.845677,296.082377,-592.164754,-10572.117872
869.845997,-592.164754,-1184.329507,-10495.508323
869.846317,-2072.576638,-2072.576638,-10572.117872
869.846637,-1554.432478,-1480.411884,-10265.679673
869.846957,1480.411884,1184.329507,-10955.165621
869.847277,2442.679609,2886.803174,-10572.117872
869.847597,3108.864956,2960.823768,-11414.822920
869.847917,3552.988522,814.226536,-10112.460574
869.848237,3034.844362,-962.267725,-10112.460574
869.848557,1702.473667,-2072.576638,-9116.536426
869.848877,444.123565,-1332.370696,-9806.022374
869.849197,-962.267725,-444.123565,-9269.755526
869.849517,0.000000,814.226536,-8886.707777
869.849837,0.000000,1332.370696,-9806.022374
869.850157,740.205942,518.144159,-9269.755526
869.850477,2590.720797,592.164754,-10112.460574
869.850797,2738.761985,222.061783,-10035.851024
869.851117,2368.659014,0.000000,-9346.365076
869.851437,2294.638420,1406.391290,-9269.755526
869.851757,222.061783,0.000000,-9652.803275
869.852077,0.000000,-518.144159,-9346.365076
869.852397,-666.185348,888.247130,-9806.022374
869.852717,2146.597232,888.247130,-10265.679673
869.853037,2664.741391,2368.659014,-9806.022374
869.853357,962.267725,2072.576638,-10878.556072
869.853676,-962.267725,1702.473667,-10265.679673
869.853996,-1406.391290,296.082377,-10572.117872
869.854316,-814.226536,-1110.308913,-10418.898773
869.854636,-1776.494261,-1406.391290,-9882.631924
869.854956,-814.226536,740.205942,-10342.289223
869.855276,444.123565,3256.906145,-10342.289223
869.855596,2368.659014,4071.132681,-10112.460574
869.855916,3108.864956,4219.173869,-10648.727422
869.856236,1776.494261,2516.700203,-11031.775171
869.856556,-148.041188,592.164754,-10725.336972
869.856876,-666.185348,-1036.288319,-10342.289223
869.857196,-1480.411884,-666.185348,-9116.536426
869.857516,-2368.659014,-592.164754,-9729.412825
869.857836,-370.102971,518.144159,-9959.241474
869.858156,1406.391290,888.247130,-10035.851024
869.858476,1406.391290,296.082377,-9806.022374
869.858796,1036.288319,296.082377,-9499.584175
869.859116,1702.473667,814.226536,-9806.022374
869.859436,1036.288319,888.247130,-9576.193725
869.859756,1850.514855,148.041188,-10112.460574
869.860076,-222.061783,-962.267725,-9193.145976
869.860396,-888.247130,-1776.494261,-9729.412825
869.860716,148.041188,-1480.411884,-9422.974625
869.861036,0.000000,-666.185348,-9652.803275
869.861356,-1184.329507,962.267725,-9806.022374
869.861676,222.061783,222.061783,-9959.241474
869.861995,962.267725,888.247130,-9959.241474
869.862315,74.020594,-444.123565,-10265.679673
869.862635,370.102971,-2072.576638,-10189.070123
869.862955,-444.123565,-1850.514855,-10112.460574
869.863275,-1406.391290,-1184.329507,-10035.851024
869.863595,-518.144159,0.000000,-10342.289223
869.863915,1406.391290,222.061783,-10495.508323
869.864235,2220.617826,1406.391290,-11184.994271
869.864555,1184.329507,1628.453072,-11108.384721
869.864875,-1036.288319,962.267725,-10648.727422
869.865195,-592.164754,-1332.370696,-10418.898773
869.865515,888.247130,-888.247130,-10418.898773
869.865835,1406.391290,-1628.453072,-10342.289223
869.866155,962.267725,-666.185348,-10725.336972
869.866475,-296.082377,518.144159,-10725.336972
869.866795,444.123565,1406.391290,-10725.336972
869.867115,1628.453072,3108.864956,-10572.117872
869.867435,1850.514855,1776.494261,-11108.384721
869.867755,1702.473667,592.164754,-10495.508323
869.868075,592.164754,-296.082377,-10265.679673
869.868395,-370.102971,-666.185348,-9729.412825
869.868715,-1036.288319,-518.144159,-9652.803275
869.869035,-1184.329507,148.041188,-9652.803275
869.869355,1258.350101,666.185348,-9806.022374
869.869675,2812.782580,222.061783,-9499.584175
869.869994,3627.009116,518.144159,-10189.070123
869.870314,1776.494261,-592.164754,-9806.022374
869.870634,666.185348,-1258.350101,-9193.145976
869.870954,-370.102971,-148.041188,-8733.488677
869.871274,-1480.411884,370.102971,-9576.193725
869.871594,-74.020594,-444.123565,-9499.584175
869.871914,1184.329507,-1036.288319,-9806.022374
869.872234,1776.494261,-888.247130,-9959.241474
869.872554,1110.308913,0.000000,-10265.679673
869.872874,74.020594,444.123565,-10112.460574
869.873194,-1184.329507,1702.473667,-10572.117872
869.873514,-444.123565,1184.329507,-10572.117872
869.873834,-148.041188,-1110.308913,-10342.289223
869.874154,518.144159,-2442.679609,-9806.022374
869.874474,-592.164754,-666.185348,-10801.946522
869.874794,-148.041188,1036.288319,-10801.946522
869.875114,2738.761985,2886.803174,-11184.994271
869.875434,2738.761985,3923.091493,-11184.994271
869.875754,1998.556043,4219.173869,-10801.946522
869.876074,1406.391290,3034.844362,-11184.994271
869.876394,370.102971,888.247130,-11031.775171
869.876714,-1332.370696,0.000000,-10189.070123
869.877034,-1110.308913,-962.267725,-9269.755526
869.877354,-1110.308913,-666.185348,-9806.022374
869.877674,-592.164754,-888.247130,-9499.584175
869.877993,1258.350101,1036.288319,-9882.631924
869.878313,1480.411884,1258.350101,-10265.679673
869.878633,740.205942,1776.494261,-9806.022374
869.878953,0.000000,2664.741391,-9882.631924
869.879273,1332.370696,1258.350101,-9729.412825
869.879593,1480.411884,-296.082377,-9269.755526
869.879913,666.185348,-1480.411884,-9806.022374
869.880233,-296.082377,-1036.288319,-9193.145976
869.880553,-1184.329507,-888.247130,-9499.584175
869.880873,370.102971,0.000000,-9576.193725
869.881193,740.205942,-148.041188,-8350.440928
869.881513,-148.041188,0.000000,-9422.974625
869.881833,-1776.494261,1184.329507,-9346.365076
869.882153,-2368.659014,1332.370696,-10112.460574
869.882473,-1036.288319,592.164754,-9729.412825
869.882793,148.041188,666.185348,-9882.631924
869.883113,888.247130,-296.082377,-9882.631924
869.883433,2590.720797,-962.267725,-9882.631924
869.883753,1110.308913,-222.061783,-10342.289223
869.884073,-296.082377,518.144159,-10801.946522
869.884393,-888.247130,1258.350101,-10418.898773
869.884713,-1406.391290,2442.679609,-10342.289223
869.885033,-1628.453072,2072.576638,-10265.679673
869.885353,74.020594,1406.391290,-11031.775171
869.885673,148.041188,-1332.370696,-9806.022374
869.885992,1776.494261,-2368.659014,-10878.556072
869.886312,1776.494261,-1776.494261,-9806.022374
869.886632,1850.514855,444.123565,-11031.775171
869.886952,1184.329507,1850.514855,-11951.089769
869.887272,962.267725,2294.638420,-10725.336972
869.887592,666.185348,2516.700203,-10572.117872
869.887912,74.020594,1924.535449,-10112.460574
869.888232,1480.411884,1628.453072,-10572.117872
869.888552,1110.308913,444.123565,-10418.898773
869.888871,2516.700203,0.000000,-10418.898773
869.889191,2960.823768,-1998.556043,-9806.022374
869.889511,1480.411884,-2146.597232,-9269.755526
869.889831,0.000000,-1036.288319,-9576.193725
869.890151,222.061783,1628.453072,-9806.022374
869.890471,1110.308913,2812.782580,-9576.193725
869.890791,2294.638420,2738.761985,-9882.631924
869.891111,2516.700203,-518.144159,-9269.755526
869.891431,2368.659014,-2368.659014,-9422.974625
869.891750,3034.844362,-1554.432478,-9806.022374
869.892070,2368.659014,0.000000,-9729.412825
869.892390,1554.432478,1406.391290,-10189.070123
869.892710,962.267725,1702.473667,-9882.631924
869.893030,888.247130,1184.329507,-9806.022374
869.893350,0.000000,444.123565,-9959.241474
869.893670,-666.185348,592.164754,-9806.022374
869.893990,-370.102971,222.061783,-10112.460574
869.894310,1850.514855,0.000000,-10725.336972
869.894630,1850.514855,888.247130,-9729.412825
869.894949,1036.288319,-518.144159,-10572.117872
869.895269,0.000000,-1258.350101,-10035.851024
869.895589,74.020594,-222.061783,-10572.117872
869.895909,0.000000,4071.132681,-11108.384721
869.896229,296.082377,4959.379811,-11031.775171
869.896549,592.164754,3108.864956,-10342.289223
869.896869,518.144159,814.226536,-10725.336972
869.897189,-370.102971,-962.267725,-9806.022374
869.897509,962.267725,-1628.453072,-10342.289223
869.897828,0.000000,-444.123565,-10035.851024
869.898148,-296.082377,0.000000,-10112.460574
869.898468,-1258.350101,0.000000,-9576.193725
869.898788,-1036.288319,-740.205942,-9652.803275
869.899108,-1554.432478,-1850.514855,-9806.022374
869.899428,0.000000,-592.164754,-9959.241474
869.899748,-1776.494261,962.267725,-9882.631924
869.900068,-1628.453072,888.247130,-9882.631924
869.900388,-370.102971,-222.061783,-9346.365076
869.900707,740.205942,-1332.370696,-9806.022374
869.901027,370.102971,-3182.885551,-9499.584175
869.901347,-370.102971,-3330.926739,-9499.584175
869.901667,-2072.576638,-2664.741391,-9499.584175
869.901987,-1998.556043,-370.102971,-9959.241474
869.902307,-1258.350101,296.082377,-9499.584175
869.902627,-814.226536,740.205942,-10189.070123
869.902947,518.144159,-1702.473667,-9806.022374
869.903267,814.226536,-1036.288319,-10342.289223
869.903586,666.185348,-1702.473667,-10189.070123
869.903906,1406.391290,-592.164754,-10572.117872
869.904226,740.205942,444.123565,-10418.898773
869.904546,962.267725,888.247130,-10878.556072
869.904866,1036.288319,1036.288319,-10418.898773
869.905186,1480.411884,222.061783,-11261.603821
869.905506,1332.370696,666.185348,-9499.584175
869.905826,1924.535449,-296.082377,-11031.775171
869.906146,1480.411884,-74.020594,-10418.898773
869.906465,222.061783,-962.267725,-9882.631924
869.906785,296.082377,-1406.391290,-10189.070123
869.907105,592.164754,-296.082377,-10418.898773
869.907425,1776.494261,1480.411884,-10418.898773
869.907745,2368.659014,2368.659014,-10572.117872
869.908065,3108.864956,2738.761985,-10418.898773
869.908385,2738.761985,2590.720797,-10725.336972
869.908705,3849.070898,666.185348,-10648.727422
869.909025,3552.988522,-1258.350101,-9882.631924
869.909344,2146.597232,-2146.597232,-9729.412825
869.909664,740.205942,-1184.329507,-8886.707777
869.909984,370.102971,740.205942,-9882.631924
869.910304,444.123565,2072.576638,-9806.022374
869.910624,1036.288319,2886.803174,-9959.241474
869.910944,592.164754,1998.556043,-9806.022374
869.911264,1628.453072,1406.391290,-10112.460574
869.911584,1258.350101,518.144159,-10189.070123
869.911904,1480.411884,-148.041188,-9882.631924
869.912223,296.082377,-296.082377,-9729.412825
869.912543,740.205942,0.000000,-10112.460574
869.912863,-148.041188,0.000000,-10265.679673
869.913183,-1110.308913,1480.411884,-9882.631924
869.913503,-1480.411884,3034.844362,-10495.508323
869.913823,-296.082377,3330.926739,-11184.994271
869.914143,222.061783,3256.906145,-9729.412825
869.914463,-666.185348,1776.494261,-10495.508323
869.914783,148.041188,-888.247130,-10265.679673
869.915102,-296.082377,-1628.453072,-9806.022374
869.915422,-814.226536,-222.061783,-10112.460574
869.915742,-1702.473667,1702.473667,-9959.241474
869.916062,-962.267725,3256.906145,-10035.851024
869.916382,-370.102971,2368.659014,-10112.460574
869.916702,444.123565,1406.391290,-10112.460574
869.917022,1036.288319,814.226536,-9806.022374
869.917342,666.185348,592.164754,-10035.851024
869.917662,0.000000,592.164754,-10265.679673
869.917981,-1406.391290,814.226536,-9346.365076
869.918301,-888.247130,2072.576638,-10572.117872
869.918621,-222.061783,814.226536,-9806.022374
869.918941,1554.432478,74.020594,-9652.803275
869.919261,888.247130,-444.123565,-10035.851024
869.919581,518.144159,-740.205942,-9652.803275
869.919901,1850.514855,-962.267725,-9729.412825
869.920221,592.164754,-370.102971,-9806.022374
869.920541,444.123565,-1332.370696,-9806.022374
869.920860,666.185348,-1406.391290,-9882.631924
869.921180,1036.288319,666.185348,-9652.803275
869.921500,222.061783,1776.494261,-10495.508323
869.921820,-888.247130,2072.576638,-10112.460574
869.922140,-518.144159,888.247130,-10035.851024
869.922460,740.205942,0.000000,-11261.603821
869.922780,2146.597232,-2368.659014,-10418.898773
869.923100,2072.576638,-1998.556043,-10265.679673
869.923420,1702.473667,-592.164754,-11031.775171
869.923739,1628.453072,1480.411884,-10725.336972
869.924059,814.226536,3108.864956,-10648.727422
869.924379,296.082377,2294.638420,-10955.165621
869.924699,592.164754,1184.329507,-11184.994271
869.925019,666.185348,-518.144159,-10648.727422
869.925339,0.000000,-370.102971,-10342.289223
869.925659,-296.082377,-370.102971,-10265.679673
869.925979,-666.185348,148.041188,-10265.679673
869.926299,-592.164754,-518.144159,-10342.289223
869.926618,666.185348,-1184.329507,-10265.679673
869.926938,1406.391290,148.041188,-11108.384721
869.927258,1850.514855,2220.617826,-10801.946522
869.927578,3627.009116,2960.823768,-10342.289223
869.927898,4219.173869,3552.988522,-10112.460574
869.928218,3627.009116,1628.453072,-9806.022374
869.928538,2664.741391,-1258.350101,-9729.412825
869.928858,0.000000,-2516.700203,-9422.974625
869.929178,-1998.556043,-2442.679609,-9346.365076
869.929497,-1554.432478,-444.123565,-9346.365076
869.929817,-148.041188,1110.308913,-9576.193725
869.930137,-962.267725,2368.659014,-9959.241474
869.930457,-370.102971,740.205942,-9729.412825
869.930777,0.000000,-1110.308913,-9806.022374
869.931097,666.185348,-1110.308913,-8886.707777
869.931417,1332.370696,-2146.597232,-9576.193725
869.931737,74.020594,-740.205942,-8963.317327
869.932057,962.267725,740.205942,-9652.803275
869.932376,2664.741391,296.082377,-10035.851024
869.932696,1702.473667,-962.267725,-9806.022374
869.933016,888.247130,-370.102971,-10035.851024
869.933336,444.123565,1332.370696,-10725.336972
869.933656,296.082377,2590.720797,-9806.022374
869.933976,1850.514855,962.267725,-10648.727422
869.934296,0.000000,-1110.308913,-10265.679673
869.934616,-1406.391290,-3182.885551,-9959.241474
869.934936,-1406.391290,-3849.070898,-9959.241474
869.935256,-518.144159,-1184.329507,-9806.022374
869.935575,370.102971,1850.514855,-10265.679673
869.935895,-1332.370696,4367.215058,-10801.946522
869.936215,-148.041188,3923.091493,-10801.946522
869.936535,2368.659014,740.205942,-10418.898773
869.936855,3552.988522,-1110.308913,-10495.508323
869.937175,592.164754,-962.267725,-10572.117872
869.937495,-814.226536,-2368.659014,-10112.460574
869.937815,-888.247130,-592.164754,-9959.241474
869.938135,-888.247130,-888.247130,-9346.365076
869.938454,-148.041188,-148.041188,-10572.117872
869.938774,370.102971,0.000000,-10112.460574
869.939094,-296.082377,1554.432478,-10878.556072
869.939414,222.061783,2960.823768,-10725.336972
869.939734,222.061783,2960.823768,-10342.289223
869.940054,74.020594,-1258.350101,-9806.022374
869.940374,74.020594,-4071.132681,-9729.412825
869.940694,148.041188,-3627.009116,-9193.145976
869.941014,1702.473667,-1332.370696,-10035.851024
869.941333,1110.308913,222.061783,-9882.631924
869.941653,-518.144159,2368.659014,-9882.631924
869.941973,-1184.329507,2516.700203,-9882.631924
869.942293,444.123565,592.164754,-9882.631924
869.942613,1924.535449,0.000000,-11338.213370
869.942933,2442.679609,-1036.288319,-9806.022374
869.943253,1332.370696,-1702.473667,-9882.631924
869.943573,0.000000,74.020594,-9269.755526
869.943893,-296.082377,222.061783,-9422.974625
869.944212,1480.411884,-666.185348,-9652.803275
869.944532,2886.803174,-888.247130,-9806.022374
869.944852,2220.617826,1480.411884,-10801.946522
869.945172,1036.288319,962.267725,-10725.336972
869.945492,-592.164754,3552.988522,-9499.584175
869.945812,-2368.659014,3108.864956,-9959.241474
869.946132,222.061783,0.000000,-10342.289223
869.946452,2516.700203,-1480.411884,-10265.679673
869.946772,2960.823768,-666.185348,-10878.556072
869.947091,1110.308913,-1480.411884,-10035.851024
869.947411,-592.164754,3701.029710,-10725.336972
869.947731,-1406.391290,5551.544565,-10648.727422
869.948051,1480.411884,5329.482782,-10955.165621
869.948371,2664.741391,370.102971,-10495.508323
869.948691,1554.432478,-1036.288319,-10495.508323
869.949011,444.123565,-2368.659014,-10189.070123
869.949331,-222.061783,-2220.617826,-10035.851024
869.949651,-74.020594,814.226536,-9729.412825
869.949970,1776.494261,1924.535449,-10725.336972
869.950290,1924.535449,1776.494261,-9806.022374
869.950610,962.267725,1258.350101,-10265.679673
869.950930,-1036.288319,1702.473667,-10189.070123
869.951250,-592.164754,3108.864956,-10495.508323
869.951570,-666.185348,2146.597232,-9499.584175
869.951890,814.226536,0.000000,-10495.508323
869.952210,2294.638420,-3182.885551,-9422.974625
869.952530,2886.803174,-3330.926739,-8963.317327
869.952849,1332.370696,74.020594,-10265.679673
869.953169,0.000000,4145.153275,-10342.289223
869.953489,-1332.370696,5773.606348,-10265.679673
869.953809,370.102971,2812.782580,-9269.755526
869.954129,1702.473667,-148.041188,-9499.584175
869.954449,444.123565,-3478.967927,-9652.803275
869.954769,-666.185348,-3330.926739,-9576.193725
869.955089,444.123565,-518.144159,-9882.631924
869.955409,1480.411884,2072.576638,-9652.803275
869.955728,1776.494261,3478.967927,-10342.289223
869.956048,1480.411884,1924.535449,-10112.460574
869.956368,666.185348,-148.041188,-9959.241474
869.956688,296.082377,0.000000,-10572.117872
869.957008,1628.453072,370.102971,-10189.070123
869.957328,518.144159,962.267725,-10189.070123
869.957648,-296.082377,-1776.494261,-9576.193725
869.957968,-740.205942,-2738.761985,-9882.631924
869.958288,-962.267725,-3256.906145,-9729.412825
869.958607,0.000000,0.000000,-10265.679673
869.958927,222.061783,2072.576638,-11108.384721
869.959247,0.000000,1554.432478,-10265.679673
869.959567,-666.185348,74.020594,-9652.803275
869.959887,-1184.329507,-2146.597232,-10265.679673
869.960207,296.082377,-3182.885551,-9729.412825
869.960527,-444.123565,-1850.514855,-10112.460574
869.960847,-1480.411884,888.247130,-10418.898773
869.961167,-740.205942,1998.556043,-9499.584175
869.961486,222.061783,2220.617826,-10342.289223
869.961806,1702.473667,1924.535449,-10112.460574
869.962126,1036.288319,296.082377,-10342.289223
869.962446,148.041188,-1184.329507,-9116.536426
869.962766,-740.205942,-2368.659014,-9882.631924
869.963086,-1702.473667,-2664.741391,-9499.584175
869.963406,-1480.411884,-1924.535449,-9576.193725
869.963726,-962.267725,-1998.556043,-9576.193725
869.964046,962.267725,-1184.329507,-10035.851024
869.964365,1480.411884,740.205942,-10189.070123
869.964685,1628.453072,1924.535449,-11184.994271
869.965005,1036.288319,1776.494261,-10112.460574
869.965325,444.123565,2072.576638,-10801.946522
869.965645,888.247130,518.144159,-10342.289223
869.965965,2294.638420,-1998.556043,-10418.898773
869.966285,1184.329507,-2368.659014,-10189.070123
869.966605,592.164754,-1332.370696,-10955.165621
869.966925,666.185348,1406.391290,-10572.117872
869.967244,1406.391290,3404.947333,-10418.898773
869.967564,1332.370696,1998.556043,-10112.460574
869.967884,1406.391290,1036.288319,-10418.898773
869.968204,962.267725,-2368.659014,-9652.803275
869.968524,1702.473667,-518.144159,-10648.727422
869.968844,1110.308913,-222.061783,-9882.631924
869.969164,-296.082377,1998.556043,-9882.631924
869.969484,-888.247130,4071.132681,-10189.070123
869.969804,1184.329507,2664.741391,-10418.898773
869.970123,2368.659014,370.102971,-10342.289223
869.970443,1480.411884,-296.082377,-10035.851024
869.970763,-1258.350101,444.123565,-10035.851024
869.971083,-1998.556043,1184.329507,-9806.022374
869.971403,0.000000,1776.494261,-9806.022374
869.971723,2590.720797,592.164754,-10342.289223
869.972043,3849.070898,-888.247130,-9806.022374
869.972363,2886.803174,-518.144159,-9882.631924
869.972683,2664.741391,1776.494261,-9959.241474
869.973002,1184.329507,2886.803174,-9959.241474
869.973322,814.226536,3923.091493,-9806.022374
869.973642,1036.288319,1036.288319,-9729.412825
869.973962,1406.391290,-1184.329507,-9729.412825
869.974282,1184.329507,-2072.576638,-9652.803275
869.974602,0.000000,-2072.576638,-10035.851024
869.974922,-444.123565,592.164754,-9039.926876
869.975242,-592.164754,2368.659014,-11414.822920
869.975562,444.123565,1850.514855,-10112.460574
869.975882,1998.556043,-148.041188,-9882.631924
869.976201,222.061783,-740.205942,-9959.241474
869.976521,0.000000,370.102971,-10342.289223
869.976841,0.000000,2812.782580,-10342.289223
869.977161,592.164754,2516.700203,-10878.556072
869.977481,1628.453072,1110.308913,-10418.898773
869.977801,814.226536,-2368.659014,-9499.584175
869.978121,74.020594,-3256.906145,-10265.679673
869.978441,0.000000,-592.164754,-10189.070123
869.978761,148.041188,1702.473667,-11031.775171
869.979080,-222.061783,2220.617826,-10189.070123
869.979400,-1480.411884,518.144159,-10342.289223
869.979720,-1998.556043,-2886.803174,-9652.803275
869.980040,-2294.638420,-2294.638420,-10189.070123
869.980360,-1258.350101,-1554.432478,-10495.508323
869.980680,-370.102971,1628.453072,-10878.556072
869.981000,-888.247130,2812.782580,-10801.946522
869.981320,-1480.411884,1702.473667,-10418.898773
869.981640,-370.102971,-814.226536,-10112.460574
869.981959,1036.288319,-1554.432478,-10035.851024
869.982279,1332.370696,-1332.370696,-9806.022374
869.982599,962.267725,0.000000,-10418.898773
869.982919,-518.144159,0.000000,-9422.974625
869.983239,-444.123565,296.082377,-9882.631924
869.983559,888.247130,-888.247130,-9806.022374
869.983879,1776.494261,-1480.411884,-10112.460574
869.984199,1258.350101,-1036.288319,-10189.070123
869.984519,740.205942,592.164754,-10112.460574
869.984838,1036.288319,2294.638420,-9959.241474
869.985158,1480.411884,2146.597232,-10035.851024
869.985478,666.185348,814.226536,-9652.803275
869.985798,1702.473667,-1184.329507,-9882.631924
869.986118,1554.432478,-1554.432478,-9959.241474
869.986438,518.144159,-1480.411884,-10265.679673
869.986758,592.164754,518.144159,-9499.584175
869.987078,444.123565,2368.659014,-9959.241474
869.987398,3108.864956,1924.535449,-9882.631924
869.987718,4515.256246,444.123565,-9806.022374
869.988038,3330.926739,148.041188,-9806.022374
869.988358,666.185348,-518.144159,-9806.022374
869.988678,-1480.411884,0.000000,-9806.022374
869.988998,296.082377,592.164754,-9729.412825
869.989318,2146.597232,0.000000,-10342.289223
869.989638,3182.885551,74.020594,-10035.851024
869.989958,2294.638420,0.000000,-10189.070123
869.990278,592.164754,1258.350101,-10648.727422
869.990598,-1036.288319,2146.597232,-10265.679673
869.990918,-2220.617826,3034.844362,-10189.070123
869.991238,-1998.556043,962.267725,-10112.460574
869.991558,-1110.308913,-1554.432478,-10418.898773
869.991878,222.061783,-1184.329507,-10189.070123
869.992198,814.226536,-296.082377,-11031.775171
869.992518,1998.556043,2442.679609,-10725.336972
869.992838,888.247130,3404.947333,-10801.946522
869.993158,0.000000,2960.823768,-10801.946522
869.993478,370.102971,1258.350101,-10265.679673
869.993798,518.144159,-370.102971,-10572.117872
869.994118,370.102971,74.020594,-10189.070123
869.994438,0.000000,592.164754,-9959.241474
869.994758,-814.226536,1776.494261,-9729.412825
869.995078,-888.247130,666.185348,-9652.803275
869.995398,1258.350101,-592.164754,-10418.898773
869.995718,2146.597232,-2072.576638,-9882.631924
869.996038,1850.514855,-1184.329507,-9806.022374
869.996358,518.144159,740.205942,-9959.241474
869.996678,-518.144159,2960.823768,-9269.755526
869.996998,-1406.391290,2516.700203,-9576.193725
869.997318,-1850.514855,74.020594,-9882.631924
869.997638,-888.247130,-2294.638420,-9422.974625
869.997958,0.000000,-2664.741391,-9806.022374
869.998278,1184.329507,-1110.308913,-9652.803275
869.998598,1110.308913,962.267725,-9806.022374
869.998918,-370.102971,1924.535449,-9959.241474
869.999238,0.000000,148.041188,-9806.022374
869.999558,-814.226536,-1554.432478,-10572.117872
869.999878,-740.205942,-1554.432478,-10189.070123
870.000198,444.123565,-296.082377,-10801.946522
870.000518,888.247130,1406.391290,-10648.727422
870.000838,444.123565,2886.803174,-10878.556072
870.001158,1036.288319,2294.638420,-10495.508323
870.001478,1554.432478,296.082377,-10648.727422
870.001798,518.144159,-1110.308913,-10572.117872
870.002118,-518.144159,-296.082377,-10648.727422
870.002438,-1258.350101,592.164754,-10189.070123
870.002758,-518.144159,1702.473667,-10648.727422
870.003078,0.000000,-222.061783,-10495.508323
870.003398,1036.288319,-1702.473667,-10342.289223
870.003718,1628.453072,-1258.350101,-10265.679673
870.004038,1036.288319,740.205942,-10572.117872
870.004358,962.267725,2442.679609,-10572.117872
870.004678,1258.350101,4293.194464,-10342.289223
870.004998,666.185348,3108.864956,-10572.117872
870.005318,2072.576638,-962.267725,-9882.631924
870.005638,2516.700203,-2738.761985,-9652.803275
870.005958,2072.576638,-3775.050304,-9882.631924
870.006278,1998.556043,-888.247130,-9729.412825
870.006598,888.247130,2442.679609,-10189.070123
870.006918,296.082377,4219.173869,-10265.679673
870.007238,1036.288319,3552.988522,-10342.289223
870.007558,962.267725,1776.494261,-10265.679673
870.007877,1776.494261,-370.102971,-9882.631924
870.008197,2368.659014,-296.082377,-9806.022374
870.008517,2220.617826,-666.185348,-9346.365076
870.008837,2220.617826,-888.247130,-9729.412825
870.009157,2812.782580,-962.267725,-9269.755526
870.009477,3997.112087,518.144159,-9576.193725
870.009797,4071.132681,1628.453072,-10035.851024
870.010117,2220.617826,1998.556043,-10265.679673
870.010437,-444.123565,1850.514855,-10035.851024
870.010757,-1702.473667,592.164754,-9806.022374
870.011077,-1628.453072,-1628.453072,-9576.193725
870.011397,-1554.432478,-2812.782580,-9193.145976
870.011717,-2072.576638,-1924.535449,-9959.241474
870.012037,-1110.308913,0.000000,-10112.460574
870.012357,370.102971,1998.556043,-10189.070123
870.012677,0.000000,2960.823768,-10418.898773
870.012997,0.000000,2368.659014,-10265.679673
870.013317,444.123565,1332.370696,-10342.289223
870.013637,1110.308913,1110.308913,-11108.384721
870.013957,592.164754,-222.061783,-10495.508323
870.014277,-2294.638420,296.082377,-10189.070123
870.014597,-4811.338623,1036.288319,-10418.898773
870.014917,-4145.153275,296.082377,-10112.460574
870.015237,-444.123565,0.000000,-9959.241474
870.015557,2146.597232,666.185348,-10572.117872
870.015877,2664.741391,888.247130,-10418.898773
870.016197,814.226536,222.061783,-9959.241474
870.016517,-1110.308913,-296.082377,-9806.022374
870.016837,0.000000,-1850.514855,-8963.317327
870.017157,296.082377,-2664.741391,-9269.755526
870.017477,1332.370696,-2220.617826,-9346.365076
870.017797,518.144159,-962.267725,-10035.851024
870.018117,296.082377,962.267725,-9193.145976
870.018437,-666.185348,1554.432478,-9806.022374
870.018757,-370.102971,0.000000,-10265.679673
870.019077,0.000000,-1628.453072,-9806.022374
870.019397,-666.185348,-2812.782580,-9499.584175
870.019717,-740.205942,-2368.659014,-10418.898773
870.020037,-814.226536,-1776.494261,-10112.460574
870.020357,518.144159,370.102971,-9959.241474
870.020677,1480.411884,444.123565,-10648.727422
870.020997,2220.617826,148.041188,-10265.679673
870.021317,2590.720797,962.267725,-10342.289223
870.021637,1998.556043,962.267725,-11568.042020
870.021957,296.082377,2220.617826,-10572.117872
870.022277,-666.185348,814.226536,-10801.946522
870.022597,-1332.370696,-1184.329507,-10572.117872
870.022917,74.020594,-2738.761985,-10035.851024
870.023237,-148.041188,-2442.679609,-10265.679673
870.023557,222.061783,-1036.288319,-10572.117872
870.023877,592.164754,592.164754,-10418.898773
870.024197,1332.370696,2442.679609,-11108.384721
870.024517,888.247130,2072.576638,-11031.775171
870.024837,-444.123565,1184.329507,-9806.022374
870.025157,2368.659014,666.185348,-10572.117872
870.025477,2738.761985,1258.350101,-10725.336972
870.025797,1628.453072,518.144159,-10648.727422
870.026117,1702.473667,296.082377,-9959.241474
870.026437,1850.514855,-888.247130,-10189.070123
870.026757,370.102971,-444.123565,-9882.631924
870.027077,1184.329507,2368.659014,-10342.289223
870.027397,1924.535449,4219.173869,-10572.117872
870.027717,1036.288319,4441.235652,-9806.022374
870.028037,222.061783,2146.597232,-9806.022374
870.028357,-222.061783,-888.247130,-8810.098227
870.028677,296.082377,-3034.844362,-9193.145976
870.028997,1110.308913,-2146.597232,-9422.974625
870.029317,3034.844362,1110.308913,-9652.803275
870.029637,4367.215058,3923.091493,-10265.679673
870.029957,2738.761985,4589.276840,-10265.679673
870.030277,1554.432478,3256.906145,-9806.022374
870.030597,1406.391290,1924.535449,-9959.241474
870.030917,2590.720797,-518.144159,-9576.193725
870.031237,2664.741391,-592.164754,-9806.022374
870.031557,-222.061783,296.082377,-10112.460574
870.031877,-1998.556043,1702.473667,-10112.460574
870.032197,-1480.411884,2664.741391,-9729.412825
870.032517,814.226536,3108.864956,-9806.022374
870.032837,2294.638420,3256.906145,-10342.289223
870.033157,3182.885551,3256.906145,-10955.165621
870.033477,3775.050304,2738.761985,-10342.289223
870.033797,3182.885551,2590.720797,-11031.775171
870.034117,1628.453072,2590.720797,-10112.460574
870.034437,296.082377,2664.741391,-10035.851024
870.034757,1850.514855,3552.988522,-10112.460574
870.035077,3775.050304,4145.153275,-10725.336972
870.035397,3404.947333,4737.318029,-11338.213370
870.035716,2220.617826,2664.741391,-10878.556072
870.036036,2664.741391,1480.411884,-10035.851024
870.036356,2146.597232,2072.576638,-9729.412825
870.036676,1998.556043,2590.720797,-9882.631924
870.036996,1850.514855,4219.173869,-10572.117872
870.037316,1480.411884,3552.988522,-10265.679673
870.037636,1850.514855,2368.659014,-9576.193725
870.037956,3330.926739,2738.761985,-9806.022374
870.038276,5329.482782,2516.700203,-9806.022374
870.038596,3849.070898,2516.700203,-10265.679673
870.038916,2072.576638,2072.576638,-9729.412825
870.039236,592.164754,1332.370696,-9346.365076
870.039556,1332.370696,1554.432478,-9116.536426
870.039876,3256.906145,1036.288319,-9576.193725
870.040196,3849.070898,962.267725,-9959.241474
870.040516,4145.153275,2220.617826,-10648.727422
870.040836,3034.844362,3627.009116,-9882.631924
870.041156,1628.453072,5329.482782,-10418.898773
870.041476,1184.329507,4885.359217,-10112.460574
870.041796,1924.535449,2960.823768,-10725.336972
870.042116,2664.741391,1110.308913,-10418.898773
870.042436,1332.370696,-592.164754,-9806.022374
870.042756,518.144159,222.061783,-9806.022374
870.043076,740.205942,2146.597232,-10265.679673
870.043396,592.164754,4219.173869,-10648.727422
870.043716,1036.288319,5403.503377,-10418.898773
870.044036,1702.473667,5329.482782,-10418.898773
870.044356,3997.112087,2886.803174,-10955.165621
870.044676,5033.400406,1998.556043,-11261.603821
870.044996,3997.112087,962.267725,-11031.775171
870.045316,2812.782580,1998.556043,-10801.946522
870.045636,1628.453072,3404.947333,-10418.898773
870.045956,2812.782580,4367.215058,-10878.556072
870.046276,1332.370696,3701.029710,-10112.460574
870.046596,666.185348,2886.803174,-10112.460574
870.046916,2590.720797,2072.576638,-10495.508323
870.047236,4737.318029,888.247130,-9806.022374
870.047556,4219.173869,148.041188,-10495.508323
870.047876,1924.535449,148.041188,-9652.803275
870.048196,2220.617826,740.205942,-9269.755526
870.048516,2886.803174,3256.906145,-9959.241474
870.048836,5107.421000,5033.400406,-10112.460574
870.049156,3627.009116,4811.338623,-10342.289223
870.049476,1036.288319,3034.844362,-10112.460574
870.049796,1332.370696,1406.391290,-9729.412825
870.050116,1554.432478,0.000000,-9499.584175
870.050436,1480.411884,0.000000,-9806.022374
870.050756,1258.350101,518.144159,-9652.803275
870.051076,1110.308913,1924.535449,-9806.022374
870.051396,2738.761985,2886.803174,-9959.241474
870.051716,4737.318029,3849.070898,-10265.679673
870.052036,5921.647536,4145.153275,-10495.508323
870.052356,5329.482782,3849.070898,-11031.775171
870.052676,2368.659014,4367.215058,-10955.165621
870.052996,370.102971,3404.947333,-9882.631924
870.053316,74.020594,2812.782580,-10265.679673
870.053636,1036.288319,1332.370696,-10648.727422
870.053956,2072.576638,148.041188,-10265.679673
870.054276,74.020594,1258.350101,-10418.898773
870.054596,-222.061783,2368.659014,-10189.070123
870.054916,148.041188,3256.906145,-9806.022374
870.055236,2220.617826,4145.153275,-10035.851024
870.055556,4663.297435,3034.844362,-10418.898773
870.055876,4441.235652,2294.638420,-10265.679673
870.056196,2738.761985,1998.556043,-10572.117872
870.056516,1036.288319,2442.679609,-9882.631924
870.056836,444.123565,3627.009116,-9269.755526
870.057156,1332.370696,3256.906145,-9959.241474
870.057476,2590.720797,1258.350101,-9652.803275
870.057796,2368.659014,296.082377,-9806.022374
870.058116,2072.576638,1110.308913,-9652.803275
870.058436,1702.473667,1924.535449,-9806.022374
870.058756,666.185348,3849.070898,-9882.631924
870.059076,148.041188,3923.091493,-9422.974625
870.059396,1998.556043,2368.659014,-9576.193725
870.059716,3923.091493,666.185348,-9652.803275
870.060036,3552.988522,-222.061783,-9729.412825
870.060356,2516.700203,1184.329507,-9959.241474
870.060676,2368.659014,3182.885551,-10112.460574
870.060996,2294.638420,4737.318029,-9882.631924
870.061316,2368.659014,3627.009116,-10189.070123
870.061636,1776.494261,1850.514855,-9729.412825
870.061956,2442.679609,222.061783,-10112.460574
870.062276,3404.947333,0.000000,-10572.117872
870.062596,3404.947333,1554.432478,-10189.070123
870.062916,4071.132681,3256.906145,-10495.508323
870.063236,3923.091493,4737.318029,-10572.117872
870.063555,3923.091493,5329.482782,-10878.556072
870.063875,2294.638420,5033.400406,-10801.946522
870.064195,-222.061783,3997.112087,-10572.117872
870.064515,0.000000,1998.556043,-10418.898773
870.064835,1776.494261,74.020594,-10035.851024
870.065155,3330.926739,-962.267725,-9806.022374
870.065475,3108.864956,0.000000,-9576.193725
870.065795,2368.659014,2220.617826,-9882.631924
870.066115,3552.988522,4737.318029,-10418.898773
870.066435,5255.462188,5995.668130,-10572.117872
870.066755,4959.379811,5403.503377,-10801.946522
870.067075,3775.050304,3478.967927,-10112.460574
870.067395,1480.411884,1406.391290,-9882.631924
870.067715,-148.041188,222.061783,-9806.022374
870.068035,-740.205942,592.164754,-9652.803275
870.068355,-518.144159,518.144159,-9116.536426
870.068675,666.185348,814.226536,-9499.584175
870.068995,1776.494261,1184.329507,-9652.803275
870.069315,2664.741391,2220.617826,-9959.241474
870.069635,3627.009116,4071.132681,-10878.556072
870.069955,4737.318029,4811.338623,-10342.289223
870.070275,5477.523971,5477.523971,-10265.679673
870.070595,4663.297435,4885.359217,-10189.070123
870.070915,2886.803174,2960.823768,-10189.070123
870.071235,1258.350101,2368.659014,-10112.460574
870.071555,592.164754,2146.597232,-10342.289223
870.071875,74.020594,2590.720797,-10112.460574
870.072195,-666.185348,2072.576638,-9806.022374
870.072515,-1554.432478,1480.411884,-10035.851024
870.072835,-1036.288319,666.185348,-9959.241474
870.073155,370.102971,518.144159,-9806.022374
870.073475,2516.700203,1776.494261,-9882.631924
870.073795,4737.318029,3108.864956,-10035.851024
870.074115,5921.647536,4589.276840,-10265.679673
870.074435,5995.668130,5403.503377,-10878.556072
870.074755,4737.318029,5921.647536,-10648.727422
870.075075,3330.926739,5033.400406,-10648.727422
870.075395,2220.617826,3997.112087,-10572.117872
870.075715,1406.391290,2368.659014,-10265.679673
870.076035,592.164754,1110.308913,-9806.022374
870.076355,0.000000,74.020594,-9576.193725
870.076675,-888.247130,148.041188,-9422.974625
870.076995,-592.164754,888.247130,-9499.584175
870.077315,1110.308913,2294.638420,-9882.631924
870.077635,3330.926739,3182.885551,-9959.241474
870.077955,5255.462188,3849.070898,-9806.022374
870.078275,5995.668130,3404.947333,-9959.241474
870.078595,5699.585753,2442.679609,-9882.631924
870.078915,2072.576638,2220.617826,-9959.241474
870.079235,-296.082377,1776.494261,-9806.022374
870.079555,-518.144159,1184.329507,-9422.974625
870.079875,0.000000,370.102971,-10035.851024
870.080195,-444.123565,-740.205942,-9806.022374
870.080515,-592.164754,-962.267725,-9959.241474
870.080835,296.082377,-814.226536,-9806.022374
870.081155,1184.329507,592.164754,-9806.022374
870.081475,2442.679609,2590.720797,-10572.117872
870.081795,3404.947333,4441.235652,-10495.508323
870.082115,4293.194464,4589.276840,-10572.117872
870.082435,4515.256246,2960.823768,-10725.336972
870.082755,3627.009116,2516.700203,-10572.117872
870.083075,2590.720797,2294.638420,-10955.165621
870.083395,1628.453072,1776.494261,-10648.727422
870.083715,888.247130,1776.494261,-10265.679673
870.084035,370.102971,1702.473667,-10418.898773
870.084355,740.205942,1406.391290,-10265.679673
870.084675,2220.617826,1554.432478,-10342.289223
870.084995,3404.947333,1998.556043,-10495.508323
870.085315,4589.276840,2368.659014,-10112.460574
870.085635,5551.544565,3404.947333,-10189.070123
870.085955,6957.935855,3997.112087,-10418.898773
870.086275,7328.038826,4589.276840,-10035.851024
870.086595,7254.018232,4959.379811,-10648.727422
870.086915,5477.523971,5255.462188,-10189.070123
870.087235,3108.864956,4811.338623,-10189.070123
870.087555,962.267725,3478.967927,-9882.631924
870.087875,0.000000,1702.473667,-9499.584175
870.088195,0.000000,370.102971,-9039.926876
870.088515,740.205942,-888.247130,-9193.145976
870.088835,1332.370696,0.000000,-9193.145976
870.089154,3034.844362,1702.473667,-9499.584175
870.089474,4737.318029,4811.338623,-9806.022374
870.089794,5847.626942,6513.812290,-9882.631924
870.090114,6291.750507,7105.977043,-10342.289223
870.090434,5847.626942,6957.935855,-10418.898773
870.090754,4441.235652,5329.482782,-10418.898773
870.091074,3478.967927,3997.112087,-10189.070123
870.091394,2368.659014,2960.823768,-10189.070123
870.091714,592.164754,2738.761985,-10342.289223
870.092034,-2442.679609,3182.885551,-9959.241474
870.092354,-4219.173869,3775.050304,-9652.803275
870.092674,-2516.700203,3182.885551,-9959.241474
870.092994,296.082377,2664.741391,-10342.289223
870.093314,2146.597232,2442.679609,-10342.289223
870.093634,2442.679609,2590.720797,-10572.117872
870.093954,3034.844362,4219.173869,-10189.070123
870.094274,3997.112087,5403.503377,-10035.851024
870.094594,5033.400406,6291.750507,-10342.289223
870.094914,5255.462188,6069.688724,-10495.508323
870.095234,2960.823768,4959.379811,-11261.603821
870.095554,-296.082377,3330.926739,-9959.241474
870.095874,-2590.720797,1998.556043,-9806.022374
870.096194,-2442.679609,814.226536,-9729.412825
870.096514,-1110.308913,0.000000,-9652.803275
870.096834,-888.247130,-222.061783,-9193.145976
870.097154,74.020594,222.061783,-9193.145976
870.097474,2960.823768,1776.494261,-9576.193725
870.097794,5699.585753,3997.112087,-10265.679673
870.098114,6439.791695,5995.668130,-10572.117872
870.098434,5847.626942,6735.874072,-10265.679673
870.098754,4737.318029,5625.565159,-10342.289223
870.099074,3775.050304,3478.967927,-10418.898773
870.099394,2220.617826,740.205942,-9882.631924
870.099714,518.144159,-962.267725,-9882.631924
870.100034,222.061783,-1406.391290,-9882.631924
870.100354,74.020594,-518.144159,-9806.022374
870.100673,-592.164754,1332.370696,-9959.241474
870.100993,444.123565,2664.741391,-10035.851024
870.101313,3182.885551,3034.844362,-9882.631924
870.101633,5477.523971,2516.700203,-10418.898773
870.101953,7476.080014,1776.494261,-10495.508323
870.102273,8512.368333,2664.741391,-10725.336972
870.102593,7105.977043,3997.112087,-11031.775171
870.102913,5033.400406,5255.462188,-10725.336972
870.103233,2368.659014,5181.441594,-10878.556072
870.103553,444.123565,3182.885551,-10801.946522
870.103873,518.144159,0.000000,-9959.241474
870.104193,444.123565,-2442.679609,-10648.727422
870.104513,0.000000,-3034.844362,-9882.631924
870.104833,-888.247130,-1554.432478,-9269.755526
870.105153,148.041188,962.267725,-9882.631924
870.105473,2812.782580,2516.700203,-9806.022374
870.105793,5329.482782,3552.988522,-10035.851024
870.106113,6661.853478,3849.070898,-10572.117872
870.106433,6439.791695,3478.967927,-10495.508323
870.106753,4959.379811,3330.926739,-10265.679673
870.107073,3330.926739,2812.782580,-10418.898773
870.107393,2072.576638,2146.597232,-9806.022374
870.107713,0.000000,814.226536,-9806.022374
870.108033,-1998.556043,-1036.288319,-9576.193725
870.108353,-4145.153275,-1110.308913,-9346.365076
870.108673,-4515.256246,-962.267725,-9269.755526
870.108993,-1258.350101,-592.164754,-9346.365076
870.109313,2886.803174,0.000000,-9346.365076
870.109633,3849.070898,1258.350101,-10342.289223
870.109953,3108.864956,2886.803174,-10189.070123
870.110273,2812.782580,4885.359217,-9959.241474
870.110593,5255.462188,5921.647536,-10801.946522
870.110913,6809.894666,5921.647536,-10342.289223
870.111233,5181.441594,4145.153275,-10878.556072
870.111553,814.226536,1998.556043,-10189.070123
870.111872,-2072.576638,-518.144159,-9499.584175
870.112192,-2664.741391,-962.267725,-9806.022374
870.112512,-1776.494261,-444.123565,-9806.022374
870.112832,-1702.473667,1258.350101,-9806.022374
870.113152,-444.123565,2442.679609,-10418.898773
870.113472,2960.823768,2960.823768,-9882.631924
870.113792,6143.709319,4885.359217,-10572.117872
870.114112,6069.688724,5625.565159,-10725.336972
870.114432,4885.359217,7105.977043,-10342.289223
870.114752,4959.379811,7105.977043,-10495.508323
870.115072,6587.832884,4737.318029,-10648.727422
870.115392,5625.565159,3552.988522,-10418.898773
870.115712,2368.659014,2886.803174,-10189.070123
870.116032,-296.082377,2664.741391,-10189.070123
870.116352,-296.082377,3330.926739,-9806.022374
870.116672,0.000000,2886.803174,-10265.679673
870.116992,-222.061783,2442.679609,-9269.755526
870.117312,1702.473667,1628.453072,-9652.803275
870.117632,5551.544565,1332.370696,-9806.022374
870.117952,7698.141797,3256.906145,-9959.241474
870.118272,6513.812290,5625.565159,-10035.851024
870.118592,5847.626942,7920.203579,-10418.898773
870.118912,6439.791695,9252.574275,-10648.727422
870.119232,6735.874072,7920.203579,-10572.117872
870.119552,1554.432478,5255.462188,-9422.974625
870.119872,-370.102971,1998.556043,-9346.365076
870.120192,444.123565,0.000000,-9959.241474
870.120512,888.247130,-2220.617826,-9039.926876
870.120832,-2294.638420,-1850.514855,-8810.098227
870.121152,-2516.700203,-1036.288319,-9193.145976
870.121472,74.020594,1332.370696,-9346.365076
870.121792,2516.700203,4589.276840,-10265.679673
870.122112,3923.091493,6143.709319,-10112.460574
870.122432,5181.441594,6143.709319,-10265.679673
870.122752,6957.935855,4441.235652,-10189.070123
870.123072,7031.956449,3034.844362,-9882.631924
870.123391,4441.235652,1702.473667,-10648.727422
870.123711,-148.041188,1036.288319,-9806.022374
870.124031,-1850.514855,814.226536,-9882.631924
870.124351,-1924.535449,1776.494261,-9959.241474
870.124671,-2664.741391,2960.823768,-10265.679673
