#time,accel_x,accel_y,accel_z
947.205811,370.102971,888.247130,-9959.241474
947.206131,0.000000,370.102971,-9882.631924
947.206451,148.041188,74.020594,-9882.631924
947.206771,518.144159,0.000000,-9882.631924
947.207091,370.102971,74.020594,-10112.460574
947.207410,666.185348,222.061783,-10035.851024
947.207730,518.144159,444.123565,-10112.460574
947.208050,740.205942,740.205942,-9959.241474
947.208370,962.267725,814.226536,-9422.974625
947.208690,814.226536,222.061783,-9806.022374
947.209010,518.144159,-444.123565,-9959.241474
947.209329,370.102971,-444.123565,-9882.631924
947.209649,592.164754,0.000000,-10189.070123
947.209969,148.041188,444.123565,-9806.022374
947.210289,296.082377,592.164754,-10112.460574
947.210609,222.061783,740.205942,-9806.022374
947.210929,518.144159,222.061783,-9959.241474
947.211248,888.247130,888.247130,-10035.851024
947.211568,592.164754,0.000000,-10112.460574
947.211888,592.164754,0.000000,-10189.070123
947.212208,518.144159,296.082377,-9959.241474
947.212528,296.082377,962.267725,-11031.775171
947.212848,296.082377,888.247130,-10265.679673
947.213167,444.123565,666.185348,-10112.460574
947.213487,444.123565,0.000000,-10265.679673
947.213807,666.185348,-296.082377,-10189.070123
947.214127,666.185348,518.144159,-9652.803275
947.214447,370.102971,370.102971,-9959.241474
947.214766,370.102971,888.247130,-9959.241474
947.215086,370.102971,888.247130,-10112.460574
947.215406,592.164754,814.226536,-10035.851024
947.215726,888.247130,222.061783,-9882.631924
947.216046,1036.288319,-148.041188,-10189.070123
947.216366,814.226536,-148.041188,-9882.631924
947.216685,0.000000,-222.061783,-10265.679673
947.217005,74.020594,0.000000,-8963.317327
947.217325,444.123565,296.082377,-9882.631924
947.217645,740.205942,222.061783,-10265.679673
947.217965,0.000000,296.082377,-9882.631924
947.218285,0.000000,296.082377,-9882.631924
947.218604,888.247130,74.020594,-9882.631924
947.218924,1480.411884,0.000000,-10035.851024
947.219244,370.102971,370.102971,-10035.851024
947.219564,-148.041188,-148.041188,-9959.241474
947.219884,0.000000,-148.041188,-9806.022374
947.220204,666.185348,0.000000,-9882.631924
947.220523,74.020594,-222.061783,-10418.898773
947.220843,-444.123565,-814.226536,-10035.851024
947.221163,-518.144159,-370.102971,-9959.241474
947.221483,0.000000,-370.102971,-9882.631924
947.221803,-222.061783,-74.020594,-10035.851024
947.222123,-814.226536,0.000000,-10265.679673
947.222442,-592.164754,-296.082377,-10035.851024
947.222762,0.000000,-518.144159,-10112.460574
947.223082,-444.123565,-888.247130,-10035.851024
947.223402,-1258.350101,-1406.391290,-9882.631924
947.223722,-962.267725,-1554.432478,-9806.022374
947.224042,-296.082377,-1406.391290,-9959.241474
947.224361,-1184.329507,-1184.329507,-9576.193725
947.224681,-1850.514855,-1776.494261,-9806.022374
947.225001,-2146.597232,-2146.597232,-9959.241474
947.225321,-814.226536,-2146.597232,-9729.412825
947.225641,-666.185348,-1628.453072,-9652.803275
947.225961,-1332.370696,-1480.411884,-9959.241474
947.226280,-1628.453072,-1924.535449,-10112.460574
947.226600,-740.205942,-1924.535449,-9806.022374
947.226920,0.000000,-1332.370696,-10112.460574
947.227240,-740.205942,-1776.494261,-9959.241474
947.227560,-2368.659014,-2590.720797,-10112.460574
947.227879,-2516.700203,-3256.906145,-9576.193725
947.228199,-2368.659014,-3775.050304,-9959.241474
947.228519,-1702.473667,-3108.864956,-9882.631924
947.228839,-2294.638420,-2738.761985,-10265.679673
947.229159,-2590.720797,-2590.720797,-9959.241474
947.229479,-1924.535449,-2294.638420,-9882.631924
947.229798,-370.102971,-1776.494261,-10495.508323
947.230118,962.267725,-1184.329507,-10572.117872
947.230438,296.082377,-962.267725,-10725.336972
947.230758,-1184.329507,-1258.350101,-10572.117872
947.231078,-2368.659014,-2368.659014,-10265.679673
947.231398,-3404.947333,-3330.926739,-10035.851024
947.231717,-4737.318029,-3775.050304,-9882.631924
947.232037,-5329.482782,-4589.276840,-9652.803275
947.232357,-4071.132681,-5255.462188,-9652.803275
947.232677,-1332.370696,-4737.318029,-9346.365076
947.232997,370.102971,-3478.967927,-10265.679673
947.233317,592.164754,-1850.514855,-10342.289223
947.233636,888.247130,444.123565,-10189.070123
947.233956,2072.576638,1480.411884,-10265.679673
947.234276,2590.720797,962.267725,-10418.898773
947.234596,1110.308913,0.000000,-10725.336972
947.234916,-592.164754,-2072.576638,-9959.241474
947.235236,-2664.741391,-3330.926739,-10035.851024
947.235555,-3923.091493,-3849.070898,-9729.412825
947.235875,-5403.503377,-4145.153275,-9499.584175
947.236195,-5329.482782,-4515.256246,-9346.365076
947.236515,-3478.967927,-4737.318029,-9652.803275
947.236835,-1036.288319,-3849.070898,-9806.022374
947.237155,1480.411884,-2294.638420,-10342.289223
947.237474,2516.700203,666.185348,-10342.289223
947.237794,3775.050304,3034.844362,-10495.508323
947.238114,4293.194464,4441.235652,-11338.213370
947.238434,2146.597232,3182.885551,-11031.775171
947.238754,-1554.432478,888.247130,-10725.336972
947.239074,-4959.379811,-2368.659014,-9652.803275
947.239393,-6291.750507,-4885.359217,-9652.803275
947.239713,-5329.482782,-6439.791695,-9116.536426
947.240033,-4589.276840,-6513.812290,-9422.974625
947.240353,-3627.009116,-5403.503377,-8886.707777
947.240673,-1998.556043,-2738.761985,-9346.365076
947.240992,740.205942,666.185348,-9882.631924
947.241312,2442.679609,3182.885551,-10189.070123
947.241632,2590.720797,3923.091493,-10648.727422
947.241952,2738.761985,2442.679609,-10265.679673
947.242272,2738.761985,592.164754,-10112.460574
947.242592,814.226536,-1036.288319,-9806.022374
947.242911,-2516.700203,-2072.576638,-9882.631924
947.243231,-4737.318029,-2516.700203,-9652.803275
947.243551,-5921.647536,-2812.782580,-9882.631924
947.243871,-7105.977043,-3034.844362,-9806.022374
947.244191,-7254.018232,-5181.441594,-9116.536426
947.244511,-5329.482782,-5699.585753,-9116.536426
947.244830,-592.164754,-4367.215058,-9806.022374
947.245150,3182.885551,-1184.329507,-10342.289223
947.245470,3701.029710,2368.659014,-10878.556072
947.245790,1850.514855,4589.276840,-10801.946522
947.246110,1184.329507,5477.523971,-10878.556072
947.246430,1554.432478,3330.926739,-10955.165621
947.246749,1628.453072,-518.144159,-10801.946522
947.247069,-1110.308913,-3775.050304,-10572.117872
947.247389,-4737.318029,-6069.688724,-10112.460574
947.247709,-7402.059420,-5995.668130,-9652.803275
947.248029,-8734.430116,-4811.338623,-9193.145976
947.248349,-7254.018232,-3256.906145,-9116.536426
947.248668,-3627.009116,-3108.864956,-9499.584175
947.248988,888.247130,-3849.070898,-10035.851024
947.249308,3701.029710,-3775.050304,-10418.898773
947.249628,3701.029710,-2220.617826,-9959.241474
947.249948,4071.132681,296.082377,-10342.289223
947.250268,4367.215058,3182.885551,-10725.336972
947.250587,3330.926739,3552.988522,-10955.165621
947.250907,-148.041188,1628.453072,-10801.946522
947.251227,-3849.070898,-1850.514855,-10112.460574
947.251547,-6587.832884,-5773.606348,-9576.193725
947.251867,-7179.997637,-8660.409521,-9193.145976
947.252187,-6291.750507,-9252.574275,-8963.317327
947.252506,-4589.276840,-9326.594869,-9116.536426
947.252826,-3701.029710,-6513.812290,-8963.317327
947.253146,-1480.411884,-2738.761985,-9422.974625
947.253466,1406.391290,370.102971,-10112.460574
947.253786,5255.462188,2960.823768,-10878.556072
947.254105,5773.606348,3478.967927,-11261.603821
947.254425,2368.659014,2368.659014,-10955.165621
947.254745,-1036.288319,-148.041188,-10418.898773
947.255065,-3701.029710,-2738.761985,-10342.289223
947.255385,-4145.153275,-5033.400406,-9959.241474
947.255705,-5403.503377,-5921.647536,-9959.241474
947.256024,-8068.244768,-6291.750507,-9806.022374
947.256344,-7476.080014,-6439.791695,-9193.145976
947.256664,-4071.132681,-5181.441594,-10418.898773
947.256984,-814.226536,-3256.906145,-10342.289223
947.257304,-814.226536,-1332.370696,-10801.946522
947.257624,-1184.329507,222.061783,-10265.679673
947.257943,740.205942,1110.308913,-10265.679673
947.258263,3330.926739,1998.556043,-10572.117872
947.258583,3997.112087,1332.370696,-10878.556072
947.258903,1924.535449,-222.061783,-11261.603821
947.259223,-1554.432478,-2590.720797,-10189.070123
947.259543,-3997.112087,-3997.112087,-10418.898773
947.259862,-5995.668130,-4441.235652,-9652.803275
947.260182,-7402.059420,-4885.359217,-9346.365076
947.260502,-5329.482782,-4071.132681,-9269.755526
947.260822,-3552.988522,-2960.823768,-9499.584175
947.261142,-666.185348,-2516.700203,-9269.755526
947.261462,518.144159,-1924.535449,-9652.803275
947.261781,2664.741391,-1036.288319,-10112.460574
947.262101,3775.050304,740.205942,-10495.508323
947.262421,1332.370696,2516.700203,-10342.289223
947.262741,370.102971,1924.535449,-9806.022374
947.263061,1036.288319,592.164754,-10648.727422
947.263381,1332.370696,-740.205942,-9959.241474
947.263700,-1480.411884,-3034.844362,-10189.070123
947.264020,-3478.967927,-4219.173869,-9422.974625
947.264340,-4293.194464,-4367.215058,-9806.022374
947.264660,-4737.318029,-3849.070898,-9806.022374
947.264980,-4589.276840,-3108.864956,-9346.365076
947.265299,-2590.720797,-2516.700203,-9193.145976
947.265619,370.102971,-2294.638420,-9806.022374
947.265939,2368.659014,-1036.288319,-10648.727422
947.266259,3182.885551,814.226536,-10725.336972
947.266579,2886.803174,2590.720797,-12027.699319
947.266899,1110.308913,3478.967927,-10725.336972
947.267276,740.205942,2294.638420,-10878.556072
947.267596,-518.144159,-592.164754,-10648.727422
947.267916,-2368.659014,-2738.761985,-9882.631924
947.268236,-4663.297435,-3552.988522,-10495.508323
947.268555,-5107.421000,-4663.297435,-9652.803275
947.268875,-3849.070898,-3108.864956,-9806.022374
947.269195,-3997.112087,-1628.453072,-10035.851024
947.269515,-3330.926739,-1924.535449,-9346.365076
947.269835,-296.082377,-2220.617826,-10035.851024
947.270155,1258.350101,-1850.514855,-10035.851024
947.270475,1702.473667,-814.226536,-10572.117872
947.270795,1998.556043,74.020594,-10648.727422
947.271115,1702.473667,-296.082377,-9652.803275
947.271435,666.185348,-444.123565,-9806.022374
947.271755,0.000000,-1406.391290,-9652.803275
947.272075,-1628.453072,-1036.288319,-10342.289223
947.272395,-3923.091493,-4145.153275,-9806.022374
947.272715,-5699.585753,-6291.750507,-9346.365076
947.273035,-5625.565159,-6513.812290,-8810.098227
947.273355,-5403.503377,-5551.544565,-8656.879127
947.273675,-2590.720797,-3775.050304,-9193.145976
947.273994,-148.041188,-1036.288319,-10035.851024
947.274314,888.247130,222.061783,-10495.508323
947.274634,0.000000,1480.411884,-10495.508323
947.274954,148.041188,888.247130,-10725.336972
947.275274,296.082377,-1184.329507,-10955.165621
947.275594,814.226536,-2294.638420,-10035.851024
947.275914,-962.267725,-3849.070898,-10725.336972
947.276234,-4663.297435,-2664.741391,-10342.289223
947.276554,-7105.977043,-2664.741391,-10801.946522
947.276874,-7031.956449,-3552.988522,-9422.974625
947.277194,-3701.029710,-4441.235652,-10189.070123
947.277514,-1184.329507,-3849.070898,-10189.070123
947.277834,-1554.432478,-3256.906145,-10801.946522
947.278154,-1480.411884,-2738.761985,-10572.117872
947.278474,-444.123565,-1702.473667,-10112.460574
947.278794,1406.391290,0.000000,-10418.898773
947.279114,2590.720797,-888.247130,-10495.508323
947.279433,2442.679609,-1776.494261,-10878.556072
947.279753,-296.082377,-3182.885551,-9959.241474
947.280073,-3034.844362,-2146.597232,-10572.117872
947.280393,-3478.967927,-148.041188,-9959.241474
947.280713,-3034.844362,-666.185348,-10035.851024
947.281033,-2220.617826,-2072.576638,-10418.898773
947.281353,-4515.256246,-4441.235652,-9729.412825
947.281673,-4367.215058,-5403.503377,-9806.022374
947.281993,-2368.659014,-3256.906145,-9116.536426
947.282313,814.226536,-1406.391290,-10189.070123
947.282633,3256.906145,-370.102971,-10801.946522
947.282953,1258.350101,-370.102971,-10035.851024
947.283273,1036.288319,-444.123565,-10035.851024
947.283593,666.185348,-740.205942,-10265.679673
947.283913,-222.061783,1406.391290,-10189.070123
947.284233,-962.267725,-148.041188,-10418.898773
947.284553,-1332.370696,-1036.288319,-10035.851024
947.284872,-1110.308913,-3404.947333,-9806.022374
947.285192,-2072.576638,-4441.235652,-9806.022374
947.285512,-2368.659014,-3775.050304,-10035.851024
947.285832,-1406.391290,-1110.308913,-10801.946522
947.286152,-1332.370696,296.082377,-9806.022374
947.286472,-1110.308913,740.205942,-10572.117872
947.286792,666.185348,370.102971,-9806.022374
947.287112,740.205942,-814.226536,-10035.851024
947.287432,2590.720797,148.041188,-10725.336972
947.287752,4663.297435,-518.144159,-10342.289223
947.288072,2590.720797,-1702.473667,-10035.851024
947.288392,1332.370696,-1628.453072,-10035.851024
947.288712,962.267725,-592.164754,-9729.412825
947.289032,0.000000,1110.308913,-10572.117872
947.289352,-3034.844362,1702.473667,-10265.679673
947.289672,-2664.741391,222.061783,-9806.022374
947.289991,2072.576638,-2886.803174,-9346.365076
947.290311,5107.421000,-1998.556043,-9576.193725
947.290631,888.247130,222.061783,-9959.241474
947.290951,-3330.926739,0.000000,-9806.022374
947.291271,-3404.947333,2146.597232,-9422.974625
947.291591,518.144159,1110.308913,-9806.022374
947.291911,4219.173869,-296.082377,-10495.508323
947.292231,3256.906145,74.020594,-9882.631924
947.292551,444.123565,-148.041188,-9959.241474
947.292871,0.000000,1184.329507,-9729.412825
947.293191,1628.453072,4293.194464,-10112.460574
947.293511,3182.885551,3701.029710,-11338.213370
947.293831,-666.185348,888.247130,-9806.022374
947.294151,-3923.091493,-2738.761985,-10265.679673
947.294471,-6217.729913,-4367.215058,-9422.974625
947.294791,-1850.514855,-2590.720797,-10112.460574
947.295111,1628.453072,1406.391290,-10265.679673
947.295430,1628.453072,5181.441594,-10342.289223
947.295750,2294.638420,3478.967927,-11031.775171
947.296070,3108.864956,666.185348,-10648.727422
947.296390,2664.741391,1258.350101,-10265.679673
947.296710,814.226536,2516.700203,-12104.308868
947.297030,-666.185348,3182.885551,-10495.508323
947.297350,-1332.370696,1184.329507,-10265.679673
947.297670,148.041188,-2072.576638,-9652.803275
947.297990,814.226536,-2368.659014,-9346.365076
947.298310,-1406.391290,1036.288319,-10495.508323
947.298630,-370.102971,2516.700203,-9806.022374
947.298950,1554.432478,1702.473667,-9499.584175
947.299270,4219.173869,1332.370696,-10265.679673
947.299590,3330.926739,592.164754,-9193.145976
947.299910,1628.453072,888.247130,-10955.165621
947.300230,888.247130,1406.391290,-9193.145976
947.300550,444.123565,148.041188,-9959.241474
947.300869,2442.679609,2146.597232,-9806.022374
947.301189,3404.947333,0.000000,-9499.584175
947.301509,2294.638420,-814.226536,-9959.241474
947.301829,-888.247130,-1184.329507,-9422.974625
947.302149,666.185348,-1036.288319,-9729.412825
947.302469,1924.535449,1702.473667,-10265.679673
947.302789,0.000000,740.205942,-9806.022374
947.303109,-962.267725,74.020594,-9882.631924
947.303429,1332.370696,-1702.473667,-9576.193725
947.303749,3923.091493,0.000000,-10878.556072
947.304069,2368.659014,962.267725,-11031.775171
947.304389,-518.144159,1480.411884,-10725.336972
947.304709,-1184.329507,370.102971,-10648.727422
947.305029,-1332.370696,-2146.597232,-9882.631924
947.305349,666.185348,-2294.638420,-9806.022374
947.305669,-888.247130,-2146.597232,-10801.946522
947.305989,-1924.535449,-518.144159,-10495.508323
947.306308,-2368.659014,1850.514855,-10495.508323
947.306628,1036.288319,1628.453072,-11184.994271
947.306948,2072.576638,1036.288319,-10495.508323
947.307268,370.102971,-1110.308913,-10955.165621
947.307588,-1332.370696,-2368.659014,-9882.631924
947.307908,-2590.720797,-2738.761985,-9652.803275
947.308228,-1628.453072,-1702.473667,-9806.022374
947.308548,-1110.308913,1850.514855,-10265.679673
947.308868,-2738.761985,2146.597232,-9806.022374
947.309188,-1036.288319,0.000000,-9882.631924
947.309508,1406.391290,-1998.556043,-9882.631924
947.309828,1776.494261,-4811.338623,-9729.412825
947.310148,-2442.679609,-2738.761985,-9729.412825
947.310468,-3552.988522,-1110.308913,-9269.755526
947.310788,-1332.370696,444.123565,-9346.365076
947.311108,3552.988522,592.164754,-10342.289223
947.311427,3552.988522,296.082377,-9806.022374
947.311747,370.102971,740.205942,-10572.117872
947.312067,1406.391290,1184.329507,-10725.336972
947.312387,2220.617826,962.267725,-10648.727422
947.312707,2146.597232,-370.102971,-10495.508323
947.313027,-740.205942,-1998.556043,-9652.803275
947.313347,-3701.029710,-2442.679609,-9652.803275
947.313667,-2516.700203,-1110.308913,-10112.460574
947.313987,1110.308913,666.185348,-10572.117872
947.314307,3034.844362,1184.329507,-10342.289223
947.314627,1998.556043,148.041188,-10572.117872
947.314947,2664.741391,-1110.308913,-10035.851024
947.315267,2738.761985,-222.061783,-10342.289223
947.315587,2368.659014,888.247130,-11261.603821
947.315907,2368.659014,2812.782580,-10189.070123
947.316227,1776.494261,1924.535449,-10495.508323
947.316547,1480.411884,962.267725,-10189.070123
947.316866,1628.453072,296.082377,-10112.460574
947.317186,592.164754,-1332.370696,-10342.289223
947.317506,666.185348,148.041188,-10189.070123
947.317826,1776.494261,1406.391290,-9729.412825
947.318146,2886.803174,1036.288319,-9116.536426
947.318466,2812.782580,222.061783,-9499.584175
947.318786,2220.617826,0.000000,-9806.022374
947.319106,666.185348,-814.226536,-10035.851024
947.319426,1776.494261,-518.144159,-9576.193725
947.319746,3552.988522,-370.102971,-10342.289223
947.320066,3627.009116,148.041188,-9806.022374
947.320386,0.000000,3182.885551,-9652.803275
947.320706,-3775.050304,2738.761985,-9959.241474
947.321026,-2294.638420,2590.720797,-9806.022374
947.321346,666.185348,444.123565,-9806.022374
947.321666,1850.514855,74.020594,-10572.117872
947.321986,-740.205942,-1332.370696,-9346.365076
947.322305,-1406.391290,-1628.453072,-9806.022374
947.322625,-2590.720797,-740.205942,-9652.803275
947.322945,-370.102971,296.082377,-9882.631924
947.323265,962.267725,2516.700203,-10648.727422
947.323585,0.000000,3849.070898,-11031.775171
947.323905,-888.247130,5477.523971,-9806.022374
947.324225,-296.082377,3701.029710,-11338.213370
947.324545,0.000000,2812.782580,-10189.070123
947.324865,-740.205942,-222.061783,-10418.898773
947.325185,-222.061783,-740.205942,-9959.241474
947.325505,-1480.411884,-1110.308913,-9729.412825
947.325825,-148.041188,370.102971,-10035.851024
947.326145,740.205942,1628.453072,-10265.679673
947.326465,296.082377,1924.535449,-10418.898773
947.326785,0.000000,1554.432478,-9806.022374
947.327105,0.000000,0.000000,-9806.022374
947.327425,518.144159,148.041188,-9499.584175
947.327744,370.102971,0.000000,-10112.460574
947.328064,-370.102971,-592.164754,-8273.831378
947.328384,740.205942,444.123565,-9039.926876
947.328704,814.226536,0.000000,-9652.803275
947.329024,1258.350101,0.000000,-9806.022374
947.329344,-222.061783,962.267725,-9499.584175
947.329664,-1480.411884,2146.597232,-9652.803275
947.329984,0.000000,740.205942,-9652.803275
947.330304,3849.070898,-888.247130,-9729.412825
947.330624,3627.009116,-2590.720797,-9576.193725
947.330944,1110.308913,-1258.350101,-10878.556072
947.331264,74.020594,-370.102971,-9882.631924
947.331584,1480.411884,-148.041188,-10265.679673
947.331904,3849.070898,1850.514855,-9806.022374
947.332224,2442.679609,2442.679609,-10648.727422
947.332544,3701.029710,2368.659014,-11031.775171
947.332863,370.102971,0.000000,-10418.898773
947.333183,-1776.494261,-1850.514855,-10495.508323
947.333503,2738.761985,-1184.329507,-10265.679673
947.333823,4589.276840,-1628.453072,-11414.822920
947.334143,3552.988522,-888.247130,-10572.117872
947.334463,-1480.411884,-592.164754,-10418.898773
947.334783,-1850.514855,-296.082377,-10495.508323
947.335103,2664.741391,1036.288319,-10955.165621
947.335423,4219.173869,2590.720797,-11414.822920
947.335743,1110.308913,2590.720797,-10725.336972
947.336063,-1110.308913,666.185348,-11184.994271
947.336383,666.185348,0.000000,-10495.508323
947.336703,1924.535449,2664.741391,-9346.365076
947.337023,888.247130,2442.679609,-10112.460574
947.337343,-444.123565,1628.453072,-9269.755526
947.337663,-222.061783,-1406.391290,-9652.803275
947.337983,1258.350101,-4515.256246,-9039.926876
947.338302,1480.411884,-4885.359217,-8427.050478
947.338622,444.123565,-4145.153275,-9193.145976
947.338942,518.144159,-2738.761985,-8733.488677
947.339262,-592.164754,1184.329507,-9652.803275
947.339582,-2738.761985,2664.741391,-11108.384721
947.339902,-4811.338623,3552.988522,-9652.803275
947.340222,-4293.194464,518.144159,-9806.022374
947.340542,-1702.473667,-1702.473667,-9116.536426
947.340862,0.000000,-2516.700203,-10112.460574
947.341182,888.247130,-1554.432478,-10418.898773
947.341502,74.020594,-1554.432478,-10265.679673
947.341822,-962.267725,666.185348,-9806.022374
947.342142,-962.267725,2072.576638,-9959.241474
947.342462,1776.494261,2664.741391,-10418.898773
947.342782,2072.576638,3849.070898,-10112.460574
947.343102,592.164754,3182.885551,-11031.775171
947.343422,0.000000,2442.679609,-10572.117872
947.343741,-888.247130,-222.061783,-10035.851024
947.344061,-1332.370696,-1036.288319,-10418.898773
947.344381,-3701.029710,-1776.494261,-9806.022374
947.344701,-3330.926739,0.000000,-9729.412825
947.345021,-2294.638420,1628.453072,-10035.851024
947.345341,-222.061783,3034.844362,-10955.165621
947.345661,2886.803174,3849.070898,-10648.727422
947.345981,3627.009116,2886.803174,-10495.508323
947.346301,4885.359217,222.061783,-9729.412825
947.346621,4959.379811,-962.267725,-10035.851024
947.346941,4219.173869,0.000000,-10189.070123
947.347261,1036.288319,-148.041188,-10725.336972
947.347581,814.226536,1850.514855,-9652.803275
947.347901,-592.164754,1924.535449,-9499.584175
947.348221,370.102971,-296.082377,-10495.508323
947.348541,1554.432478,-370.102971,-9882.631924
947.348861,222.061783,-1554.432478,-9576.193725
947.349180,0.000000,-370.102971,-9193.145976
947.349500,1554.432478,-1628.453072,-9806.022374
947.349820,2664.741391,-296.082377,-9806.022374
947.350140,1998.556043,0.000000,-10801.946522
947.350460,74.020594,666.185348,-10265.679673
947.350780,-1554.432478,1258.350101,-9499.584175
947.351100,-518.144159,2812.782580,-9959.241474
947.351420,1628.453072,2220.617826,-9882.631924
947.351740,2294.638420,2664.741391,-10955.165621
947.352060,1776.494261,2516.700203,-10572.117872
947.352380,2442.679609,-814.226536,-9806.022374
947.352700,3849.070898,-2960.823768,-10342.289223
947.353020,2812.782580,-2738.761985,-9729.412825
947.353340,74.020594,-962.267725,-10035.851024
947.353660,-1998.556043,2146.597232,-10112.460574
947.353980,-1702.473667,4145.153275,-10342.289223
947.354300,-592.164754,5107.421000,-10801.946522
947.354619,74.020594,2590.720797,-10955.165621
947.354939,1110.308913,-148.041188,-10112.460574
947.355259,1184.329507,-2738.761985,-9269.755526
947.355579,-148.041188,-2738.761985,-9499.584175
947.355899,-1406.391290,-2072.576638,-9422.974625
947.356219,-296.082377,-666.185348,-10572.117872
947.356539,-444.123565,592.164754,-9116.536426
947.356859,-2368.659014,2516.700203,-10035.851024
947.357179,2442.679609,3701.029710,-9882.631924
947.357499,4071.132681,1924.535449,-10265.679673
947.357819,3997.112087,1110.308913,-11031.775171
947.358139,2368.659014,-296.082377,-9346.365076
947.358459,0.000000,-1776.494261,-9806.022374
947.358779,888.247130,0.000000,-9729.412825
947.359099,518.144159,222.061783,-10112.460574
947.359419,0.000000,1036.288319,-8733.488677
947.359738,-2368.659014,222.061783,-9269.755526
947.360058,-1036.288319,-962.267725,-9806.022374
947.360378,1184.329507,-666.185348,-9806.022374
947.360698,814.226536,-740.205942,-9806.022374
947.361018,518.144159,74.020594,-9729.412825
947.361338,222.061783,1110.308913,-10112.460574
947.361658,1702.473667,444.123565,-9729.412825
947.361978,1184.329507,-222.061783,-9499.584175
947.362298,2220.617826,370.102971,-10955.165621
947.362618,3256.906145,1554.432478,-10189.070123
947.362938,3034.844362,1850.514855,-11031.775171
947.363258,1332.370696,518.144159,-9959.241474
947.363578,-1406.391290,148.041188,-10342.289223
947.363898,-1702.473667,592.164754,-11031.775171
947.364218,-296.082377,-444.123565,-9576.193725
947.364538,1628.453072,-1258.350101,-10495.508323
947.364858,1258.350101,-370.102971,-10648.727422
947.365177,888.247130,-1406.391290,-9959.241474
947.365497,-296.082377,1332.370696,-10495.508323
947.365817,-962.267725,2072.576638,-10725.336972
947.366137,814.226536,4885.359217,-11108.384721
947.366457,1036.288319,4367.215058,-12487.356617
947.366777,2146.597232,888.247130,-10878.556072
947.367097,-222.061783,0.000000,-10495.508323
947.367417,-4071.132681,-222.061783,-10265.679673
947.367737,-5181.441594,2294.638420,-10265.679673
947.368057,-2516.700203,3627.009116,-11797.870669
947.368377,74.020594,2960.823768,-9652.803275
947.368697,222.061783,-814.226536,-9806.022374
947.369017,962.267725,-3256.906145,-8886.707777
947.369337,0.000000,-5329.482782,-8733.488677
947.369657,1554.432478,-2368.659014,-9422.974625
947.369976,1258.350101,0.000000,-9346.365076
947.370296,2072.576638,1998.556043,-9422.974625
947.370616,888.247130,2368.659014,-9652.803275
947.370936,-592.164754,888.247130,-9039.926876
947.371256,-4293.194464,296.082377,-9729.412825
947.371576,-888.247130,-148.041188,-8427.050478
947.371896,3256.906145,-296.082377,-9346.365076
947.372216,3478.967927,-1406.391290,-9422.974625
947.372536,296.082377,-1258.350101,-9729.412825
947.372855,0.000000,-1850.514855,-9652.803275
947.373175,222.061783,666.185348,-9039.926876
947.373495,2072.576638,2146.597232,-10725.336972
947.373815,3256.906145,3701.029710,-10572.117872
947.374135,2368.659014,4441.235652,-11031.775171
947.374455,592.164754,2886.803174,-10878.556072
947.374775,1184.329507,2886.803174,-9499.584175
947.375095,740.205942,888.247130,-10112.460574
947.375415,518.144159,-1850.514855,-10265.679673
947.375734,1036.288319,-2960.823768,-10878.556072
947.376054,2146.597232,-2812.782580,-10035.851024
947.376374,1924.535449,-592.164754,-10418.898773
947.376694,1258.350101,2664.741391,-11108.384721
947.377014,740.205942,4885.359217,-11644.651570
947.377334,518.144159,4293.194464,-10801.946522
947.377654,1480.411884,3552.988522,-11031.775171
947.377974,2368.659014,0.000000,-11721.261119
947.378294,1406.391290,-3330.926739,-9806.022374
947.378613,0.000000,-3997.112087,-10035.851024
947.378933,-962.267725,-2738.761985,-9193.145976
947.379253,-222.061783,-296.082377,-9959.241474
947.379573,962.267725,740.205942,-10418.898773
947.379893,1332.370696,1036.288319,-9882.631924
947.380213,1258.350101,592.164754,-9806.022374
947.380533,-518.144159,1406.391290,-9576.193725
947.380853,-518.144159,1628.453072,-9652.803275
947.381173,-370.102971,296.082377,-9269.755526
947.381492,-444.123565,-2220.617826,-10035.851024
947.381812,-222.061783,-3552.988522,-8350.440928
947.382132,370.102971,-2146.597232,-9806.022374
947.382452,0.000000,0.000000,-9576.193725
947.382772,-2442.679609,1554.432478,-10342.289223
947.383092,-3034.844362,666.185348,-10112.460574
947.383412,-1998.556043,0.000000,-9193.145976
947.383732,-222.061783,-444.123565,-10955.165621
947.384052,1110.308913,74.020594,-9806.022374
947.384371,148.041188,518.144159,-10648.727422
947.384691,-444.123565,888.247130,-10418.898773
947.385011,148.041188,1332.370696,-9806.022374
947.385331,592.164754,740.205942,-10725.336972
947.385651,0.000000,740.205942,-10495.508323
947.385971,-148.041188,2960.823768,-11644.651570
947.386291,-1998.556043,3330.926739,-10495.508323
947.386611,-370.102971,1850.514855,-11031.775171
947.386931,1554.432478,-1776.494261,-10418.898773
947.387250,2516.700203,-2664.741391,-9882.631924
947.387570,2072.576638,-2220.617826,-10648.727422
947.387890,1480.411884,2146.597232,-9729.412825
947.388210,1184.329507,4663.297435,-10955.165621
947.388530,2442.679609,4589.276840,-11568.042020
947.388850,3627.009116,2664.741391,-10495.508323
947.389170,4589.276840,296.082377,-10418.898773
947.389490,3182.885551,296.082377,-9576.193725
947.389810,2294.638420,-518.144159,-10189.070123
947.390129,592.164754,-814.226536,-9959.241474
947.390449,148.041188,0.000000,-9806.022374
947.390769,592.164754,666.185348,-8733.488677
947.391089,1406.391290,-296.082377,-8886.707777
947.391409,814.226536,1110.308913,-9959.241474
947.391729,888.247130,444.123565,-9882.631924
947.392049,2294.638420,592.164754,-9499.584175
947.392369,1702.473667,-222.061783,-9039.926876
947.392689,148.041188,-1480.411884,-8886.707777
947.393008,0.000000,-814.226536,-9193.145976
947.393328,0.000000,-2146.597232,-10112.460574
947.393648,1776.494261,-2442.679609,-9576.193725
947.393968,814.226536,444.123565,-9882.631924
947.394288,222.061783,2368.659014,-10495.508323
947.394608,-296.082377,2812.782580,-10418.898773
947.394928,-1332.370696,1628.453072,-10725.336972
947.395248,-1480.411884,-222.061783,-9806.022374
947.395568,-1406.391290,-518.144159,-10955.165621
947.395887,-1110.308913,-1258.350101,-10265.679673
947.396207,-592.164754,0.000000,-11568.042020
947.396527,-888.247130,1924.535449,-10648.727422
947.396847,-3108.864956,1776.494261,-11261.603821
947.397167,-3552.988522,1850.514855,-12027.699319
947.397487,-2738.761985,2442.679609,-10572.117872
947.397807,-3256.906145,2886.803174,-11338.213370
947.398127,-2368.659014,3701.029710,-10418.898773
947.398447,-962.267725,1480.411884,-11031.775171
947.398766,888.247130,-2072.576638,-10572.117872
947.399086,1480.411884,-3849.070898,-9806.022374
947.399406,1184.329507,-3701.029710,-9806.022374
947.399726,1036.288319,-1184.329507,-9116.536426
947.400046,592.164754,1406.391290,-9576.193725
947.400366,1628.453072,3404.947333,-10112.460574
947.400686,2812.782580,2368.659014,-9576.193725
947.401006,296.082377,-1110.308913,-10189.070123
947.401326,592.164754,-4737.318029,-8197.221829
947.401645,1554.432478,-4589.276840,-8810.098227
947.401965,2590.720797,-2812.782580,-9269.755526
947.402285,3108.864956,-148.041188,-9269.755526
947.402605,-1258.350101,1554.432478,-9576.193725
947.402925,-814.226536,1406.391290,-8886.707777
947.403245,1924.535449,370.102971,-9039.926876
947.403565,5255.462188,148.041188,-10112.460574
947.403885,3404.947333,0.000000,-9499.584175
947.404205,1480.411884,-740.205942,-9729.412825
947.404524,1332.370696,-1110.308913,-9882.631924
947.404844,2442.679609,-1628.453072,-10035.851024
947.405164,1258.350101,-370.102971,-10342.289223
947.405484,592.164754,1924.535449,-10495.508323
947.405804,370.102971,2812.782580,-10495.508323
947.406124,3478.967927,3182.885551,-11338.213370
947.406444,4811.338623,1258.350101,-11031.775171
947.406764,4589.276840,148.041188,-11874.480219
947.407083,2220.617826,-666.185348,-11108.384721
947.407403,-148.041188,74.020594,-10725.336972
947.407723,-740.205942,1110.308913,-10878.556072
947.408043,2442.679609,1332.370696,-10648.727422
947.408363,2664.741391,74.020594,-11491.432470
947.408683,1258.350101,-444.123565,-9806.022374
947.409003,148.041188,-370.102971,-10955.165621
947.409323,592.164754,740.205942,-10189.070123
947.409643,-1998.556043,1998.556043,-10648.727422
947.409962,-4219.173869,1406.391290,-10189.070123
947.410282,-4589.276840,0.000000,-8963.317327
947.410602,-1702.473667,-1924.535449,-8656.879127
947.410922,0.000000,-2146.597232,-9806.022374
947.411242,-1258.350101,-2220.617826,-9806.022374
947.411562,-2590.720797,-518.144159,-9499.584175
947.411882,-2590.720797,814.226536,-9116.536426
947.412202,-296.082377,1332.370696,-8886.707777
947.412522,-1184.329507,1184.329507,-9806.022374
947.412841,-2294.638420,1258.350101,-9346.365076
947.413161,-2664.741391,222.061783,-9422.974625
947.413481,148.041188,1406.391290,-10112.460574
947.413801,222.061783,-888.247130,-9346.365076
947.414121,-1406.391290,-1998.556043,-10342.289223
947.414441,-4145.153275,-2812.782580,-9729.412825
947.414761,-3108.864956,-222.061783,-9499.584175
947.415081,-1628.453072,3256.906145,-10418.898773
947.415401,1258.350101,4737.318029,-10572.117872
947.415720,2738.761985,4811.338623,-12180.918418
947.416040,740.205942,1702.473667,-10725.336972
947.416360,-370.102971,-1110.308913,-10035.851024
947.416680,370.102971,-1850.514855,-10878.556072
947.417000,148.041188,-1184.329507,-10418.898773
947.417320,-1258.350101,148.041188,-10878.556072
947.417640,148.041188,1258.350101,-10342.289223
947.417960,2442.679609,962.267725,-10265.679673
947.418280,4441.235652,2590.720797,-10955.165621
947.418599,1184.329507,2368.659014,-10955.165621
947.418919,888.247130,1184.329507,-10265.679673
947.419239,1850.514855,1554.432478,-9806.022374
947.419559,5847.626942,-296.082377,-10189.070123
947.419879,5773.606348,-814.226536,-9806.022374
947.420199,3478.967927,-222.061783,-10572.117872
947.420519,3849.070898,296.082377,-9193.145976
947.420839,3108.864956,1258.350101,-9806.022374
947.421159,3775.050304,-222.061783,-9499.584175
947.421478,2072.576638,-222.061783,-8963.317327
947.421798,370.102971,-1628.453072,-9499.584175
947.422118,4293.194464,-740.205942,-9039.926876
947.422438,5403.503377,-666.185348,-9806.022374
947.422758,5551.544565,-518.144159,-9729.412825
947.423078,2516.700203,-370.102971,-10035.851024
947.423398,2220.617826,-296.082377,-9576.193725
947.423718,1258.350101,74.020594,-9806.022374
947.424038,-518.144159,2072.576638,-10495.508323
947.424357,-444.123565,2368.659014,-10189.070123
947.424677,-1406.391290,1850.514855,-11491.432470
947.424997,-148.041188,222.061783,-9269.755526
947.425317,-962.267725,-1850.514855,-9806.022374
947.425637,370.102971,-3849.070898,-10189.070123
947.425957,-592.164754,-1924.535449,-10418.898773
947.426277,-1776.494261,0.000000,-11797.870669
947.426597,-1924.535449,2220.617826,-10801.946522
947.426917,-1924.535449,1628.453072,-11644.651570
947.427236,-1702.473667,2294.638420,-11261.603821
947.427556,-3034.844362,2146.597232,-12027.699319
947.427876,-3478.967927,2664.741391,-11951.089769
947.428196,-3108.864956,74.020594,-10725.336972
947.428516,-2590.720797,0.000000,-10801.946522
947.428836,-1850.514855,-740.205942,-9959.241474
947.429156,-3256.906145,-370.102971,-10418.898773
947.429476,-2812.782580,-518.144159,-10035.851024
947.429796,-1702.473667,-222.061783,-9116.536426
947.430115,888.247130,0.000000,-9576.193725
947.430435,888.247130,814.226536,-9729.412825
947.430755,-592.164754,0.000000,-9193.145976
947.431075,-1554.432478,-888.247130,-8810.098227
947.431395,-1850.514855,-666.185348,-8580.269578
947.431715,-740.205942,-148.041188,-8886.707777
947.432035,-962.267725,-148.041188,-8810.098227
947.432355,1036.288319,-888.247130,-8733.488677
947.432675,2072.576638,-1258.350101,-8886.707777
947.432994,1480.411884,-1850.514855,-8963.317327
947.433314,1110.308913,-1628.453072,-8963.317327
947.433634,962.267725,-518.144159,-10112.460574
947.433954,2368.659014,148.041188,-9346.365076
947.434274,4589.276840,370.102971,-10265.679673
947.434594,5995.668130,0.000000,-9729.412825
947.434914,5477.523971,518.144159,-10878.556072
947.435234,3923.091493,444.123565,-10878.556072
947.435554,2886.803174,1480.411884,-10955.165621
947.435873,2960.823768,2294.638420,-11491.432470
947.436193,2590.720797,2072.576638,-10955.165621
947.436513,1702.473667,1184.329507,-11568.042020
947.436833,74.020594,148.041188,-11261.603821
947.437153,518.144159,148.041188,-10648.727422
947.437473,1554.432478,888.247130,-11338.213370
947.437793,1776.494261,2072.576638,-11261.603821
947.438113,1406.391290,1702.473667,-11338.213370
947.438433,2738.761985,814.226536,-9959.241474
947.438752,3701.029710,-370.102971,-10418.898773
947.439072,2590.720797,148.041188,-11031.775171
947.439392,888.247130,666.185348,-10495.508323
947.439712,-1110.308913,888.247130,-10035.851024
947.440032,-518.144159,1258.350101,-9346.365076
947.440352,-444.123565,-296.082377,-9422.974625
947.440672,74.020594,-1036.288319,-9652.803275
947.440992,-1036.288319,-2072.576638,-8963.317327
947.441312,-888.247130,-1258.350101,-9422.974625
947.441631,814.226536,0.000000,-8886.707777
947.441951,1184.329507,1184.329507,-9499.584175
947.442271,0.000000,2072.576638,-9729.412825
947.442591,-2294.638420,1184.329507,-9193.145976
947.442911,-3923.091493,-962.267725,-9422.974625
947.443231,-3923.091493,-444.123565,-7737.564530
947.443551,-2738.761985,-814.226536,-11031.775171
947.443871,-888.247130,148.041188,-9422.974625
947.444191,148.041188,-444.123565,-10265.679673
947.444510,370.102971,-814.226536,-9806.022374
947.444830,-1850.514855,0.000000,-9806.022374
947.445150,-1480.411884,370.102971,-10112.460574
947.445470,-1332.370696,2220.617826,-10801.946522
947.445790,-1406.391290,2886.803174,-11031.775171
947.446110,-1406.391290,2664.741391,-11184.994271
947.446430,74.020594,814.226536,-10801.946522
947.446750,1332.370696,0.000000,-11338.213370
947.447070,2664.741391,-222.061783,-11721.261119
947.447389,3552.988522,1850.514855,-11644.651570
947.447709,814.226536,1258.350101,-10955.165621
947.448029,-1110.308913,1332.370696,-11031.775171
947.448349,-1776.494261,-222.061783,-10265.679673
947.448669,-1554.432478,-1406.391290,-10418.898773
947.448989,0.000000,-592.164754,-9959.241474
947.449309,2516.700203,148.041188,-10112.460574
947.449629,5107.421000,1406.391290,-10495.508323
947.449949,5477.523971,2072.576638,-10418.898773
947.450268,3849.070898,814.226536,-10265.679673
947.450588,2590.720797,-370.102971,-9729.412825
947.450908,740.205942,-962.267725,-8886.707777
947.451228,0.000000,-518.144159,-9499.584175
947.451548,-296.082377,-444.123565,-9576.193725
947.451868,0.000000,-2072.576638,-8427.050478
947.452188,3256.906145,-3627.009116,-8656.879127
947.452508,4293.194464,-3256.906145,-9499.584175
947.452827,3478.967927,-1480.411884,-9039.926876
947.453147,2368.659014,1998.556043,-10342.289223
947.453467,2812.782580,3478.967927,-9193.145976
947.453787,2146.597232,2812.782580,-9959.241474
947.454107,2368.659014,518.144159,-10725.336972
947.454427,222.061783,-2664.741391,-9269.755526
947.454747,-2664.741391,-1998.556043,-9959.241474
947.455067,-1702.473667,296.082377,-9806.022374
947.455387,370.102971,1110.308913,-11031.775171
947.455706,2294.638420,2516.700203,-11184.994271
947.456026,74.020594,888.247130,-10725.336972
947.456346,-2072.576638,444.123565,-10265.679673
947.456666,-1628.453072,592.164754,-10955.165621
947.456986,-888.247130,1924.535449,-11184.994271
947.457306,-518.144159,3478.967927,-11644.651570
947.457626,-444.123565,2294.638420,-11108.384721
947.457946,1628.453072,740.205942,-10878.556072
947.458266,1702.473667,-370.102971,-11721.261119
947.458585,-296.082377,1184.329507,-10878.556072
947.458905,-2220.617826,3182.885551,-11108.384721
947.459225,-1480.411884,3997.112087,-10725.336972
947.459545,-888.247130,1258.350101,-9269.755526
947.459865,-740.205942,-2368.659014,-9039.926876
947.460185,-444.123565,-4071.132681,-9422.974625
947.460505,-296.082377,-4071.132681,-8963.317327
947.460825,444.123565,-222.061783,-8733.488677
947.461145,740.205942,3182.885551,-9346.365076
947.461464,1776.494261,3552.988522,-9116.536426
947.461784,370.102971,1554.432478,-9499.584175
947.462104,-1776.494261,-1406.391290,-8044.002729
947.462424,-4145.153275,-3775.050304,-7660.954980
947.462744,-1406.391290,-3849.070898,-8656.879127
947.463064,1850.514855,-3478.967927,-8886.707777
947.463384,2368.659014,-1184.329507,-10801.946522
947.463704,1184.329507,1110.308913,-9346.365076
947.464024,1332.370696,2442.679609,-9806.022374
947.464343,2590.720797,3478.967927,-11184.994271
947.464663,2368.659014,3923.091493,-11031.775171
947.464983,1036.288319,1850.514855,-10265.679673
947.465303,518.144159,0.000000,-10035.851024
947.465623,962.267725,-2590.720797,-10572.117872
947.465943,2220.617826,-3552.988522,-10495.508323
947.466263,1036.288319,-1850.514855,-10878.556072
947.466583,444.123565,666.185348,-10725.336972
947.466903,1702.473667,4219.173869,-11568.042020
947.467222,1036.288319,5847.626942,-11721.261119
947.467542,-148.041188,5107.421000,-11261.603821
947.467862,0.000000,1480.411884,-11414.822920
947.468182,2960.823768,-2220.617826,-10342.289223
947.468502,5255.462188,-3997.112087,-10725.336972
947.468822,4589.276840,-3108.864956,-10878.556072
947.469142,2368.659014,0.000000,-9576.193725
947.469462,74.020594,2368.659014,-10648.727422
947.469781,-1258.350101,3627.009116,-10035.851024
947.470101,-444.123565,3923.091493,-10418.898773
947.470421,0.000000,1702.473667,-10189.070123
947.470741,0.000000,222.061783,-9959.241474
947.471061,-1628.453072,-2146.597232,-9116.536426
947.471381,-1332.370696,-1184.329507,-8656.879127
947.471701,296.082377,148.041188,-10112.460574
947.472020,222.061783,740.205942,-9422.974625
947.472340,-962.267725,814.226536,-9729.412825
947.472660,-1332.370696,1110.308913,-8963.317327
947.472980,-1554.432478,370.102971,-9039.926876
947.473300,-666.185348,1628.453072,-8810.098227
947.473620,-1332.370696,0.000000,-9346.365076
947.473940,-592.164754,-1036.288319,-9346.365076
947.474260,1480.411884,-2220.617826,-9576.193725
947.474579,1184.329507,-1332.370696,-8886.707777
947.474899,518.144159,296.082377,-9806.022374
947.475219,-1258.350101,1036.288319,-9269.755526
947.475539,-592.164754,2590.720797,-10112.460574
947.475859,1850.514855,2368.659014,-10035.851024
947.476179,4071.132681,1406.391290,-10112.460574
947.476499,3182.885551,-592.164754,-10418.898773
947.476818,2146.597232,-1998.556043,-10801.946522
947.477138,1998.556043,-1998.556043,-10112.460574
947.477458,2368.659014,74.020594,-10572.117872
947.477778,1702.473667,1628.453072,-11184.994271
947.478098,1850.514855,3256.906145,-10955.165621
947.478418,0.000000,3404.947333,-11491.432470
947.478738,74.020594,1850.514855,-10418.898773
947.479057,2146.597232,-222.061783,-10189.070123
947.479377,2960.823768,-888.247130,-10265.679673
947.479697,888.247130,-1924.535449,-9806.022374
947.480017,2516.700203,-666.185348,-10265.679673
947.480337,3701.029710,1480.411884,-10572.117872
947.480657,2960.823768,1406.391290,-10265.679673
947.480977,1406.391290,1554.432478,-9959.241474
947.481296,1184.329507,2220.617826,-10189.070123
947.481616,1258.350101,74.020594,-9652.803275
947.481936,-222.061783,-370.102971,-9576.193725
947.482256,1406.391290,-518.144159,-10418.898773
947.482576,-1554.432478,-518.144159,-9269.755526
947.482896,-3182.885551,-962.267725,-9652.803275
947.483216,-2072.576638,-2072.576638,-9652.803275
947.483535,0.000000,-2294.638420,-8963.317327
947.483855,-1924.535449,-1258.350101,-9576.193725
947.484175,-3627.009116,-962.267725,-10112.460574
947.484495,-1850.514855,1110.308913,-9116.536426
947.484815,-962.267725,2886.803174,-10648.727422
947.485135,-740.205942,2442.679609,-10955.165621
947.485455,-1406.391290,148.041188,-10495.508323
947.485775,-4071.132681,-1332.370696,-10342.289223
947.486094,-2886.803174,-1850.514855,-9422.974625
947.486414,-2368.659014,-2146.597232,-9576.193725
947.486734,-1702.473667,-592.164754,-10495.508323
947.487054,-370.102971,0.000000,-10265.679673
947.487374,-1554.432478,-1184.329507,-10801.946522
947.487694,296.082377,518.144159,-10495.508323
947.488014,0.000000,2368.659014,-11108.384721
947.488333,888.247130,4515.256246,-11644.651570
947.488653,-370.102971,3552.988522,-10878.556072
947.488973,-370.102971,1554.432478,-10648.727422
947.489293,-296.082377,-148.041188,-10035.851024
947.489613,444.123565,-1036.288319,-9729.412825
947.489933,74.020594,-592.164754,-10572.117872
947.490253,1702.473667,-814.226536,-10035.851024
947.490572,2294.638420,-1258.350101,-9729.412825
947.490892,3182.885551,-370.102971,-9269.755526
947.491212,2368.659014,-296.082377,-8886.707777
947.491532,4515.256246,296.082377,-9806.022374
947.491852,4441.235652,74.020594,-9959.241474
947.492172,3182.885551,444.123565,-9346.365076
947.492492,1702.473667,0.000000,-9806.022374
947.492811,2220.617826,-1480.411884,-9269.755526
947.493131,518.144159,-1332.370696,-9269.755526
947.493451,1332.370696,-1776.494261,-9346.365076
947.493771,1036.288319,-1776.494261,-8733.488677
947.494091,2516.700203,-1332.370696,-10112.460574
947.494411,1924.535449,-1110.308913,-9269.755526
947.494731,1776.494261,-370.102971,-9576.193725
947.495050,3108.864956,1554.432478,-9882.631924
947.495370,3627.009116,3478.967927,-10725.336972
947.495690,2886.803174,3330.926739,-10955.165621
947.496010,2146.597232,2442.679609,-10342.289223
947.496330,1258.350101,0.000000,-9806.022374
947.496650,962.267725,-962.267725,-10418.898773
947.496970,518.144159,-1184.329507,-10725.336972
947.497290,-1110.308913,518.144159,-10955.165621
947.497609,-1702.473667,2960.823768,-11031.775171
947.497929,-666.185348,2738.761985,-11184.994271
947.498249,296.082377,1850.514855,-10725.336972
947.498569,888.247130,-444.123565,-10189.070123
947.498889,814.226536,-1110.308913,-10418.898773
947.499209,1184.329507,222.061783,-10342.289223
947.499529,1258.350101,2072.576638,-10725.336972
947.499848,0.000000,3478.967927,-11108.384721
947.500168,-962.267725,2664.741391,-10189.070123
947.500488,-1258.350101,1850.514855,-9729.412825
947.500808,370.102971,444.123565,-9959.241474
947.501128,-148.041188,148.041188,-9652.803275
947.501448,-2442.679609,-444.123565,-10265.679673
947.501768,-2442.679609,-888.247130,-9116.536426
947.502087,-2220.617826,-2220.617826,-9193.145976
947.502407,-1110.308913,-2146.597232,-8350.440928
947.502727,296.082377,0.000000,-9499.584175
947.503047,1036.288319,1998.556043,-10035.851024
947.503367,888.247130,2960.823768,-9959.241474
947.503687,1184.329507,4145.153275,-9116.536426
947.504007,-666.185348,4071.132681,-9193.145976
947.504326,-962.267725,1924.535449,-9269.755526
947.504646,-740.205942,-666.185348,-9039.926876
947.504966,-222.061783,-1554.432478,-9882.631924
947.505286,0.000000,-2368.659014,-9193.145976
947.505606,74.020594,-1036.288319,-9422.974625
947.505926,-740.205942,0.000000,-10189.070123
947.506246,-1776.494261,962.267725,-9729.412825
947.506565,-1332.370696,1924.535449,-10342.289223
947.506885,888.247130,1628.453072,-10878.556072
947.507205,2220.617826,592.164754,-10495.508323
947.507525,2960.823768,-444.123565,-11491.432470
947.507845,2960.823768,370.102971,-10955.165621
947.508165,1480.411884,1036.288319,-10955.165621
947.508485,-296.082377,2072.576638,-10495.508323
947.508805,1036.288319,2442.679609,-10955.165621
947.509124,1776.494261,592.164754,-9882.631924
947.509444,3849.070898,-666.185348,-10648.727422
947.509764,3775.050304,-1036.288319,-10572.117872
947.510084,2368.659014,-962.267725,-9806.022374
947.510404,370.102971,-666.185348,-10265.679673
947.510724,2960.823768,-74.020594,-9806.022374
947.511044,3330.926739,222.061783,-10035.851024
947.511363,1480.411884,444.123565,-9652.803275
947.511683,-222.061783,0.000000,-9422.974625
947.512003,1036.288319,-1258.350101,-9576.193725
947.512323,4441.235652,-518.144159,-9959.241474
947.512643,4293.194464,-222.061783,-9806.022374
947.512963,518.144159,222.061783,-9499.584175
947.513283,-2442.679609,-296.082377,-8427.050478
947.513602,-1850.514855,0.000000,-9576.193725
947.513922,-1332.370696,-370.102971,-10265.679673
947.514242,1850.514855,-592.164754,-9806.022374
947.514562,148.041188,-1184.329507,-9116.536426
947.514882,-592.164754,-444.123565,-9959.241474
947.515202,-444.123565,1184.329507,-10189.070123
947.515522,0.000000,444.123565,-10955.165621
947.515841,666.185348,888.247130,-10035.851024
947.516161,-1110.308913,444.123565,-10418.898773
947.516481,-1628.453072,-444.123565,-10342.289223
947.516801,-3404.947333,-1480.411884,-10725.336972
947.517121,-3552.988522,-740.205942,-10112.460574
947.517441,-2368.659014,444.123565,-10112.460574
947.517761,-4219.173869,1702.473667,-10342.289223
947.518080,-2590.720797,518.144159,-10265.679673
947.518400,-1850.514855,-1258.350101,-10955.165621
947.518720,-740.205942,-1332.370696,-9422.974625
947.519040,1036.288319,-888.247130,-9806.022374
947.519360,1184.329507,-814.226536,-10112.460574
947.519680,296.082377,0.000000,-10035.851024
947.520000,-222.061783,1406.391290,-10495.508323
947.520320,0.000000,2812.782580,-9729.412825
947.520639,1332.370696,4145.153275,-10112.460574
947.520959,518.144159,3330.926739,-10878.556072
947.521279,74.020594,1554.432478,-10112.460574
947.521599,-1110.308913,74.020594,-9806.022374
947.521919,-666.185348,-2516.700203,-9039.926876
947.522239,592.164754,-4071.132681,-8503.660028
947.522559,1776.494261,-2516.700203,-9422.974625
947.522878,2960.823768,814.226536,-9806.022374
947.523198,4367.215058,3923.091493,-9882.631924
947.523518,5033.400406,5329.482782,-9806.022374
947.523838,3923.091493,3849.070898,-10878.556072
947.524158,2886.803174,1850.514855,-10189.070123
947.524478,1258.350101,-740.205942,-10112.460574
947.524798,1850.514855,-1628.453072,-10189.070123
947.525117,444.123565,-2146.597232,-9959.241474
947.525437,0.000000,-592.164754,-9806.022374
947.525757,592.164754,0.000000,-9806.022374
947.526077,3701.029710,666.185348,-11261.603821
947.526397,4367.215058,2590.720797,-10112.460574
947.526717,3108.864956,3478.967927,-11184.994271
947.527037,3034.844362,2812.782580,-9959.241474
947.527356,1998.556043,74.020594,-10495.508323
947.527676,2072.576638,-1332.370696,-9193.145976
947.527996,148.041188,-1702.473667,-9806.022374
947.528316,-1702.473667,-962.267725,-9729.412825
947.528636,-666.185348,444.123565,-10189.070123
947.528956,888.247130,1702.473667,-10648.727422
947.529276,0.000000,2442.679609,-10265.679673
947.529596,-2590.720797,-74.020594,-9806.022374
947.529915,-2294.638420,-1924.535449,-9806.022374
947.530235,-1036.288319,-1554.432478,-10112.460574
947.530555,-1554.432478,-666.185348,-9729.412825
947.530875,-1332.370696,1036.288319,-9806.022374
947.531195,148.041188,2220.617826,-10878.556072
947.531515,740.205942,2960.823768,-10418.898773
947.531835,-2294.638420,2368.659014,-11108.384721
947.532154,-1628.453072,814.226536,-9806.022374
947.532474,-2442.679609,-518.144159,-9806.022374
947.532794,-1110.308913,-3182.885551,-10265.679673
947.533114,0.000000,-4441.235652,-9499.584175
947.533434,-1924.535449,-2220.617826,-9729.412825
947.533754,-4663.297435,0.000000,-9193.145976
947.534074,-3108.864956,3775.050304,-9959.241474
947.534393,888.247130,4811.338623,-10801.946522
947.534713,3404.947333,2368.659014,-10648.727422
947.535033,4071.132681,-1480.411884,-10189.070123
947.535353,1110.308913,-3404.947333,-9193.145976
947.535673,-888.247130,-2960.823768,-9039.926876
947.535993,0.000000,-888.247130,-9959.241474
947.536313,1184.329507,1184.329507,-10572.117872
947.536632,1110.308913,666.185348,-9422.974625
947.536952,0.000000,-814.226536,-9729.412825
947.537272,-1110.308913,-814.226536,-9729.412825
947.537592,-518.144159,296.082377,-10342.289223
947.537912,2442.679609,296.082377,-10342.289223
947.538232,4145.153275,1258.350101,-10035.851024
947.538552,3923.091493,0.000000,-10955.165621
947.538871,1480.411884,-444.123565,-9806.022374
947.539191,-1184.329507,-1184.329507,-10342.289223
947.539511,74.020594,592.164754,-10265.679673
947.539831,1924.535449,2220.617826,-10572.117872
947.540151,3552.988522,2368.659014,-11414.822920
947.540471,4589.276840,148.041188,-10265.679673
947.540791,4441.235652,0.000000,-10572.117872
947.541111,2516.700203,-962.267725,-10572.117872
947.541430,0.000000,74.020594,-9806.022374
947.541750,962.267725,-370.102971,-9806.022374
947.542070,-592.164754,-296.082377,-9499.584175
947.542390,2812.782580,74.020594,-10342.289223
947.542710,3552.988522,-888.247130,-9882.631924
947.543030,3108.864956,-518.144159,-9806.022374
947.543350,2368.659014,1628.453072,-9882.631924
947.543669,0.000000,1036.288319,-10342.289223
947.543989,1332.370696,814.226536,-9806.022374
947.544309,0.000000,962.267725,-9652.803275
947.544629,-3182.885551,1036.288319,-9806.022374
947.544949,-3775.050304,1332.370696,-9882.631924
947.545269,-2146.597232,0.000000,-10189.070123
947.545589,-1110.308913,-592.164754,-9269.755526
947.545908,-1554.432478,-1850.514855,-9729.412825
947.546228,-962.267725,-666.185348,-9806.022374
947.546548,0.000000,1332.370696,-10342.289223
947.546868,370.102971,2220.617826,-10725.336972
947.547188,1332.370696,3775.050304,-9882.631924
947.547508,2072.576638,1480.411884,-10725.336972
947.547828,2738.761985,370.102971,-9806.022374
947.548147,-518.144159,-666.185348,-10418.898773
947.548467,-3775.050304,-1628.453072,-9576.193725
947.548787,-2664.741391,666.185348,-9499.584175
947.549107,370.102971,1628.453072,-10725.336972
947.549427,592.164754,1406.391290,-10878.556072
947.549747,-1850.514855,-888.247130,-10801.946522
947.550067,-4219.173869,-2072.576638,-9882.631924
947.550386,-2812.782580,-296.082377,-9729.412825
947.550706,-814.226536,1924.535449,-10572.117872
947.551026,1184.329507,4293.194464,-10801.946522
947.551346,814.226536,3701.029710,-10648.727422
947.551666,0.000000,592.164754,-9959.241474
947.551986,1554.432478,-1036.288319,-10189.070123
947.552306,-1406.391290,-3552.988522,-9882.631924
947.552626,-1480.411884,-1924.535449,-9806.022374
947.552945,-296.082377,-148.041188,-10035.851024
947.553265,1628.453072,666.185348,-9882.631924
947.553585,3923.091493,2220.617826,-10342.289223
947.553905,2664.741391,666.185348,-10189.070123
947.554225,1554.432478,-444.123565,-9882.631924
947.554545,3701.029710,-222.061783,-10495.508323
947.554865,3552.988522,666.185348,-9882.631924
947.555184,3108.864956,-1332.370696,-9806.022374
947.555504,1406.391290,-444.123565,-9422.974625
947.555824,222.061783,444.123565,-10418.898773
947.556144,2072.576638,444.123565,-10189.070123
947.556464,2146.597232,74.020594,-9576.193725
947.556784,2442.679609,-1258.350101,-9959.241474
947.557104,1776.494261,-740.205942,-9806.022374
947.557423,1184.329507,-2072.576638,-9806.022374
947.557743,1628.453072,-1480.411884,-9806.022374
947.558063,370.102971,-888.247130,-9806.022374
947.558383,2516.700203,-1036.288319,-10265.679673
947.558703,3923.091493,222.061783,-11261.603821
947.559023,1554.432478,1036.288319,-9959.241474
947.559343,-1776.494261,740.205942,-10495.508323
947.559662,-888.247130,2072.576638,-10495.508323
947.559982,74.020594,2072.576638,-10878.556072
947.560302,0.000000,296.082377,-11031.775171
947.560622,370.102971,-814.226536,-10572.117872
947.560942,-888.247130,-2220.617826,-10035.851024
947.561262,-740.205942,-2368.659014,-10495.508323
947.561582,-1332.370696,-740.205942,-9806.022374
947.561901,-1850.514855,1628.453072,-10265.679673
947.562221,-222.061783,3404.947333,-10495.508323
947.562541,518.144159,3256.906145,-11261.603821
947.562861,2146.597232,2072.576638,-11338.213370
947.563181,518.144159,444.123565,-9422.974625
947.563501,-1702.473667,-888.247130,-9269.755526
947.563821,-3478.967927,-666.185348,-9269.755526
947.564141,-2664.741391,962.267725,-9806.022374
947.564460,-2960.823768,1776.494261,-9806.022374
947.564780,-1776.494261,148.041188,-9576.193725
947.565100,1628.453072,-148.041188,-8733.488677
947.565420,888.247130,-888.247130,-10035.851024
947.565740,1776.494261,-962.267725,-9269.755526
947.566060,1850.514855,888.247130,-10572.117872
947.566380,1184.329507,2220.617826,-9576.193725
947.566699,-370.102971,1702.473667,-9806.022374
947.567019,-370.102971,1110.308913,-9959.241474
947.567339,740.205942,-296.082377,-10112.460574
947.567659,-1332.370696,0.000000,-9729.412825
947.567979,370.102971,1924.535449,-9806.022374
947.568299,1702.473667,518.144159,-9959.241474
947.568619,3478.967927,1036.288319,-10495.508323
947.568938,3478.967927,-592.164754,-10572.117872
947.569258,1480.411884,-666.185348,-9499.584175
947.569578,2442.679609,1776.494261,-10418.898773
947.569898,2886.803174,1850.514855,-10648.727422
947.570218,4145.153275,2442.679609,-10418.898773
947.570538,2072.576638,2738.761985,-10955.165621
947.570858,-296.082377,1850.514855,-9882.631924
947.571178,740.205942,1406.391290,-10189.070123
947.571497,2072.576638,296.082377,-10342.289223
947.571817,1554.432478,0.000000,-10342.289223
947.572137,3034.844362,-814.226536,-10648.727422
947.572457,3552.988522,-1406.391290,-9806.022374
947.572777,962.267725,-444.123565,-9652.803275
947.573097,-740.205942,444.123565,-11261.603821
947.573417,-3552.988522,2146.597232,-10725.336972
947.573737,-1332.370696,2664.741391,-10418.898773
947.574057,592.164754,2812.782580,-10189.070123
947.574377,1776.494261,1406.391290,-10648.727422
947.574697,1850.514855,-740.205942,-10495.508323
947.575016,518.144159,-2738.761985,-9959.241474
947.575336,-962.267725,-2294.638420,-8963.317327
947.575656,-3108.864956,-666.185348,-9729.412825
947.575976,-1406.391290,3034.844362,-10189.070123
947.576296,2294.638420,1184.329507,-10495.508323
947.576616,3997.112087,148.041188,-10035.851024
947.576936,666.185348,148.041188,-9499.584175
947.577256,-3923.091493,-814.226536,-10035.851024
947.577576,-2220.617826,-518.144159,-9806.022374
947.577896,74.020594,-1628.453072,-10801.946522
947.578216,-222.061783,0.000000,-10035.851024
947.578535,-2590.720797,0.000000,-10035.851024
947.578855,-1110.308913,0.000000,-9499.584175
947.579175,0.000000,888.247130,-10189.070123
947.579495,-1554.432478,-518.144159,-10725.336972
947.579815,-444.123565,-962.267725,-10265.679673
947.580135,-666.185348,-1184.329507,-8963.317327
947.580455,1480.411884,-444.123565,-10725.336972
947.580775,2590.720797,1480.411884,-10878.556072
947.581095,2738.761985,2516.700203,-11338.213370
947.581415,370.102971,962.267725,-10342.289223
947.581735,370.102971,-1184.329507,-9269.755526
947.582054,1554.432478,-1480.411884,-10342.289223
947.582374,666.185348,-1628.453072,-9882.631924
947.582694,1406.391290,-518.144159,-10112.460574
947.583014,1036.288319,1850.514855,-9652.803275
947.583334,-444.123565,2738.761985,-10342.289223
947.583654,-740.205942,0.000000,-10342.289223
947.583974,370.102971,-2442.679609,-9806.022374
947.584294,888.247130,-1924.535449,-9193.145976
947.584614,2220.617826,-666.185348,-10572.117872
947.584934,3182.885551,296.082377,-10035.851024
947.585254,2960.823768,-518.144159,-10648.727422
947.585573,962.267725,74.020594,-9882.631924
947.585893,296.082377,2220.617826,-10648.727422
947.586213,1554.432478,2146.597232,-10265.679673
947.586533,2368.659014,666.185348,-9806.022374
947.586853,1332.370696,-1184.329507,-9882.631924
947.587173,1184.329507,-2886.803174,-9729.412825
947.587493,1554.432478,-3034.844362,-9806.022374
947.587813,2220.617826,-1850.514855,-9576.193725
947.588133,2220.617826,1628.453072,-10801.946522
947.588453,1480.411884,2368.659014,-10265.679673
947.588773,444.123565,2664.741391,-10112.460574
947.589093,-2442.679609,2368.659014,-9499.584175
947.589412,-2220.617826,592.164754,-10265.679673
947.589732,74.020594,-1110.308913,-10342.289223
947.590052,2220.617826,-1184.329507,-10189.070123
947.590372,1406.391290,-2146.597232,-10189.070123
947.590692,222.061783,-1480.411884,-10112.460574
947.591012,-296.082377,-666.185348,-11031.775171
947.591332,296.082377,1110.308913,-10572.117872
947.591652,740.205942,4145.153275,-10572.117872
947.591972,-370.102971,7179.997637,-11568.042020
947.592292,-740.205942,7550.100608,-11491.432470
947.592612,74.020594,3701.029710,-11108.384721
947.592931,518.144159,-962.267725,-10725.336972
947.593251,-148.041188,-3478.967927,-9576.193725
947.593571,-1110.308913,-3627.009116,-9346.365076
947.593891,-1554.432478,-888.247130,-9729.412825
947.594211,-1406.391290,2812.782580,-9499.584175
947.594531,0.000000,4293.194464,-9806.022374
947.594851,-370.102971,1924.535449,-9039.926876
947.595171,888.247130,296.082377,-9499.584175
947.595491,1850.514855,-962.267725,-9729.412825
947.595811,1628.453072,-1258.350101,-9269.755526
947.596131,1258.350101,-444.123565,-9039.926876
947.596450,0.000000,444.123565,-9193.145976
947.596770,1332.370696,-370.102971,-9499.584175
947.597090,2442.679609,-592.164754,-9959.241474
947.597410,2072.576638,-148.041188,-9193.145976
947.597730,-1258.350101,1406.391290,-9959.241474
947.598050,-3034.844362,1332.370696,-9652.803275
947.598370,-1184.329507,444.123565,-9806.022374
947.598690,1332.370696,0.000000,-10265.679673
947.599010,3775.050304,-1406.391290,-10189.070123
947.599330,1702.473667,296.082377,-10265.679673
947.599650,1480.411884,592.164754,-10342.289223
947.599969,2368.659014,2368.659014,-10495.508323
947.600289,3552.988522,1850.514855,-11338.213370
947.600609,2072.576638,1776.494261,-10801.946522
947.600929,0.000000,444.123565,-10572.117872
947.601249,370.102971,-444.123565,-10495.508323
947.601569,1110.308913,148.041188,-11031.775171
947.601889,962.267725,-370.102971,-10725.336972
947.602209,1036.288319,0.000000,-10342.289223
947.602529,-962.267725,-1110.308913,-10035.851024
947.602849,666.185348,-148.041188,-11184.994271
947.603169,-518.144159,-962.267725,-9652.803275
947.603488,518.144159,370.102971,-10418.898773
947.603808,-370.102971,1850.514855,-9959.241474
947.604128,592.164754,2368.659014,-10189.070123
947.604448,2072.576638,-370.102971,-9652.803275
947.604768,0.000000,-2294.638420,-10035.851024
947.605088,-1998.556043,-4219.173869,-9576.193725
947.605408,-3478.967927,-4737.318029,-8963.317327
947.605728,-1036.288319,-2590.720797,-9039.926876
947.606048,-370.102971,888.247130,-9729.412825
947.606368,-1110.308913,1406.391290,-9882.631924
947.606688,-2294.638420,1406.391290,-10035.851024
947.607008,-1702.473667,0.000000,-9039.926876
947.607327,2516.700203,-666.185348,-9806.022374
947.607647,2146.597232,-1554.432478,-9959.241474
947.607967,962.267725,-888.247130,-10725.336972
947.608287,-962.267725,-444.123565,-9959.241474
947.608607,-888.247130,-222.061783,-10189.070123
947.608927,1998.556043,1406.391290,-10572.117872
947.609247,962.267725,1036.288319,-10189.070123
947.609567,1036.288319,2442.679609,-11261.603821
947.609887,1554.432478,962.267725,-10189.070123
947.610207,3330.926739,74.020594,-9652.803275
947.610527,2886.803174,-962.267725,-9806.022374
947.610846,1628.453072,-1332.370696,-10035.851024
947.611166,1702.473667,1036.288319,-10035.851024
947.611486,2590.720797,3256.906145,-10418.898773
947.611806,1924.535449,4737.318029,-10112.460574
947.612126,592.164754,3923.091493,-10572.117872
947.612446,-888.247130,296.082377,-9806.022374
947.612766,296.082377,-1480.411884,-9806.022374
947.613086,1998.556043,-2294.638420,-9806.022374
947.613406,3404.947333,-1332.370696,-9959.241474
947.613726,1998.556043,0.000000,-9346.365076
947.614046,1850.514855,962.267725,-9729.412825
947.614365,1998.556043,3923.091493,-8810.098227
947.614685,1924.535449,2220.617826,-10189.070123
947.615005,1850.514855,1332.370696,-10112.460574
947.615325,1258.350101,888.247130,-9269.755526
947.615645,1702.473667,2516.700203,-10648.727422
947.615965,2664.741391,296.082377,-10265.679673
947.616285,0.000000,-592.164754,-10112.460574
947.616605,-4737.318029,-1850.514855,-10189.070123
947.616925,-5773.606348,-1406.391290,-9422.974625
947.617245,-3256.906145,888.247130,-9806.022374
947.617565,-3330.926739,888.247130,-10495.508323
947.617884,-1998.556043,592.164754,-9346.365076
947.618204,-296.082377,592.164754,-10342.289223
947.618524,666.185348,-222.061783,-10342.289223
947.618844,2886.803174,444.123565,-10878.556072
947.619164,1702.473667,74.020594,-10572.117872
947.619484,-1110.308913,1776.494261,-10878.556072
947.619804,-3849.070898,666.185348,-9576.193725
947.620124,-4219.173869,1850.514855,-10648.727422
947.620444,-4441.235652,444.123565,-10189.070123
947.620764,-1554.432478,-962.267725,-11031.775171
947.621084,1258.350101,-1628.453072,-10265.679673
947.621403,3256.906145,-222.061783,-11414.822920
947.621723,444.123565,1110.308913,-9729.412825
947.622043,-592.164754,3182.885551,-11261.603821
947.622363,-888.247130,4811.338623,-10189.070123
947.622683,-1480.411884,2664.741391,-11031.775171
947.623003,888.247130,0.000000,-10342.289223
947.623323,666.185348,-2072.576638,-9116.536426
947.623643,2368.659014,-2812.782580,-9576.193725
947.623963,3108.864956,-296.082377,-9806.022374
947.624283,2664.741391,0.000000,-10035.851024
947.624603,1036.288319,0.000000,-9193.145976
947.624923,222.061783,666.185348,-9193.145976
947.625242,1036.288319,0.000000,-9652.803275
947.625562,3182.885551,-1776.494261,-9806.022374
947.625882,3701.029710,-1776.494261,-8580.269578
947.626202,2738.761985,444.123565,-9806.022374
947.626522,3997.112087,888.247130,-9806.022374
947.626842,4367.215058,1480.411884,-10265.679673
947.627162,1554.432478,1332.370696,-10878.556072
947.627482,148.041188,0.000000,-9652.803275
947.627802,1406.391290,-962.267725,-9959.241474
947.628122,2738.761985,-2294.638420,-10112.460574
947.628442,2294.638420,-1924.535449,-10801.946522
947.628761,-370.102971,0.000000,-10495.508323
947.629081,1406.391290,1406.391290,-10189.070123
947.629401,2146.597232,3034.844362,-9652.803275
947.629721,2886.803174,2960.823768,-11721.261119
947.630041,2294.638420,1850.514855,-10418.898773
947.630361,2072.576638,148.041188,-10648.727422
947.630681,3256.906145,-1406.391290,-10189.070123
947.631001,1628.453072,-1628.453072,-10418.898773
947.631321,-1036.288319,-74.020594,-11031.775171
947.631641,-2590.720797,296.082377,-10035.851024
947.631961,-1332.370696,1258.350101,-9269.755526
947.632280,2146.597232,2960.823768,-11031.775171
947.632600,2886.803174,1036.288319,-10418.898773
947.632920,888.247130,370.102971,-10035.851024
947.633240,-3478.967927,-592.164754,-9806.022374
947.633560,-3404.947333,-148.041188,-9346.365076
947.633880,-3256.906145,148.041188,-9806.022374
947.634200,-2072.576638,518.144159,-9806.022374
947.634520,-3108.864956,-666.185348,-9422.974625
947.634840,-1998.556043,-814.226536,-9806.022374
947.635160,-518.144159,1480.411884,-9806.022374
947.635480,-1406.391290,1332.370696,-9806.022374
947.635799,-1184.329507,370.102971,-10035.851024
947.636119,-3182.885551,-888.247130,-8886.707777
947.636439,-2590.720797,-1554.432478,-9806.022374
947.636759,-1332.370696,-1184.329507,-8963.317327
947.637079,666.185348,1036.288319,-10725.336972
947.637399,1258.350101,1036.288319,-10265.679673
947.637719,2812.782580,2294.638420,-10418.898773
947.638039,1628.453072,1702.473667,-9806.022374
947.638359,1332.370696,518.144159,-10495.508323
947.638679,-444.123565,-1850.514855,-10112.460574
947.638999,-1036.288319,-740.205942,-10572.117872
947.639318,-2294.638420,-222.061783,-9959.241474
947.639638,-1776.494261,962.267725,-9729.412825
947.639958,-1406.391290,1036.288319,-10418.898773
947.640278,1554.432478,296.082377,-10035.851024
947.640598,1554.432478,-814.226536,-10418.898773
947.640918,2146.597232,296.082377,-10572.117872
947.641238,3108.864956,1258.350101,-9806.022374
947.641558,5181.441594,2738.761985,-10418.898773
947.641878,4589.276840,2812.782580,-10572.117872
947.642198,3701.029710,2146.597232,-10265.679673
947.642518,2220.617826,2220.617826,-9652.803275
947.642838,1776.494261,740.205942,-9806.022374
947.643157,4293.194464,-1036.288319,-10189.070123
947.643477,2220.617826,-3701.029710,-9422.974625
947.643797,1924.535449,-3923.091493,-8886.707777
947.644117,148.041188,-2072.576638,-8656.879127
947.644437,1702.473667,740.205942,-10112.460574
947.644757,3923.091493,1850.514855,-10265.679673
947.645077,1332.370696,3034.844362,-10265.679673
947.645397,-222.061783,3034.844362,-9806.022374
947.645717,222.061783,666.185348,-10265.679673
947.646037,2294.638420,-1258.350101,-9806.022374
947.646357,2146.597232,-2516.700203,-10495.508323
947.646676,0.000000,-2738.761985,-9806.022374
947.646996,-1554.432478,-1332.370696,-9346.365076
947.647316,-1332.370696,1036.288319,-11338.213370
947.647636,666.185348,1554.432478,-10955.165621
947.647956,0.000000,1628.453072,-11031.775171
947.648276,-1332.370696,1258.350101,-10725.336972
947.648596,370.102971,-592.164754,-9882.631924
947.648916,1184.329507,-888.247130,-10189.070123
947.649236,666.185348,1406.391290,-10725.336972
947.649556,-2590.720797,296.082377,-10878.556072
947.649876,-4293.194464,370.102971,-9959.241474
947.650195,-3256.906145,0.000000,-11184.994271
947.650515,-1702.473667,-296.082377,-10725.336972
947.650835,-1554.432478,222.061783,-10955.165621
947.651155,-3849.070898,1184.329507,-11108.384721
947.651475,-3404.947333,1332.370696,-8810.098227
947.651795,-814.226536,74.020594,-10342.289223
947.652115,296.082377,0.000000,-10418.898773
947.652435,74.020594,-962.267725,-9729.412825
947.652755,-1332.370696,74.020594,-9729.412825
947.653075,2516.700203,2294.638420,-9806.022374
947.653395,3256.906145,3478.967927,-9806.022374
947.653714,962.267725,1480.411884,-9652.803275
947.654034,592.164754,1184.329507,-9652.803275
947.654354,-1702.473667,0.000000,-8503.660028
947.654674,-666.185348,-518.144159,-9652.803275
947.654994,888.247130,-2294.638420,-9193.145976
947.655314,1110.308913,-888.247130,-9806.022374
947.655634,148.041188,-1702.473667,-8963.317327
947.655954,2072.576638,0.000000,-9959.241474
947.656274,3182.885551,4071.132681,-10189.070123
947.656594,3701.029710,2812.782580,-10035.851024
947.656914,2886.803174,2368.659014,-10189.070123
947.657234,3330.926739,4367.215058,-10112.460574
947.657553,2960.823768,3701.029710,-11797.870669
947.657873,4145.153275,222.061783,-9882.631924
947.658193,3627.009116,-1776.494261,-11031.775171
947.658513,-148.041188,-3775.050304,-9882.631924
947.658833,0.000000,-888.247130,-9269.755526
947.659153,296.082377,2368.659014,-10342.289223
947.659473,2960.823768,3256.906145,-11108.384721
947.659793,3627.009116,3256.906145,-11184.994271
947.660113,3330.926739,2368.659014,-11108.384721
947.660433,2072.576638,296.082377,-9806.022374
947.660753,518.144159,-666.185348,-10418.898773
947.661072,1924.535449,740.205942,-10572.117872
947.661392,1850.514855,1406.391290,-11797.870669
947.661712,1998.556043,1776.494261,-10878.556072
947.662032,296.082377,370.102971,-10035.851024
947.662352,-1258.350101,-1702.473667,-9806.022374
947.662672,-1850.514855,-740.205942,-10035.851024
947.662992,-2442.679609,740.205942,-9729.412825
947.663312,-814.226536,518.144159,-9576.193725
947.663632,-1184.329507,-3701.029710,-9499.584175
947.663952,-444.123565,-2442.679609,-9652.803275
947.664272,-2590.720797,-2146.597232,-9652.803275
947.664591,0.000000,1110.308913,-9882.631924
947.664911,-740.205942,1776.494261,-9499.584175
947.665231,-518.144159,2072.576638,-10189.070123
947.665551,-592.164754,296.082377,-9576.193725
947.665871,-444.123565,-1850.514855,-10648.727422
947.666191,-888.247130,-3775.050304,-8810.098227
947.666511,-3849.070898,-2146.597232,-9346.365076
947.666831,-5329.482782,-1554.432478,-9882.631924
947.667151,-2960.823768,-666.185348,-9729.412825
947.667471,-2960.823768,-2146.597232,-9806.022374
947.667791,518.144159,-2812.782580,-10801.946522
947.668110,1998.556043,-1850.514855,-10035.851024
947.668430,3108.864956,370.102971,-11414.822920
947.668750,1776.494261,3182.885551,-10495.508323
947.669070,370.102971,4071.132681,-11338.213370
947.669390,-1110.308913,2738.761985,-10572.117872
947.669710,-666.185348,-1036.288319,-9652.803275
947.670030,1702.473667,-3627.009116,-10418.898773
947.670350,1628.453072,-4293.194464,-9959.241474
947.670670,0.000000,-3478.967927,-9806.022374
947.670990,-592.164754,1332.370696,-10265.679673
947.671310,2442.679609,1924.535449,-10189.070123
947.671629,3997.112087,3330.926739,-10725.336972
947.671949,1184.329507,1258.350101,-10265.679673
947.672269,2220.617826,1554.432478,-10189.070123
947.672589,2738.761985,1258.350101,-10112.460574
947.672909,6365.771101,1480.411884,-10418.898773
947.673229,4737.318029,-592.164754,-9882.631924
947.673549,1480.411884,-1258.350101,-9806.022374
947.673869,666.185348,-962.267725,-9729.412825
947.674189,2220.617826,814.226536,-9959.241474
947.674508,1998.556043,2812.782580,-9959.241474
947.674828,666.185348,2886.803174,-10189.070123
947.675148,0.000000,1480.411884,-9499.584175
947.675468,3182.885551,-370.102971,-10572.117872
947.675788,4515.256246,-666.185348,-9652.803275
947.676108,3182.885551,-1554.432478,-9499.584175
947.676428,1184.329507,2294.638420,-9269.755526
947.676748,1036.288319,4071.132681,-10189.070123
947.677068,3923.091493,2960.823768,-11031.775171
947.677388,2368.659014,-370.102971,-10035.851024
947.677707,-3330.926739,-4219.173869,-9422.974625
947.678027,-7254.018232,-4515.256246,-8350.440928
947.678347,-5847.626942,-2738.761985,-9269.755526
947.678667,-3552.988522,962.267725,-10495.508323
947.678987,-2146.597232,3627.009116,-9806.022374
947.679307,-2368.659014,3627.009116,-10572.117872
947.679627,-1036.288319,2146.597232,-10495.508323
947.679947,-444.123565,1332.370696,-10418.898773
947.680267,-1406.391290,1998.556043,-10725.336972
947.680587,-1258.350101,2368.659014,-10725.336972
947.680906,222.061783,1110.308913,-10342.289223
947.681226,1480.411884,-222.061783,-10495.508323
947.681546,592.164754,-888.247130,-10955.165621
947.681866,-1110.308913,74.020594,-10112.460574
947.682186,-2368.659014,2294.638420,-10572.117872
947.682506,-1258.350101,3775.050304,-10112.460574
947.682826,2960.823768,4145.153275,-10572.117872
947.683146,2886.803174,1406.391290,-11797.870669
947.683466,2220.617826,-518.144159,-9652.803275
947.683785,-1110.308913,296.082377,-10035.851024
947.684105,518.144159,1628.453072,-10418.898773
947.684425,962.267725,1332.370696,-10112.460574
947.684745,666.185348,0.000000,-10342.289223
947.685065,0.000000,-666.185348,-8733.488677
947.685385,740.205942,1554.432478,-9882.631924
947.685705,2072.576638,2368.659014,-10418.898773
947.686025,2738.761985,1036.288319,-10189.070123
947.686345,2442.679609,222.061783,-9806.022374
947.686665,0.000000,-592.164754,-9039.926876
947.686984,592.164754,-1998.556043,-9193.145976
947.687304,2960.823768,-2220.617826,-9422.974625
947.687624,4219.173869,-1110.308913,-10112.460574
947.687944,3108.864956,2368.659014,-10495.508323
947.688264,1554.432478,4145.153275,-9576.193725
947.688584,2294.638420,3330.926739,-9039.926876
947.688904,2738.761985,962.267725,-10112.460574
947.689224,962.267725,-1258.350101,-10572.117872
947.689544,-1628.453072,-2516.700203,-9806.022374
947.689863,-3701.029710,-2220.617826,-9269.755526
947.690183,-1480.411884,-666.185348,-9422.974625
947.690503,2442.679609,-888.247130,-10418.898773
947.690823,3182.885551,-370.102971,-10189.070123
947.691143,1480.411884,222.061783,-10418.898773
947.691463,-222.061783,2072.576638,-9806.022374
947.691783,-592.164754,2294.638420,-11031.775171
947.692103,2072.576638,2294.638420,-10878.556072
947.692423,1998.556043,-370.102971,-10495.508323
947.692743,740.205942,-1628.453072,-10265.679673
947.693062,-2368.659014,-3923.091493,-9806.022374
947.693382,-4219.173869,-4367.215058,-9729.412825
947.693702,-3108.864956,-3256.906145,-10648.727422
947.694022,-1702.473667,-518.144159,-9959.241474
947.694342,-1554.432478,1702.473667,-10495.508323
947.694662,-1110.308913,2146.597232,-10112.460574
947.694982,740.205942,148.041188,-10265.679673
947.695302,1406.391290,-296.082377,-11184.994271
947.695622,592.164754,-518.144159,-10265.679673
947.695942,-1110.308913,-1776.494261,-9193.145976
947.696261,-1406.391290,-1406.391290,-9959.241474
947.696581,-1184.329507,-518.144159,-9652.803275
947.696901,-962.267725,0.000000,-9959.241474
947.697221,-814.226536,-296.082377,-9193.145976
947.697541,-444.123565,-74.020594,-9116.536426
947.697861,1258.350101,-444.123565,-10035.851024
947.698181,3478.967927,-888.247130,-10342.289223
947.698501,3256.906145,-1258.350101,-8886.707777
947.698821,1110.308913,-2294.638420,-9576.193725
947.699140,-148.041188,-1036.288319,-9039.926876
947.699460,-814.226536,-666.185348,-10035.851024
947.699780,0.000000,518.144159,-10418.898773
947.700100,-296.082377,2220.617826,-9959.241474
947.700420,296.082377,3775.050304,-9806.022374
947.700740,2146.597232,1332.370696,-10189.070123
947.701060,4589.276840,0.000000,-11031.775171
947.701380,2738.761985,0.000000,-11797.870669
947.701700,148.041188,-444.123565,-10342.289223
947.702020,-518.144159,814.226536,-9499.584175
947.702339,1258.350101,1554.432478,-10495.508323
947.702659,2664.741391,3256.906145,-10495.508323
947.702979,2516.700203,2886.803174,-12027.699319
947.703299,3034.844362,2590.720797,-10418.898773
947.703619,4663.297435,1554.432478,-10648.727422
947.703939,4885.359217,-74.020594,-10725.336972
947.704259,2664.741391,-444.123565,-10725.336972
947.704579,-1406.391290,370.102971,-10035.851024
947.704899,-2220.617826,1924.535449,-9959.241474
947.705219,370.102971,1924.535449,-9882.631924
947.705538,2738.761985,592.164754,-10801.946522
947.705858,666.185348,740.205942,-10572.117872
947.706178,-1036.288319,962.267725,-9499.584175
947.706498,296.082377,2368.659014,-10035.851024
947.706818,2220.617826,1110.308913,-9806.022374
947.707138,1036.288319,1184.329507,-10112.460574
947.707458,-2590.720797,-666.185348,-10189.070123
947.707778,-4219.173869,-1258.350101,-8580.269578
947.708098,-2442.679609,-518.144159,-9269.755526
947.708417,1332.370696,518.144159,-9806.022374
947.708737,2368.659014,2886.803174,-10265.679673
947.709057,296.082377,3404.947333,-10725.336972
947.709377,-592.164754,2812.782580,-9499.584175
947.709697,-1406.391290,2960.823768,-9959.241474
947.710017,-1924.535449,1332.370696,-10112.460574
947.710337,-2368.659014,-592.164754,-9039.926876
947.710657,-3256.906145,-2368.659014,-9806.022374
947.710977,-2886.803174,-2220.617826,-9269.755526
947.711297,-1554.432478,-962.267725,-9269.755526
947.711616,0.000000,2146.597232,-10342.289223
947.711936,-74.020594,3404.947333,-10495.508323
947.712256,370.102971,4367.215058,-10342.289223
947.712576,1258.350101,888.247130,-10342.289223
947.712896,148.041188,-1036.288319,-9346.365076
947.713216,-2368.659014,-3404.947333,-9882.631924
947.713536,-3108.864956,-3775.050304,-10035.851024
947.713856,-1776.494261,-1554.432478,-9422.974625
947.714176,1924.535449,1480.411884,-10648.727422
947.714495,4145.153275,1998.556043,-10801.946522
947.714815,3923.091493,1998.556043,-11491.432470
947.715135,3997.112087,1036.288319,-10878.556072
947.715455,2886.803174,1110.308913,-10801.946522
947.715775,2368.659014,-370.102971,-10418.898773
947.716095,592.164754,-518.144159,-10801.946522
947.716415,0.000000,-2960.823768,-9806.022374
947.716735,1776.494261,-1480.411884,-10265.679673
947.717055,1554.432478,296.082377,-9959.241474
947.717375,3552.988522,1628.453072,-10725.336972
947.717694,3478.967927,148.041188,-11414.822920
947.718014,2960.823768,-370.102971,-10648.727422
947.718334,592.164754,-666.185348,-9116.536426
947.718654,-518.144159,-1776.494261,-9806.022374
947.718974,0.000000,-444.123565,-10112.460574
947.719294,2368.659014,296.082377,-10725.336972
947.719614,4367.215058,296.082377,-9806.022374
947.719934,4515.256246,1036.288319,-9882.631924
947.720254,4367.215058,370.102971,-9882.631924
947.720574,4441.235652,1850.514855,-10572.117872
947.720893,1924.535449,2220.617826,-10801.946522
947.721213,0.000000,814.226536,-9806.022374
947.721533,-3034.844362,-962.267725,-9806.022374
947.721853,-1332.370696,-2738.761985,-9806.022374
947.722173,-370.102971,-3034.844362,-9652.803275
947.722493,-666.185348,-2072.576638,-9959.241474
947.722813,-3034.844362,296.082377,-9346.365076
947.723133,-2146.597232,814.226536,-9422.974625
947.723453,962.267725,666.185348,-10878.556072
947.723772,2368.659014,814.226536,-10648.727422
947.724092,296.082377,1554.432478,-10342.289223
947.724412,-3034.844362,0.000000,-10265.679673
947.724732,-2590.720797,-592.164754,-9576.193725
947.725052,0.000000,222.061783,-10572.117872
947.725372,814.226536,1258.350101,-10418.898773
947.725692,-962.267725,2664.741391,-9959.241474
947.726012,-2294.638420,296.082377,-9269.755526
947.726332,-2368.659014,296.082377,-10572.117872
947.726652,-962.267725,-296.082377,-10265.679673
947.726971,-1184.329507,0.000000,-9959.241474
947.727291,-1776.494261,-2368.659014,-9116.536426
947.727611,-2146.597232,-1036.288319,-9422.974625
947.727931,-1184.329507,74.020594,-9882.631924
947.728251,1998.556043,1554.432478,-10418.898773
947.728571,1776.494261,2368.659014,-10495.508323
947.728891,592.164754,962.267725,-9959.241474
947.729211,370.102971,666.185348,-9882.631924
947.729531,0.000000,-148.041188,-10112.460574
947.729851,-2220.617826,0.000000,-9499.584175
947.730170,-2368.659014,-148.041188,-9959.241474
947.730490,370.102971,592.164754,-8963.317327
947.730810,1110.308913,-888.247130,-9729.412825
947.731130,2368.659014,-148.041188,-9882.631924
947.731450,2146.597232,592.164754,-10189.070123
947.731770,1998.556043,1924.535449,-9806.022374
947.732090,3256.906145,3552.988522,-11031.775171
947.732410,3849.070898,4071.132681,-10878.556072
947.732730,1110.308913,2664.741391,-10648.727422
947.733049,0.000000,962.267725,-10648.727422
947.733369,1850.514855,-1036.288319,-9576.193725
947.733689,1850.514855,-1258.350101,-11414.822920
947.734009,3034.844362,370.102971,-10189.070123
947.734329,2146.597232,1406.391290,-10878.556072
947.734649,2664.741391,3108.864956,-10955.165621
947.734969,3849.070898,4219.173869,-10878.556072
947.735289,3775.050304,3256.906145,-11184.994271
947.735609,2072.576638,1776.494261,-10265.679673
947.735929,1332.370696,222.061783,-10418.898773
947.736248,296.082377,-592.164754,-10035.851024
947.736568,148.041188,-888.247130,-9422.974625
947.736888,2738.761985,370.102971,-10035.851024
947.737208,3552.988522,592.164754,-10265.679673
947.737528,1184.329507,1110.308913,-10035.851024
947.737848,-2516.700203,222.061783,-9499.584175
947.738168,-3552.988522,-592.164754,-8886.707777
947.738488,-1702.473667,-1036.288319,-8656.879127
947.738808,1184.329507,-2590.720797,-8886.707777
947.739127,-1406.391290,-2664.741391,-9116.536426
947.739447,-1998.556043,-814.226536,-9422.974625
947.739767,-962.267725,2146.597232,-9729.412825
947.740087,666.185348,3997.112087,-10955.165621
947.740407,222.061783,3701.029710,-10112.460574
947.740727,-1850.514855,1998.556043,-9882.631924
947.741047,-814.226536,-518.144159,-10342.289223
947.741367,740.205942,-2294.638420,-10265.679673
947.741687,74.020594,-1998.556043,-9882.631924
947.742007,-2072.576638,-1258.350101,-10572.117872
947.742326,-2960.823768,74.020594,-10189.070123
947.742646,-1406.391290,1628.453072,-10572.117872
947.742966,1702.473667,2368.659014,-10725.336972
947.743286,1998.556043,2960.823768,-10648.727422
947.743606,1258.350101,1924.535449,-12027.699319
947.743926,1480.411884,-148.041188,-10342.289223
947.744246,2664.741391,-370.102971,-10189.070123
947.744566,2590.720797,444.123565,-10878.556072
947.744886,518.144159,1554.432478,-10495.508323
947.745206,-2146.597232,3034.844362,-10725.336972
947.745525,-2960.823768,2590.720797,-10265.679673
947.745845,296.082377,1702.473667,-9806.022374
947.746165,2812.782580,740.205942,-10648.727422
947.746485,2220.617826,-370.102971,-9576.193725
947.746805,2960.823768,-740.205942,-9346.365076
947.747125,3552.988522,-370.102971,-10189.070123
947.747445,4885.359217,1924.535449,-9499.584175
947.747765,1850.514855,3330.926739,-10035.851024
947.748085,1480.411884,2812.782580,-9193.145976
947.748404,3034.844362,962.267725,-8733.488677
947.748724,5847.626942,-888.247130,-9729.412825
947.749044,6143.709319,-1036.288319,-9652.803275
947.749364,4219.173869,-518.144159,-9576.193725
947.749684,3627.009116,1332.370696,-9806.022374
947.750004,2368.659014,2368.659014,-9652.803275
947.750324,1110.308913,3775.050304,-10265.679673
947.750644,370.102971,4589.276840,-10725.336972
947.750964,2294.638420,3923.091493,-11184.994271
947.751284,2294.638420,3330.926739,-10495.508323
947.751603,1332.370696,2590.720797,-10265.679673
947.751923,1554.432478,1406.391290,-10418.898773
947.752243,2294.638420,1036.288319,-10112.460574
947.752563,2368.659014,1776.494261,-10648.727422
947.752883,0.000000,2960.823768,-10801.946522
947.753203,-296.082377,2220.617826,-10725.336972
947.753523,222.061783,2590.720797,-10572.117872
947.753843,666.185348,2368.659014,-10572.117872
947.754163,-444.123565,2738.761985,-9806.022374
947.754483,-962.267725,962.267725,-10112.460574
947.754802,1776.494261,148.041188,-10035.851024
947.755122,4737.318029,888.247130,-10955.165621
947.755442,4737.318029,3182.885551,-9806.022374
947.755762,592.164754,3627.009116,-9882.631924
947.756082,-2738.761985,2294.638420,-10112.460574
947.756402,-1776.494261,814.226536,-9039.926876
947.756722,-296.082377,0.000000,-9806.022374
947.757042,1850.514855,592.164754,-8886.707777
947.757362,740.205942,1480.411884,-9269.755526
947.757681,370.102971,1924.535449,-10112.460574
947.758001,1110.308913,1110.308913,-8886.707777
947.758321,3627.009116,2220.617826,-9806.022374
947.758641,5107.421000,1776.494261,-9346.365076
947.758961,4219.173869,1184.329507,-9193.145976
947.759281,1776.494261,888.247130,-10572.117872
947.759601,2664.741391,740.205942,-9039.926876
947.759921,4071.132681,2738.761985,-10418.898773
947.760241,5699.585753,3478.967927,-10342.289223
947.760561,4071.132681,3849.070898,-9729.412825
947.760880,2442.679609,3256.906145,-11261.603821
947.761200,3182.885551,3552.988522,-10801.946522
947.761520,4071.132681,2368.659014,-10878.556072
947.761840,3849.070898,2368.659014,-10878.556072
947.762160,2664.741391,2664.741391,-10189.070123
947.762480,2072.576638,3627.009116,-10801.946522
947.762800,3256.906145,5773.606348,-12104.308868
947.763120,4515.256246,5181.441594,-10572.117872
947.763440,4441.235652,3552.988522,-10572.117872
947.763759,4367.215058,888.247130,-11031.775171
947.764079,5403.503377,-592.164754,-9959.241474
947.764399,3701.029710,1850.514855,-10648.727422
947.764719,2516.700203,3256.906145,-10725.336972
947.765039,2738.761985,4071.132681,-10035.851024
947.765359,3034.844362,4071.132681,-10572.117872
947.765679,3997.112087,2220.617826,-10265.679673
947.765999,3404.947333,1702.473667,-9422.974625
947.766319,2368.659014,2368.659014,-9959.241474
947.766639,2146.597232,2294.638420,-9882.631924
947.766958,2146.597232,2516.700203,-8810.098227
947.767278,1036.288319,2590.720797,-9116.536426
947.767598,962.267725,1776.494261,-8963.317327
947.767918,1258.350101,1110.308913,-9039.926876
947.768238,2294.638420,666.185348,-8810.098227
947.768558,2886.803174,2368.659014,-9806.022374
947.768878,2812.782580,4219.173869,-10112.460574
947.769198,2072.576638,4885.359217,-9806.022374
947.769518,814.226536,5255.462188,-9193.145976
947.769838,2072.576638,3627.009116,-9346.365076
947.770158,2516.700203,1776.494261,-10035.851024
947.770478,1850.514855,888.247130,-9806.022374
947.770797,666.185348,1036.288319,-10112.460574
947.771117,296.082377,2072.576638,-10418.898773
947.771437,-592.164754,4219.173869,-9882.631924
947.771757,-814.226536,5033.400406,-10495.508323
947.772077,444.123565,4367.215058,-10648.727422
947.772397,1110.308913,2812.782580,-10801.946522
947.772717,2368.659014,1628.453072,-10725.336972
947.773037,2072.576638,2146.597232,-10572.117872
947.773357,2294.638420,2886.803174,-11031.775171
947.773677,1258.350101,4071.132681,-10648.727422
947.773997,148.041188,4811.338623,-10418.898773
947.774317,222.061783,4663.297435,-10342.289223
947.774637,1332.370696,3627.009116,-10878.556072
947.774957,2590.720797,2516.700203,-10495.508323
947.775277,1924.535449,1258.350101,-9959.241474
947.775597,2146.597232,814.226536,-9806.022374
947.775917,3108.864956,1332.370696,-9882.631924
947.776237,2294.638420,2812.782580,-9882.631924
947.776557,1258.350101,4071.132681,-10189.070123
947.776877,1850.514855,4737.318029,-9422.974625
947.777197,4219.173869,3478.967927,-9959.241474
947.777517,5329.482782,2738.761985,-9806.022374
947.777836,4515.256246,2146.597232,-9959.241474
947.778156,2960.823768,1998.556043,-9193.145976
947.778476,3404.947333,2220.617826,-9652.803275
947.778796,3701.029710,2442.679609,-9959.241474
947.779116,2072.576638,1776.494261,-9806.022374
947.779436,1258.350101,1184.329507,-9116.536426
947.779756,3108.864956,888.247130,-10725.336972
947.780076,5995.668130,1702.473667,-10342.289223
947.780396,6587.832884,2664.741391,-10342.289223
947.780716,4663.297435,3997.112087,-10342.289223
947.781036,4367.215058,4515.256246,-10189.070123
947.781356,4959.379811,4367.215058,-10572.117872
947.781676,5921.647536,4441.235652,-11031.775171
947.781996,3404.947333,3108.864956,-10878.556072
947.782316,1332.370696,2442.679609,-10418.898773
947.782636,740.205942,740.205942,-10418.898773
947.782956,1332.370696,1332.370696,-10495.508323
947.783276,1776.494261,888.247130,-10035.851024
947.783596,1110.308913,814.226536,-10112.460574
947.783916,888.247130,1998.556043,-10418.898773
947.784236,2368.659014,2516.700203,-9806.022374
947.784556,2368.659014,3997.112087,-10342.289223
947.784875,3330.926739,4589.276840,-10801.946522
947.785195,2590.720797,3923.091493,-9959.241474
947.785515,1036.288319,2812.782580,-10495.508323
947.785835,888.247130,1406.391290,-9652.803275
947.786155,518.144159,666.185348,-9806.022374
947.786475,1110.308913,444.123565,-9959.241474
947.786795,962.267725,370.102971,-9346.365076
947.787115,-518.144159,1406.391290,-9806.022374
947.787435,-1776.494261,1702.473667,-9422.974625
947.787755,-1184.329507,1776.494261,-9346.365076
947.788075,1480.411884,1924.535449,-10572.117872
947.788395,3997.112087,1554.432478,-10189.070123
947.788715,4219.173869,1850.514855,-10112.460574
947.789035,2220.617826,3034.844362,-10418.898773
947.789355,444.123565,3775.050304,-9882.631924
947.789675,296.082377,3775.050304,-9806.022374
947.789995,1480.411884,2368.659014,-10265.679673
947.790315,2368.659014,296.082377,-9729.412825
947.790635,2146.597232,-148.041188,-9806.022374
947.790955,1998.556043,1110.308913,-10189.070123
947.791275,2294.638420,3256.906145,-10418.898773
947.791595,962.267725,5033.400406,-10648.727422
947.791914,1702.473667,4959.379811,-9959.241474
947.792234,3256.906145,3552.988522,-10725.336972
947.792554,4663.297435,1628.453072,-10648.727422
947.792874,3478.967927,1480.411884,-10418.898773
947.793194,2442.679609,2664.741391,-10495.508323
947.793514,2516.700203,3849.070898,-10572.117872
947.793834,2960.823768,4145.153275,-10265.679673
947.794154,2368.659014,3182.885551,-9806.022374
947.794474,2442.679609,1554.432478,-9806.022374
947.794794,3182.885551,592.164754,-10035.851024
947.795114,3775.050304,1184.329507,-9806.022374
947.795434,3997.112087,2442.679609,-8963.317327
947.795754,3997.112087,3997.112087,-10112.460574
947.796074,4737.318029,4663.297435,-10035.851024
947.796394,3997.112087,4589.276840,-10265.679673
947.796714,1924.535449,4145.153275,-9729.412825
947.797034,592.164754,2664.741391,-10112.460574
947.797354,1332.370696,1036.288319,-9576.193725
947.797674,2960.823768,-222.061783,-9806.022374
947.797994,3552.988522,-222.061783,-9652.803275
947.798314,2664.741391,1184.329507,-9729.412825
947.798634,2516.700203,3404.947333,-9576.193725
947.798953,3923.091493,5995.668130,-9806.022374
947.799273,5477.523971,6661.853478,-10418.898773
947.799593,5551.544565,5329.482782,-9576.193725
947.799913,4145.153275,3034.844362,-9959.241474
947.800233,1628.453072,962.267725,-9806.022374
947.800553,-444.123565,370.102971,-9652.803275
947.800873,-1184.329507,962.267725,-9652.803275
947.801193,222.061783,1480.411884,-9422.974625
947.801513,1628.453072,2072.576638,-9576.193725
947.801833,1924.535449,2812.782580,-10189.070123
947.802153,2442.679609,3552.988522,-10265.679673
947.802473,3849.070898,4885.359217,-10572.117872
947.802793,5255.462188,5551.544565,-10572.117872
947.803113,5255.462188,5329.482782,-10342.289223
947.803433,4145.153275,3923.091493,-10342.289223
947.803753,2294.638420,2738.761985,-10342.289223
947.804073,1110.308913,2590.720797,-9959.241474
947.804393,74.020594,3182.885551,-10342.289223
947.804713,-740.205942,3775.050304,-10265.679673
947.805033,-1110.308913,2516.700203,-10035.851024
947.805353,-1480.411884,2072.576638,-10112.460574
947.805672,-962.267725,444.123565,-9576.193725
947.805992,666.185348,592.164754,-9269.755526
947.806312,2664.741391,1480.411884,-9806.022374
947.806632,4441.235652,3182.885551,-9806.022374
947.806952,4885.359217,4663.297435,-10189.070123
947.807272,5551.544565,5255.462188,-10342.289223
947.807592,4441.235652,5477.523971,-10418.898773
947.807912,3108.864956,4441.235652,-10495.508323
947.808232,2442.679609,2886.803174,-10342.289223
947.808552,1036.288319,1480.411884,-9959.241474
947.808872,370.102971,222.061783,-9652.803275
947.809192,-962.267725,-518.144159,-9269.755526
947.809512,-1110.308913,-148.041188,-9576.193725
947.809832,74.020594,740.205942,-9806.022374
947.810152,1776.494261,2146.597232,-9806.022374
947.810472,3997.112087,3256.906145,-9959.241474
947.810792,5773.606348,3108.864956,-10189.070123
947.811112,7179.997637,2368.659014,-9959.241474
947.811432,6365.771101,1924.535449,-9959.241474
947.811752,3478.967927,1850.514855,-10342.289223
947.812072,962.267725,1776.494261,-10189.070123
947.812392,0.000000,1258.350101,-9806.022374
947.812711,-296.082377,518.144159,-10035.851024
947.813031,-1184.329507,-148.041188,-9959.241474
947.813351,-444.123565,-888.247130,-10265.679673
947.813671,370.102971,-888.247130,-10035.851024
947.813991,1554.432478,740.205942,-9729.412825
947.814311,2220.617826,2220.617826,-10495.508323
947.814631,3478.967927,3478.967927,-10342.289223
947.814951,3997.112087,4219.173869,-10801.946522
947.815271,3775.050304,3923.091493,-10648.727422
947.815591,3182.885551,3256.906145,-10418.898773
947.815911,2294.638420,2294.638420,-10265.679673
947.816231,1480.411884,1480.411884,-10572.117872
947.816551,370.102971,518.144159,-10189.070123
947.816871,-222.061783,370.102971,-9959.241474
947.817191,296.082377,592.164754,-9729.412825
947.817511,1702.473667,1184.329507,-10112.460574
947.817831,2590.720797,2072.576638,-9882.631924
947.818151,3775.050304,3182.885551,-10189.070123
947.818471,5255.462188,3627.009116,-10035.851024
947.818791,6735.874072,4367.215058,-10189.070123
947.819111,7772.162391,4737.318029,-10265.679673
947.819431,7105.977043,5329.482782,-10342.289223
947.819750,4959.379811,5329.482782,-12180.918418
947.820070,2294.638420,5033.400406,-10342.289223
947.820390,-148.041188,3923.091493,-10035.851024
947.820710,-1036.288319,1776.494261,-9959.241474
947.821030,-370.102971,0.000000,-9346.365076
947.821350,1036.288319,-740.205942,-10112.460574
947.821670,1924.535449,222.061783,-9422.974625
947.821990,3849.070898,2886.803174,-9882.631924
947.822310,5329.482782,5995.668130,-10035.851024
947.822630,6809.894666,7402.059420,-10418.898773
947.822950,6735.874072,7994.224174,-10495.508323
947.823270,5773.606348,7254.018232,-10648.727422
947.823590,4515.256246,5033.400406,-10418.898773
947.823910,3330.926739,3478.967927,-10265.679673
947.824230,2516.700203,2368.659014,-10112.460574
947.824550,-222.061783,2812.782580,-9882.631924
947.824870,-2812.782580,3404.947333,-9882.631924
947.825190,-3923.091493,3701.029710,-9729.412825
947.825510,-2516.700203,3404.947333,-9729.412825
947.825830,814.226536,2590.720797,-9959.241474
947.826150,2368.659014,2220.617826,-10112.460574
947.826470,2886.803174,2368.659014,-9729.412825
947.826789,3552.988522,2960.823768,-9576.193725
947.827109,4219.173869,4959.379811,-10265.679673
947.827429,5625.565159,5995.668130,-10112.460574
947.827749,5181.441594,6143.709319,-10801.946522
947.828069,2516.700203,5181.441594,-10725.336972
947.828389,-888.247130,3330.926739,-10572.117872
947.828709,-3108.864956,2442.679609,-9959.241474
947.829029,-2442.679609,666.185348,-9729.412825
947.829349,-1332.370696,-222.061783,-9422.974625
947.829669,-814.226536,0.000000,-8197.221829
947.829989,444.123565,666.185348,-9422.974625
947.830309,3404.947333,3034.844362,-9806.022374
947.830629,6291.750507,5181.441594,-10418.898773
947.830949,6513.812290,7031.956449,-10572.117872
947.831269,5625.565159,7031.956449,-9959.241474
947.831589,4441.235652,5477.523971,-10112.460574
947.831909,3182.885551,2664.741391,-10112.460574
947.832229,2072.576638,0.000000,-9576.193725
947.832549,1036.288319,-444.123565,-9116.536426
947.832869,888.247130,-1258.350101,-9882.631924
947.833189,296.082377,-74.020594,-9806.022374
947.833509,-518.144159,1850.514855,-9882.631924
947.833828,1036.288319,3404.947333,-10112.460574
947.834148,4367.215058,3701.029710,-9806.022374
947.834468,6513.812290,2812.782580,-10112.460574
947.834788,7994.224174,1924.535449,-10572.117872
947.835108,7624.121203,1924.535449,-10801.946522
947.835428,6143.709319,3034.844362,-10265.679673
947.835748,4145.153275,3552.988522,-10572.117872
947.836068,1924.535449,3552.988522,-10265.679673
947.836388,444.123565,1850.514855,-10265.679673
947.836708,0.000000,-518.144159,-9576.193725
947.837028,0.000000,-1998.556043,-10112.460574
947.837348,-74.020594,-2220.617826,-9652.803275
947.837668,-592.164754,-814.226536,-9346.365076
947.837988,888.247130,370.102971,-9882.631924
947.838308,3627.009116,1480.411884,-9806.022374
947.838628,4885.359217,2442.679609,-10112.460574
947.838948,5773.606348,3330.926739,-10648.727422
947.839268,5847.626942,3478.967927,-10572.117872
947.839588,4145.153275,4589.276840,-10572.117872
947.839908,3182.885551,3478.967927,-10648.727422
947.840228,1850.514855,2146.597232,-9959.241474
947.840547,-592.164754,666.185348,-10418.898773
947.840867,-3182.885551,-1184.329507,-9806.022374
947.841187,-5699.585753,-1332.370696,-9269.755526
947.841507,-4663.297435,-1480.411884,-9499.584175
947.841827,-222.061783,-888.247130,-9269.755526
947.842147,3701.029710,370.102971,-9806.022374
947.842467,4885.359217,2368.659014,-12027.699319
947.842787,4589.276840,4071.132681,-10189.070123
947.843107,3849.070898,5551.544565,-10495.508323
947.843427,4885.359217,5921.647536,-11338.213370
947.843747,4367.215058,4811.338623,-10112.460574
947.844067,1554.432478,3182.885551,-12027.699319
947.844387,-814.226536,1110.308913,-9806.022374
947.844707,-1628.453072,-296.082377,-9576.193725
947.845027,-1332.370696,74.020594,-10189.070123
947.845347,-962.267725,148.041188,-9806.022374
947.845667,-1628.453072,1406.391290,-9576.193725
947.845987,0.000000,2442.679609,-9806.022374
947.846307,4219.173869,2664.741391,-9499.584175
947.846627,7105.977043,3923.091493,-10265.679673
947.846947,7994.224174,4071.132681,-10572.117872
947.847267,6217.729913,6291.750507,-10189.070123
947.847586,5847.626942,6291.750507,-10572.117872
947.847906,6069.688724,5699.585753,-10648.727422
947.848226,5329.482782,3997.112087,-10418.898773
947.848546,2442.679609,2960.823768,-10035.851024
947.848866,370.102971,2664.741391,-10112.460574
947.849186,74.020594,2442.679609,-9652.803275
947.849506,-962.267725,1998.556043,-9806.022374
947.849826,-888.247130,1258.350101,-9193.145976
947.850146,1406.391290,1258.350101,-9499.584175
947.850466,5625.565159,2368.659014,-9576.193725
947.850786,7402.059420,4367.215058,-9959.241474
947.851106,6587.832884,6883.915261,-10418.898773
947.851426,6587.832884,7772.162391,-10342.289223
947.851746,6957.935855,7254.018232,-10955.165621
947.852066,5403.503377,5181.441594,-10648.727422
947.852386,2590.720797,3256.906145,-9499.584175
947.852706,-444.123565,1554.432478,-10342.289223
947.853026,-1036.288319,296.082377,-9806.022374
947.853346,-1924.535449,666.185348,-9499.584175
947.853666,-1924.535449,592.164754,-9806.022374
947.853986,0.000000,1184.329507,-9193.145976
947.854306,1850.514855,1776.494261,-10035.851024
947.854625,3108.864956,3404.947333,-10035.851024
947.854945,3849.070898,4885.359217,-10265.679673
947.855265,4589.276840,6365.771101,-9882.631924
947.855585,6143.709319,5255.462188,-10342.289223
947.855905,5847.626942,5107.421000,-10495.508323
947.856225,2738.761985,4145.153275,-11184.994271
947.856545,-888.247130,2220.617826,-9806.022374
947.856865,-1924.535449,1998.556043,-9116.536426
947.857185,-1702.473667,518.144159,-10342.289223
947.857505,-1258.350101,222.061783,-9652.803275
947.857825,-1998.556043,148.041188,-9422.974625
947.858145,-814.226536,1184.329507,-9269.755526
947.858465,1850.514855,2072.576638,-10035.851024
947.858785,3627.009116,4219.173869,-10112.460574
947.859105,5033.400406,4811.338623,-10725.336972
947.859425,5551.544565,4663.297435,-10035.851024
947.859745,5625.565159,4219.173869,-9806.022374
947.860065,5847.626942,3552.988522,-10265.679673
947.860385,4885.359217,3552.988522,-9882.631924
947.860705,2368.659014,2738.761985,-9882.631924
947.861025,370.102971,2072.576638,-9652.803275
947.861345,-1036.288319,-814.226536,-10725.336972
947.861664,-2220.617826,-2220.617826,-8886.707777
947.861984,-1110.308913,-3034.844362,-9806.022374
947.862304,1702.473667,74.020594,-9806.022374
947.862624,3108.864956,4293.194464,-10189.070123
947.862944,3256.906145,6587.832884,-10801.946522
947.863264,5995.668130,7031.956449,-11568.042020
947.863584,6957.935855,5625.565159,-10342.289223
947.863904,5255.462188,4441.235652,-10265.679673
947.864224,4737.318029,1850.514855,-10801.946522
947.864544,2738.761985,1628.453072,-9806.022374
947.864864,1480.411884,1258.350101,-10418.898773
947.865184,1184.329507,74.020594,-10035.851024
947.865504,1776.494261,-1702.473667,-9652.803275
947.865824,518.144159,-370.102971,-10572.117872
947.866144,-148.041188,740.205942,-9729.412825
947.866464,666.185348,3182.885551,-9499.584175
947.866784,2812.782580,4515.256246,-10801.946522
947.867104,5847.626942,2886.803174,-10035.851024
947.867424,6957.935855,740.205942,-9576.193725
947.867744,4885.359217,222.061783,-10878.556072
947.868064,4145.153275,74.020594,-9193.145976
947.868384,2368.659014,1480.411884,-9806.022374
947.868703,1036.288319,2664.741391,-10112.460574
947.869023,1258.350101,1480.411884,-9499.584175
947.869343,1332.370696,444.123565,-9882.631924
947.869663,3034.844362,-1998.556043,-10342.289223
947.869983,1702.473667,-1480.411884,-9499.584175
947.870303,740.205942,-148.041188,-10495.508323
947.870623,592.164754,1776.494261,-9576.193725
947.870943,1110.308913,3404.947333,-10035.851024
947.871263,2294.638420,4071.132681,-10112.460574
947.871583,3182.885551,3182.885551,-10189.070123
947.871903,3330.926739,2738.761985,-10648.727422
947.872223,1850.514855,2368.659014,-10342.289223
947.872543,0.000000,2146.597232,-9652.803275
947.872863,-1776.494261,888.247130,-10572.117872
947.873183,-1036.288319,-444.123565,-9729.412825
947.873503,-2368.659014,-296.082377,-9806.022374
947.873823,-2442.679609,888.247130,-9652.803275
947.874143,-1406.391290,2738.761985,-9806.022374
947.874462,2368.659014,3923.091493,-11338.213370
947.874782,4885.359217,2812.782580,-11108.384721
947.875102,4219.173869,2146.597232,-9806.022374
947.875422,1480.411884,2960.823768,-11951.089769
947.875742,222.061783,2368.659014,-10572.117872
947.876062,592.164754,4219.173869,-10342.289223
947.876382,888.247130,4663.297435,-11644.651570
947.876702,222.061783,3627.009116,-9652.803275
947.877022,74.020594,666.185348,-10035.851024
947.877342,-1406.391290,-518.144159,-9959.241474
947.877662,-3108.864956,0.000000,-9422.974625
947.877982,-2812.782580,666.185348,-10418.898773
947.878302,666.185348,1554.432478,-9269.755526
947.878622,3404.947333,740.205942,-9193.145976
947.878942,3701.029710,370.102971,-9499.584175
947.879262,2590.720797,740.205942,-9806.022374
947.879582,2072.576638,592.164754,-11491.432470
947.879901,1554.432478,1184.329507,-9499.584175
947.880221,1036.288319,2368.659014,-9422.974625
947.880541,1998.556043,2886.803174,-9652.803275
947.880861,4145.153275,2220.617826,-9729.412825
947.881181,4441.235652,1110.308913,-10035.851024
947.881501,2516.700203,518.144159,-9422.974625
947.881821,1628.453072,-1258.350101,-9039.926876
947.882141,148.041188,-1184.329507,-8810.098227
947.882461,-1110.308913,-2590.720797,-10189.070123
947.882781,-2368.659014,-592.164754,-9652.803275
947.883101,-1480.411884,814.226536,-10265.679673
947.883421,1332.370696,2368.659014,-10035.851024
947.883741,2738.761985,2146.597232,-10955.165621
947.884061,3552.988522,1628.453072,-10572.117872
947.884381,4145.153275,222.061783,-11491.432470
947.884701,4071.132681,-1258.350101,-11184.994271
947.885021,3108.864956,-740.205942,-11031.775171
947.885340,-592.164754,1406.391290,-11261.603821
947.885660,-1332.370696,3701.029710,-11414.822920
947.885980,740.205942,5403.503377,-11414.822920
947.886300,1850.514855,3849.070898,-11797.870669
947.886620,1110.308913,-222.061783,-10572.117872
947.886940,0.000000,-1924.535449,-10418.898773
947.887260,-296.082377,-3775.050304,-10725.336972
947.887580,888.247130,-2368.659014,-9806.022374
947.887900,-1036.288319,-222.061783,-10189.070123
947.888220,-1110.308913,592.164754,-9346.365076
947.888540,-1406.391290,666.185348,-8963.317327
947.888860,-370.102971,1258.350101,-10112.460574
947.889180,-1776.494261,592.164754,-9269.755526
947.889500,-2516.700203,-1258.350101,-9116.536426
947.889820,-888.247130,-2590.720797,-8810.098227
947.890140,0.000000,-2960.823768,-8580.269578
947.890459,518.144159,-1406.391290,-9346.365076
947.890779,-962.267725,-518.144159,-8656.879127
947.891099,-962.267725,-814.226536,-9039.926876
947.891419,-296.082377,-444.123565,-9039.926876
947.891739,1110.308913,518.144159,-10189.070123
947.892059,-1628.453072,1480.411884,-9652.803275
947.892379,-2368.659014,1480.411884,-10112.460574
947.892699,-962.267725,1332.370696,-10189.070123
947.893019,1850.514855,370.102971,-11184.994271
947.893339,2516.700203,666.185348,-10801.946522
947.893659,-444.123565,-296.082377,-11031.775171
947.893979,-1776.494261,0.000000,-10955.165621
947.894299,-1628.453072,-370.102971,-10265.679673
947.894619,-518.144159,-370.102971,-10572.117872
947.894939,148.041188,814.226536,-10878.556072
947.895259,2294.638420,1036.288319,-11568.042020
947.895579,-1036.288319,1628.453072,-10878.556072
947.895898,2960.823768,1184.329507,-10572.117872
947.896218,4293.194464,2146.597232,-10801.946522
947.896538,4589.276840,74.020594,-10955.165621
947.896858,-1258.350101,-2146.597232,-8656.879127
947.897178,-740.205942,-2590.720797,-10418.898773
947.897498,814.226536,-1924.535449,-9039.926876
947.897818,1406.391290,296.082377,-10495.508323
947.898138,1554.432478,1406.391290,-10265.679673
947.898458,1702.473667,1406.391290,-9193.145976
947.898778,3108.864956,814.226536,-9806.022374
947.899098,3849.070898,0.000000,-9499.584175
947.899418,2146.597232,-370.102971,-10189.070123
947.899738,740.205942,0.000000,-9806.022374
947.900058,518.144159,-814.226536,-9039.926876
947.900378,370.102971,-1554.432478,-9576.193725
947.900698,1924.535449,-1110.308913,-9806.022374
947.901018,888.247130,-444.123565,-10725.336972
947.901337,1258.350101,1036.288319,-9806.022374
947.901657,2368.659014,3182.885551,-10265.679673
947.901977,74.020594,2886.803174,-10265.679673
947.902297,740.205942,1702.473667,-10112.460574
947.902617,296.082377,-1998.556043,-9959.241474
947.902937,-296.082377,-3404.947333,-9576.193725
947.903257,592.164754,-2368.659014,-10342.289223
947.903577,296.082377,666.185348,-10418.898773
947.903897,-1776.494261,4663.297435,-10801.946522
947.904217,-1110.308913,4589.276840,-11184.994271
947.904537,1850.514855,4293.194464,-11031.775171
947.904857,2368.659014,1850.514855,-11414.822920
947.905177,1036.288319,-296.082377,-11644.651570
947.905497,-962.267725,-1036.288319,-10648.727422
947.905817,-2368.659014,-1554.432478,-9882.631924
947.906137,-1332.370696,74.020594,-9806.022374
947.906456,-1258.350101,1776.494261,-10035.851024
947.906776,-1184.329507,3552.988522,-10418.898773
947.907096,-518.144159,2812.782580,-10265.679673
947.907416,1184.329507,2220.617826,-10418.898773
947.907736,3552.988522,1036.288319,-10955.165621
947.908056,1036.288319,-370.102971,-9193.145976
947.908376,-2664.741391,-518.144159,-9882.631924
947.908696,-3256.906145,-148.041188,-9116.536426
947.909016,-1628.453072,1110.308913,-9576.193725
947.909336,0.000000,2072.576638,-10342.289223
947.909656,0.000000,1036.288319,-9806.022374
947.909976,-2220.617826,-518.144159,-10189.070123
947.910296,-1998.556043,-2664.741391,-9346.365076
947.910616,-666.185348,-1850.514855,-9422.974625
947.910936,888.247130,518.144159,-10418.898773
947.911256,2590.720797,2072.576638,-10265.679673
947.911576,2368.659014,2516.700203,-10878.556072
947.911895,1036.288319,3108.864956,-10265.679673
947.912215,1776.494261,3404.947333,-9806.022374
947.912535,5255.462188,888.247130,-10648.727422
947.912855,6217.729913,-1480.411884,-10878.556072
947.913175,3627.009116,-3404.947333,-10342.289223
947.913495,1184.329507,-3404.947333,-9499.584175
947.913815,-370.102971,-1110.308913,-9193.145976
947.914135,2368.659014,888.247130,-10035.851024
947.914455,4367.215058,2960.823768,-10955.165621
947.914775,3627.009116,2812.782580,-10418.898773
947.915095,1776.494261,1036.288319,-9652.803275
947.915415,148.041188,-1258.350101,-10342.289223
947.915735,1258.350101,-2146.597232,-9806.022374
947.916055,1924.535449,-2368.659014,-10189.070123
947.916375,370.102971,-1332.370696,-9269.755526
947.916695,888.247130,-1184.329507,-9729.412825
947.917014,296.082377,962.267725,-9806.022374
947.917334,518.144159,1850.514855,-10418.898773
947.917654,1702.473667,444.123565,-10112.460574
947.917974,2368.659014,296.082377,-9729.412825
947.918294,296.082377,-1702.473667,-9806.022374
947.918614,444.123565,-1332.370696,-10189.070123
947.918934,-148.041188,-296.082377,-10265.679673
947.919254,-518.144159,1184.329507,-10342.289223
947.919574,-2294.638420,888.247130,-9729.412825
947.919894,-2886.803174,0.000000,-9806.022374
947.920214,-2368.659014,-296.082377,-10112.460574
947.920534,-2146.597232,-1110.308913,-9729.412825
947.920854,-1480.411884,-1628.453072,-9882.631924
947.921174,-370.102971,-1628.453072,-9652.803275
947.921494,296.082377,-1406.391290,-10112.460574
947.921814,592.164754,-296.082377,-11031.775171
947.922134,-222.061783,1110.308913,-10189.070123
947.922453,-1406.391290,1480.411884,-10495.508323
947.922773,-1998.556043,1110.308913,-10648.727422
947.923093,-888.247130,814.226536,-10648.727422
947.923413,-2368.659014,1184.329507,-11414.822920
947.923733,-2516.700203,1036.288319,-11031.775171
947.924053,-888.247130,0.000000,-10035.851024
947.924373,0.000000,-2368.659014,-10878.556072
947.924693,148.041188,-2516.700203,-9652.803275
947.925013,-1850.514855,-2368.659014,-10035.851024
947.925333,-2664.741391,-296.082377,-9806.022374
947.925653,-592.164754,1628.453072,-9806.022374
947.925973,4367.215058,2812.782580,-10035.851024
947.926293,5551.544565,1776.494261,-10342.289223
947.926613,3627.009116,-518.144159,-10035.851024
947.926933,1480.411884,-2368.659014,-9346.365076
947.927253,666.185348,-3182.885551,-9576.193725
947.927573,1924.535449,-2146.597232,-9806.022374
947.927892,444.123565,-740.205942,-8963.317327
947.928212,-1406.391290,592.164754,-9422.974625
947.928532,296.082377,592.164754,-9882.631924
947.928852,3108.864956,148.041188,-9882.631924
947.929172,4145.153275,0.000000,-10035.851024
947.929492,2590.720797,1036.288319,-9882.631924
947.929812,2220.617826,2220.617826,-9806.022374
947.930132,3552.988522,1850.514855,-10572.117872
947.930452,5329.482782,0.000000,-10035.851024
947.930772,3701.029710,0.000000,-10648.727422
947.931092,-1332.370696,0.000000,-10265.679673
947.931412,-1850.514855,1184.329507,-10189.070123
947.931732,-1184.329507,2368.659014,-10418.898773
947.932052,2516.700203,3552.988522,-10725.336972
947.932372,1480.411884,1998.556043,-11184.994271
947.932692,74.020594,0.000000,-10648.727422
947.933011,74.020594,-296.082377,-9729.412825
947.933331,1332.370696,444.123565,-10418.898773
947.933651,1702.473667,1628.453072,-11108.384721
947.933971,666.185348,2590.720797,-10265.679673
947.934291,-1184.329507,1924.535449,-9959.241474
947.934611,-1332.370696,962.267725,-9806.022374
947.934931,-148.041188,0.000000,-9729.412825
947.935251,296.082377,0.000000,-10878.556072
947.935571,0.000000,444.123565,-9729.412825
947.935891,-296.082377,962.267725,-9346.365076
947.936211,0.000000,1110.308913,-10035.851024
947.936531,1628.453072,666.185348,-9652.803275
947.936851,814.226536,888.247130,-9959.241474
947.937171,-1628.453072,1036.288319,-9576.193725
947.937491,-3627.009116,666.185348,-8810.098227
947.937811,-370.102971,1406.391290,-9729.412825
947.938131,222.061783,-148.041188,-9576.193725
947.938450,518.144159,74.020594,-10648.727422
947.938770,-2738.761985,-518.144159,-8810.098227
947.939090,-2220.617826,-666.185348,-9576.193725
947.939410,-962.267725,-444.123565,-9269.755526
947.939730,518.144159,814.226536,-10572.117872
947.940050,740.205942,518.144159,-10035.851024
947.940370,444.123565,-148.041188,-10189.070123
947.940690,1924.535449,-444.123565,-10112.460574
947.941010,1332.370696,1406.391290,-11031.775171
947.941330,-296.082377,814.226536,-11261.603821
947.941650,-518.144159,962.267725,-9806.022374
947.941970,-1110.308913,-370.102971,-10572.117872
947.942290,592.164754,-740.205942,-10342.289223
947.942610,1406.391290,-740.205942,-10725.336972
947.942930,74.020594,444.123565,-11721.261119
947.943250,-1184.329507,-370.102971,-9806.022374
947.943569,-962.267725,-1036.288319,-10189.070123
947.943889,0.000000,-962.267725,-10265.679673
947.944209,2220.617826,-814.226536,-10342.289223
947.944529,2664.741391,-296.082377,-10572.117872
947.944849,3997.112087,-370.102971,-10112.460574
947.945169,5699.585753,0.000000,-9959.241474
947.945489,4663.297435,296.082377,-11184.994271
947.945809,2294.638420,0.000000,-10725.336972
947.946129,1036.288319,962.267725,-10189.070123
947.946449,518.144159,3256.906145,-9652.803275
947.946769,1406.391290,2590.720797,-9959.241474
947.947089,1184.329507,592.164754,-10112.460574
947.947409,-666.185348,-3034.844362,-9346.365076
947.947729,-814.226536,-5181.441594,-9499.584175
947.948049,1110.308913,-5477.523971,-8580.269578
947.948369,3478.967927,-3034.844362,-9652.803275
947.948689,2516.700203,888.247130,-9576.193725
947.949008,-222.061783,2886.803174,-10265.679673
947.949328,-740.205942,3182.885551,-9806.022374
947.949648,-1702.473667,0.000000,-8810.098227
947.949968,-2368.659014,-1850.514855,-9652.803275
947.950288,-2368.659014,-3478.967927,-9652.803275
947.950608,740.205942,-1776.494261,-9576.193725
947.950928,2146.597232,-814.226536,-10342.289223
947.951248,2960.823768,-296.082377,-10035.851024
947.951568,1628.453072,222.061783,-10648.727422
947.951888,-2516.700203,1702.473667,-11031.775171
947.952208,-3627.009116,3404.947333,-9959.241474
947.952528,-2220.617826,3923.091493,-10572.117872
947.952848,814.226536,1998.556043,-10342.289223
947.953168,1628.453072,444.123565,-10801.946522
947.953488,-1776.494261,-2590.720797,-10572.117872
947.953808,-1776.494261,-3182.885551,-9806.022374
947.954128,-2516.700203,-444.123565,-9882.631924
947.954447,222.061783,2220.617826,-10801.946522
947.954767,-592.164754,4589.276840,-10342.289223
947.955087,-444.123565,4811.338623,-10801.946522
947.955407,962.267725,1702.473667,-10572.117872
947.955727,2368.659014,-1554.432478,-10189.070123
947.956047,2220.617826,-3256.906145,-9806.022374
947.956367,-962.267725,-1036.288319,-9346.365076
947.956687,-296.082377,592.164754,-9422.974625
947.957007,1184.329507,740.205942,-10035.851024
947.957327,2294.638420,1554.432478,-9729.412825
947.957647,592.164754,740.205942,-9729.412825
947.957967,1184.329507,1036.288319,-9576.193725
947.958287,1702.473667,0.000000,-9116.536426
947.958607,3701.029710,222.061783,-9806.022374
947.958927,2812.782580,-148.041188,-9729.412825
947.959247,1406.391290,-1110.308913,-9959.241474
947.959566,2368.659014,-518.144159,-9959.241474
947.959886,3256.906145,1924.535449,-9882.631924
947.960206,3256.906145,2220.617826,-10265.679673
947.960526,1924.535449,2812.782580,-10418.898773
947.960846,-1258.350101,2368.659014,-9422.974625
947.961166,814.226536,1628.453072,-10648.727422
947.961486,962.267725,0.000000,-9882.631924
947.961806,1702.473667,-962.267725,-10418.898773
947.962126,814.226536,-814.226536,-10725.336972
947.962446,-888.247130,148.041188,-10035.851024
947.962766,-1406.391290,518.144159,-10495.508323
947.963086,-962.267725,888.247130,-10189.070123
947.963406,888.247130,2516.700203,-11031.775171
947.963726,814.226536,3108.864956,-12180.918418
947.964046,-666.185348,1998.556043,-10418.898773
947.964366,-888.247130,740.205942,-10572.117872
947.964686,-1628.453072,-888.247130,-9882.631924
947.965005,1480.411884,-1036.288319,-9806.022374
947.965325,1850.514855,-518.144159,-10572.117872
947.965645,-518.144159,962.267725,-9882.631924
947.965965,-2072.576638,1776.494261,-10648.727422
947.966285,-4737.318029,1258.350101,-10035.851024
947.966605,-1110.308913,-666.185348,-8810.098227
947.966925,-1776.494261,-148.041188,-10572.117872
947.967245,1480.411884,-1480.411884,-9193.145976
947.967565,1184.329507,-1406.391290,-9806.022374
947.967885,2220.617826,-1110.308913,-9269.755526
947.968205,-592.164754,-592.164754,-9422.974625
947.968525,-3404.947333,1184.329507,-9806.022374
947.968845,-1702.473667,1850.514855,-9269.755526
947.969165,3330.926739,1628.453072,-9806.022374
947.969485,2664.741391,0.000000,-10112.460574
947.969805,444.123565,-1554.432478,-10265.679673
947.970125,-2368.659014,-4219.173869,-8886.707777
947.970444,-2146.597232,-4441.235652,-9116.536426
947.970764,1110.308913,-3034.844362,-9652.803275
947.971084,740.205942,296.082377,-10648.727422
947.971404,222.061783,2886.803174,-10725.336972
947.971724,1036.288319,4589.276840,-10265.679673
947.972044,3775.050304,2516.700203,-10648.727422
947.972364,6439.791695,592.164754,-11491.432470
947.972684,2590.720797,-1998.556043,-10189.070123
947.973004,666.185348,-3404.947333,-10112.460574
947.973324,2220.617826,-2590.720797,-9959.241474
947.973644,2886.803174,-1628.453072,-9499.584175
947.973964,4293.194464,296.082377,-11261.603821
947.974284,3034.844362,1998.556043,-11031.775171
947.974604,-222.061783,1628.453072,-10572.117872
947.974924,0.000000,2220.617826,-9882.631924
947.975244,1776.494261,1924.535449,-10725.336972
947.975564,1036.288319,1036.288319,-10801.946522
947.975884,962.267725,-222.061783,-10725.336972
947.976204,148.041188,-2072.576638,-10112.460574
947.976524,444.123565,-1850.514855,-9729.412825
947.976844,0.000000,-888.247130,-10878.556072
947.977164,-1628.453072,370.102971,-9652.803275
947.977484,-814.226536,2368.659014,-10265.679673
947.977804,0.000000,3997.112087,-11261.603821
947.978124,1924.535449,3034.844362,-10725.336972
947.978444,1480.411884,1258.350101,-10112.460574
947.978764,-148.041188,-888.247130,-10342.289223
947.979084,-1924.535449,-1628.453072,-9499.584175
947.979404,-2960.823768,-1332.370696,-9806.022374
947.979724,-592.164754,-444.123565,-9422.974625
947.980044,-1036.288319,2442.679609,-10189.070123
947.980364,-296.082377,5033.400406,-10725.336972
947.980684,740.205942,6069.688724,-10342.289223
947.981004,518.144159,5033.400406,-10648.727422
947.981324,-1036.288319,1924.535449,-9652.803275
947.981644,-3478.967927,-3256.906145,-9269.755526
947.981964,-74.020594,-3997.112087,-9193.145976
947.982284,1480.411884,-4589.276840,-8963.317327
947.982604,3034.844362,-1258.350101,-9422.974625
947.982923,1332.370696,2812.782580,-10112.460574
947.983243,-1924.535449,3923.091493,-10035.851024
947.983563,-2220.617826,4663.297435,-9806.022374
947.983883,-1184.329507,2886.803174,-10112.460574
947.984203,1554.432478,-222.061783,-10342.289223
947.984523,0.000000,-2590.720797,-9806.022374
947.984843,-1480.411884,-3478.967927,-9039.926876
947.985163,-2146.597232,-2516.700203,-9499.584175
947.985483,0.000000,-518.144159,-10112.460574
947.985803,2220.617826,1702.473667,-9729.412825
947.986123,4145.153275,3701.029710,-10648.727422
947.986443,4811.338623,4367.215058,-11261.603821
947.986763,4071.132681,1554.432478,-10418.898773
947.987083,1998.556043,0.000000,-10112.460574
947.987403,-962.267725,-1406.391290,-9959.241474
947.987723,666.185348,-1850.514855,-10189.070123
947.988043,2886.803174,-1036.288319,-10955.165621
947.988363,2368.659014,-1406.391290,-10112.460574
947.988683,2368.659014,518.144159,-10035.851024
947.989003,222.061783,1998.556043,-10725.336972
947.989323,444.123565,1184.329507,-11108.384721
947.989643,1332.370696,2516.700203,-9882.631924
947.989963,1628.453072,2220.617826,-11414.822920
947.990283,2442.679609,444.123565,-10572.117872
947.990603,1110.308913,-2442.679609,-10342.289223
947.990923,1776.494261,-2072.576638,-10342.289223
947.991243,1776.494261,-1554.432478,-9806.022374
947.991563,2812.782580,-444.123565,-10572.117872
947.991883,1258.350101,444.123565,-10801.946522
947.992203,-1110.308913,1110.308913,-9499.584175
947.992523,-1554.432478,1258.350101,-10342.289223
947.992843,-370.102971,222.061783,-10495.508323
947.993163,518.144159,0.000000,-10495.508323
947.993483,370.102971,-1110.308913,-10495.508323
947.993803,-1258.350101,-2368.659014,-9576.193725
947.994123,-148.041188,-962.267725,-10035.851024
947.994443,74.020594,222.061783,-10342.289223
947.994763,-2220.617826,1702.473667,-9652.803275
947.995083,-3330.926739,2664.741391,-10342.289223
947.995403,-2442.679609,1036.288319,-10265.679673
947.995723,-222.061783,-1480.411884,-10265.679673
947.996043,444.123565,-2812.782580,-9806.022374
947.996363,-1036.288319,-2146.597232,-9116.536426
947.996683,-740.205942,74.020594,-10189.070123
947.997003,888.247130,1554.432478,-9269.755526
947.997323,2516.700203,2738.761985,-10265.679673
947.997643,2294.638420,3108.864956,-10572.117872
947.997963,-1332.370696,148.041188,-9806.022374
947.998283,-2220.617826,-1776.494261,-9806.022374
947.998603,-1480.411884,-2368.659014,-9576.193725
947.998923,444.123565,-888.247130,-9882.631924
947.999243,592.164754,-222.061783,-9959.241474
