#time,accel_x,accel_y,accel_z
920.133148,740.205942,592.164754,-9193.145976
920.133468,370.102971,444.123565,-10035.851024
920.133788,444.123565,74.020594,-10189.070123
920.134108,518.144159,0.000000,-10112.460574
920.134428,518.144159,148.041188,-10342.289223
920.134749,814.226536,370.102971,-10112.460574
920.135069,814.226536,666.185348,-10265.679673
920.135389,1110.308913,222.061783,-10035.851024
920.135709,740.205942,370.102971,-10112.460574
920.136030,0.000000,814.226536,-9652.803275
920.136350,-222.061783,0.000000,-9882.631924
920.136670,296.082377,-222.061783,-9959.241474
920.136990,0.000000,222.061783,-10035.851024
920.137310,296.082377,1184.329507,-11031.775171
920.137631,592.164754,1110.308913,-10189.070123
920.137951,1406.391290,962.267725,-10342.289223
920.138271,1036.288319,370.102971,-10342.289223
920.138591,370.102971,-74.020594,-10189.070123
920.138912,592.164754,0.000000,-9422.974625
920.139232,296.082377,-370.102971,-9806.022374
920.139552,148.041188,0.000000,-10112.460574
920.139872,-518.144159,-222.061783,-9959.241474
920.140192,-888.247130,0.000000,-9959.241474
920.140513,-666.185348,0.000000,-9959.241474
920.140833,-370.102971,-370.102971,-10342.289223
920.141153,-1184.329507,-370.102971,-10035.851024
920.141473,-518.144159,-518.144159,-10035.851024
920.141794,148.041188,-296.082377,-9576.193725
920.142114,0.000000,-370.102971,-9959.241474
920.142434,-962.267725,-518.144159,-10265.679673
920.142754,-814.226536,-1258.350101,-10035.851024
920.143074,-518.144159,-962.267725,-9959.241474
920.143395,-740.205942,-1110.308913,-9806.022374
920.143715,-1850.514855,-1258.350101,-10035.851024
920.144035,-2294.638420,-1480.411884,-10035.851024
920.144355,-1554.432478,-1406.391290,-10112.460574
920.144676,-592.164754,-1406.391290,-9806.022374
920.144996,-1258.350101,-1110.308913,-9806.022374
920.145316,-1628.453072,-1850.514855,-9959.241474
920.145636,-1036.288319,-2072.576638,-9806.022374
920.145956,0.000000,-1998.556043,-9882.631924
920.146277,0.000000,-1998.556043,-9806.022374
920.146597,-1258.350101,-2590.720797,-9806.022374
920.146917,-2368.659014,-3034.844362,-9652.803275
920.147237,-2442.679609,-3404.947333,-9729.412825
920.147558,-2220.617826,-3034.844362,-9882.631924
920.147878,-2368.659014,-2886.803174,-9806.022374
920.148198,-2516.700203,-3404.947333,-9882.631924
920.148518,-2072.576638,-3330.926739,-9729.412825
920.148838,-444.123565,-2738.761985,-9269.755526
920.149159,888.247130,-1258.350101,-10495.508323
920.149479,888.247130,-1258.350101,-10342.289223
920.149799,-592.164754,-1258.350101,-10495.508323
920.150119,-1924.535449,-2146.597232,-10035.851024
920.150440,-3108.864956,-2664.741391,-10265.679673
920.150760,-4441.235652,-3404.947333,-10189.070123
920.151080,-5403.503377,-4219.173869,-9882.631924
920.151400,-4737.318029,-4811.338623,-9422.974625
920.151720,-2590.720797,-4737.318029,-9039.926876
920.152041,-592.164754,-3627.009116,-9959.241474
920.152361,296.082377,-2294.638420,-10418.898773
920.152681,1036.288319,-1036.288319,-10112.460574
920.153001,1776.494261,592.164754,-10189.070123
920.153322,2294.638420,0.000000,-10265.679673
920.153642,1480.411884,-148.041188,-10725.336972
920.153962,-222.061783,-1554.432478,-10648.727422
920.154282,-1776.494261,-3034.844362,-9806.022374
920.154602,-2960.823768,-3997.112087,-9959.241474
920.154923,-5181.441594,-3923.091493,-9806.022374
920.155243,-5847.626942,-4219.173869,-9346.365076
920.155563,-4145.153275,-4885.359217,-9269.755526
920.155883,-518.144159,-5033.400406,-9499.584175
920.156204,1406.391290,-3404.947333,-10112.460574
920.156524,2072.576638,-1036.288319,-9959.241474
920.156844,3182.885551,1184.329507,-10189.070123
920.157164,3627.009116,2294.638420,-10342.289223
920.157484,3478.967927,2368.659014,-10878.556072
920.157805,222.061783,888.247130,-10725.336972
920.158125,-3923.091493,-1850.514855,-10189.070123
920.158445,-6587.832884,-4071.132681,-9806.022374
920.158765,-6143.709319,-5477.523971,-8503.660028
920.159086,-4737.318029,-5921.647536,-9576.193725
920.159406,-3627.009116,-5699.585753,-9576.193725
920.159726,-2664.741391,-3849.070898,-9729.412825
920.160046,74.020594,-740.205942,-10035.851024
920.160366,2442.679609,2146.597232,-10418.898773
920.160687,2886.803174,4145.153275,-10878.556072
920.161007,2516.700203,3775.050304,-10648.727422
920.161327,2516.700203,1850.514855,-10648.727422
920.161647,1702.473667,0.000000,-9882.631924
920.161968,-1258.350101,-2738.761985,-10112.460574
920.162288,-4071.132681,-3034.844362,-9806.022374
920.162608,-5551.544565,-2442.679609,-9652.803275
920.162928,-6217.729913,-2220.617826,-10495.508323
920.163249,-7328.038826,-4293.194464,-8963.317327
920.163569,-6587.832884,-5107.421000,-8810.098227
920.163889,-3108.864956,-4145.153275,-9116.536426
920.164209,888.247130,-1406.391290,-9882.631924
920.164529,4071.132681,2368.659014,-10112.460574
920.164850,3108.864956,3849.070898,-10801.946522
920.165170,1480.411884,4441.235652,-10572.117872
920.165490,1554.432478,3108.864956,-10342.289223
920.165810,1776.494261,444.123565,-9806.022374
920.166131,-296.082377,-2220.617826,-10495.508323
920.166451,-4071.132681,-4145.153275,-10648.727422
920.166771,-7402.059420,-3478.967927,-9806.022374
920.167091,-8882.471304,-2590.720797,-9806.022374
920.167411,-8660.409521,-1776.494261,-9116.536426
920.167732,-5477.523971,-3627.009116,-9193.145976
920.168052,-740.205942,-5033.400406,-9729.412825
920.168372,2590.720797,-4515.256246,-10342.289223
920.168692,4293.194464,-2072.576638,-10112.460574
920.169013,4811.338623,518.144159,-10955.165621
920.169333,5477.523971,3182.885551,-11108.384721
920.169653,4737.318029,3997.112087,-10878.556072
920.169973,2146.597232,2442.679609,-10878.556072
920.170293,-2368.659014,-1776.494261,-10418.898773
920.170614,-7105.977043,-4589.276840,-9806.022374
920.170934,-7846.182985,-6957.935855,-9576.193725
920.171254,-6883.915261,-8956.491898,-9269.755526
920.171574,-4885.359217,-9030.512492,-8963.317327
920.171895,-3997.112087,-8290.306550,-9269.755526
920.172215,-2294.638420,-5033.400406,-9193.145976
920.172535,1258.350101,-1036.288319,-9806.022374
920.172855,4959.379811,1850.514855,-10189.070123
920.173175,6513.812290,3478.967927,-11414.822920
920.173496,4219.173869,2072.576638,-10955.165621
920.173816,296.082377,0.000000,-10342.289223
920.174136,-2368.659014,-2146.597232,-9882.631924
920.174456,-3923.091493,-3478.967927,-9269.755526
920.174777,-5181.441594,-4515.256246,-10112.460574
920.175097,-7994.224174,-6809.894666,-9499.584175
920.175417,-7550.100608,-7476.080014,-9039.926876
920.175737,-5033.400406,-6513.812290,-9039.926876
920.176057,-1998.556043,-5773.606348,-9652.803275
920.176378,-740.205942,-2590.720797,-10035.851024
920.176698,-740.205942,444.123565,-10342.289223
920.177018,-296.082377,1480.411884,-10189.070123
920.177338,2664.741391,1480.411884,-10112.460574
920.177659,3478.967927,1776.494261,-11108.384721
920.177979,1406.391290,-814.226536,-11031.775171
920.178299,-740.205942,-1924.535449,-10495.508323
920.178619,-1776.494261,-3627.009116,-10418.898773
920.178939,-4515.256246,-4441.235652,-10265.679673
920.179260,-6957.935855,-4885.359217,-9806.022374
920.179580,-6883.915261,-4293.194464,-9806.022374
920.179900,-4219.173869,-3256.906145,-9806.022374
920.180220,-2146.597232,-2368.659014,-10112.460574
920.180541,-592.164754,-2220.617826,-9806.022374
920.180861,1480.411884,-2442.679609,-9959.241474
920.181181,3701.029710,-370.102971,-10648.727422
920.181501,3256.906145,1480.411884,-9499.584175
920.181821,1110.308913,2072.576638,-10495.508323
920.182142,962.267725,814.226536,-10189.070123
920.182462,814.226536,-962.267725,-10265.679673
920.182782,-740.205942,-1554.432478,-10189.070123
920.183102,-3997.112087,-3552.988522,-9806.022374
920.183423,-5255.462188,-4737.318029,-9346.365076
920.183743,-4737.318029,-4737.318029,-9806.022374
920.184063,-3775.050304,-3034.844362,-9499.584175
920.184383,-2220.617826,-3108.864956,-9652.803275
920.184703,-518.144159,-2960.823768,-9499.584175
920.185024,1702.473667,-1554.432478,-9959.241474
920.185344,2590.720797,296.082377,-10878.556072
920.185664,2960.823768,1776.494261,-10495.508323
920.185984,2072.576638,2812.782580,-11031.775171
920.186305,0.000000,2590.720797,-10725.336972
920.186625,-444.123565,-592.164754,-10418.898773
920.186945,-1258.350101,-2590.720797,-10112.460574
920.187265,-3997.112087,-3923.091493,-10418.898773
920.187585,-4811.338623,-5033.400406,-9499.584175
920.187906,-4441.235652,-2812.782580,-10572.117872
920.188226,-3997.112087,-1554.432478,-9422.974625
920.188546,-3404.947333,-888.247130,-9729.412825
920.188866,370.102971,-888.247130,-9882.631924
920.189186,0.000000,-2812.782580,-9882.631924
920.189506,1406.391290,-1480.411884,-10495.508323
920.189826,1258.350101,814.226536,-10648.727422
920.190146,1850.514855,2516.700203,-10418.898773
920.190466,1332.370696,3108.864956,-10112.460574
920.190786,0.000000,1554.432478,-10572.117872
920.191107,-1110.308913,-2294.638420,-9882.631924
920.191427,-3182.885551,-6661.853478,-10189.070123
920.191747,-4811.338623,-7031.956449,-9269.755526
920.192067,-6365.771101,-5551.544565,-9116.536426
920.192387,-4885.359217,-3108.864956,-9269.755526
920.192707,-1924.535449,-1850.514855,-9422.974625
920.193027,592.164754,-1998.556043,-9806.022374
920.193347,444.123565,-1850.514855,-10035.851024
920.193667,296.082377,-1184.329507,-9806.022374
920.193987,962.267725,-222.061783,-10572.117872
920.194307,1110.308913,1184.329507,-9729.412825
920.194627,740.205942,296.082377,-9806.022374
920.194947,-2146.597232,-2220.617826,-10112.460574
920.195267,-3182.885551,-4219.173869,-9729.412825
920.195587,-4293.194464,-4293.194464,-10189.070123
920.195907,-3775.050304,-3775.050304,-10495.508323
920.196227,-3256.906145,-1628.453072,-9959.241474
920.196547,-2368.659014,-2886.803174,-10112.460574
920.196867,-1480.411884,-2368.659014,-9576.193725
920.197187,222.061783,-1776.494261,-10495.508323
920.197508,-666.185348,-1036.288319,-10572.117872
920.197828,-370.102971,-1036.288319,-10112.460574
920.198148,518.144159,1332.370696,-10572.117872
920.198468,3182.885551,-222.061783,-10418.898773
920.198788,2516.700203,-1702.473667,-10342.289223
920.199108,-444.123565,-1776.494261,-10342.289223
920.199428,-3330.926739,-2368.659014,-10342.289223
920.199748,-4589.276840,-1776.494261,-9806.022374
920.200068,-3849.070898,-518.144159,-9959.241474
920.200388,-2960.823768,-2442.679609,-9729.412825
920.200708,-2442.679609,-4737.318029,-9576.193725
920.201028,-370.102971,-3775.050304,-9422.974625
920.201348,1110.308913,-2146.597232,-9882.631924
920.201668,1924.535449,-1554.432478,-9729.412825
920.201988,3404.947333,888.247130,-10189.070123
920.202308,2368.659014,1998.556043,-10265.679673
920.202628,814.226536,1406.391290,-10725.336972
920.202948,370.102971,666.185348,-11261.603821
920.203268,-1184.329507,-2220.617826,-10265.679673
920.203588,296.082377,-3034.844362,-10112.460574
920.203908,1628.453072,-1480.411884,-9806.022374
920.204229,-962.267725,-2368.659014,-9116.536426
920.204549,-740.205942,-2368.659014,-10035.851024
920.204869,1110.308913,-1998.556043,-9882.631924
920.205189,2960.823768,1036.288319,-10955.165621
920.205509,2664.741391,2442.679609,-10725.336972
920.205829,370.102971,2886.803174,-10342.289223
920.206149,0.000000,0.000000,-9422.974625
920.206469,1628.453072,370.102971,-10572.117872
920.206789,4737.318029,-222.061783,-10342.289223
920.207109,5033.400406,296.082377,-10418.898773
920.207429,2516.700203,-2220.617826,-10112.460574
920.207749,-740.205942,-3775.050304,-9346.365076
920.208069,-1628.453072,814.226536,-9576.193725
920.208389,-1998.556043,2368.659014,-10418.898773
920.208709,1554.432478,2072.576638,-9193.145976
920.209029,1110.308913,814.226536,-9729.412825
920.209349,1480.411884,-296.082377,-10342.289223
920.209669,2590.720797,0.000000,-9729.412825
920.209989,3997.112087,1702.473667,-9576.193725
920.210309,4737.318029,2072.576638,-10189.070123
920.210630,-518.144159,1258.350101,-9806.022374
920.210950,-2220.617826,888.247130,-10189.070123
920.211270,-3627.009116,0.000000,-9652.803275
920.211590,-1258.350101,444.123565,-10572.117872
920.211910,1332.370696,1184.329507,-10725.336972
920.212230,-518.144159,1924.535449,-10418.898773
920.212550,-4663.297435,1258.350101,-10725.336972
920.212870,-3182.885551,888.247130,-10265.679673
920.213190,-666.185348,222.061783,-9652.803275
920.213510,962.267725,222.061783,-10878.556072
920.213830,2072.576638,2072.576638,-10495.508323
920.214150,1702.473667,3330.926739,-11031.775171
920.214470,-814.226536,2516.700203,-11031.775171
920.214790,444.123565,0.000000,-9729.412825
920.215110,1332.370696,0.000000,-10418.898773
920.215430,-148.041188,444.123565,-10035.851024
920.215750,-518.144159,1554.432478,-9959.241474
920.216070,148.041188,1036.288319,-10878.556072
920.216390,592.164754,814.226536,-9346.365076
920.216710,2146.597232,74.020594,-9882.631924
920.217030,2146.597232,-592.164754,-10878.556072
920.217351,1998.556043,592.164754,-9499.584175
920.217671,962.267725,1850.514855,-10189.070123
920.217991,1036.288319,2368.659014,-9422.974625
920.218311,3404.947333,3034.844362,-10035.851024
920.218631,3404.947333,1628.453072,-10801.946522
920.218951,2072.576638,148.041188,-10342.289223
920.219271,74.020594,-148.041188,-9959.241474
920.219591,-1998.556043,370.102971,-9576.193725
920.219911,296.082377,518.144159,-9346.365076
920.220231,1184.329507,740.205942,-9959.241474
920.220551,888.247130,888.247130,-9729.412825
920.220871,518.144159,-1480.411884,-10342.289223
920.221191,1850.514855,-2442.679609,-9193.145976
920.221511,1332.370696,-740.205942,-10035.851024
920.221831,2442.679609,0.000000,-10495.508323
920.222151,1776.494261,2220.617826,-10112.460574
920.222471,518.144159,1776.494261,-10955.165621
920.222791,-962.267725,2146.597232,-10265.679673
920.223111,0.000000,1998.556043,-10878.556072
920.223431,1110.308913,888.247130,-11108.384721
920.223752,-740.205942,-1924.535449,-10265.679673
920.224072,-3330.926739,-2738.761985,-10342.289223
920.224392,-3923.091493,-2368.659014,-9806.022374
920.224712,-1480.411884,-2072.576638,-10342.289223
920.225032,1998.556043,740.205942,-10725.336972
920.225352,1332.370696,962.267725,-11031.775171
920.225672,370.102971,1776.494261,-10495.508323
920.225992,74.020594,1110.308913,-10801.946522
920.226312,2442.679609,148.041188,-9959.241474
920.226632,1554.432478,-592.164754,-10801.946522
920.226952,-962.267725,-2738.761985,-9499.584175
920.227272,-1110.308913,-3478.967927,-10112.460574
920.227592,-1628.453072,-1332.370696,-9806.022374
920.227912,-3034.844362,-444.123565,-9959.241474
920.228232,-3701.029710,0.000000,-9806.022374
920.228552,-3034.844362,-370.102971,-9422.974625
920.228872,-2368.659014,-3034.844362,-9652.803275
920.229192,-2442.679609,-3701.029710,-9499.584175
920.229512,-1332.370696,-2886.803174,-8886.707777
920.229832,370.102971,-2960.823768,-9652.803275
920.230152,518.144159,1332.370696,-10648.727422
920.230473,-592.164754,1924.535449,-9806.022374
920.230793,-1406.391290,814.226536,-9806.022374
920.231113,814.226536,0.000000,-9882.631924
920.231433,2738.761985,-296.082377,-9422.974625
920.231753,962.267725,296.082377,-10801.946522
920.232073,0.000000,-1110.308913,-10189.070123
920.232393,1184.329507,222.061783,-10265.679673
920.232713,3034.844362,444.123565,-10112.460574
920.233033,4589.276840,-1554.432478,-10648.727422
920.233353,2590.720797,-888.247130,-10648.727422
920.233673,666.185348,444.123565,-10189.070123
920.233993,296.082377,3775.050304,-11031.775171
920.234313,1184.329507,3923.091493,-10418.898773
920.234633,2960.823768,1776.494261,-11261.603821
920.234953,2072.576638,0.000000,-10189.070123
920.235273,1332.370696,-2664.741391,-9959.241474
920.235593,296.082377,-2590.720797,-10572.117872
920.235913,2220.617826,-370.102971,-9116.536426
920.236233,1554.432478,1406.391290,-10418.898773
920.236553,888.247130,2368.659014,-9576.193725
920.236874,148.041188,1702.473667,-9806.022374
920.237194,1554.432478,-444.123565,-9806.022374
920.237514,3182.885551,-370.102971,-9422.974625
920.237834,4737.318029,148.041188,-10189.070123
920.238154,3256.906145,814.226536,-10189.070123
920.238474,2738.761985,2812.782580,-9576.193725
920.238794,666.185348,2664.741391,-9959.241474
920.239114,148.041188,1258.350101,-9499.584175
920.239434,74.020594,814.226536,-9806.022374
920.239754,-296.082377,148.041188,-9882.631924
920.240074,-740.205942,0.000000,-9729.412825
920.240394,370.102971,-370.102971,-9806.022374
920.240714,1036.288319,74.020594,-9652.803275
920.241034,2294.638420,814.226536,-10342.289223
920.241354,1184.329507,1406.391290,-10418.898773
920.241674,-148.041188,666.185348,-10112.460574
920.241994,-592.164754,3256.906145,-10035.851024
920.242314,-592.164754,5033.400406,-10265.679673
920.242634,296.082377,3108.864956,-10495.508323
920.242954,-296.082377,-370.102971,-10265.679673
920.243275,-1184.329507,-2590.720797,-10495.508323
920.243595,-814.226536,-3034.844362,-9806.022374
920.243915,-1480.411884,-1110.308913,-10035.851024
920.244235,-2146.597232,2590.720797,-10418.898773
920.244555,-2368.659014,5699.585753,-10955.165621
920.244875,-1554.432478,6809.894666,-11031.775171
920.245195,-888.247130,6069.688724,-10725.336972
920.245515,1184.329507,2516.700203,-9882.631924
920.245835,2294.638420,-1184.329507,-9959.241474
920.246155,2812.782580,-4885.359217,-9729.412825
920.246475,2442.679609,-4737.318029,-10572.117872
920.246795,0.000000,-1480.411884,-9806.022374
920.247115,-1480.411884,3330.926739,-10035.851024
920.247435,-888.247130,7550.100608,-10572.117872
920.247755,-740.205942,9474.636058,-11644.651570
920.248075,-1776.494261,7402.059420,-11108.384721
920.248395,-444.123565,1406.391290,-10418.898773
920.248715,1628.453072,-4811.338623,-9193.145976
920.249035,3108.864956,-8364.327145,-9499.584175
920.249355,962.267725,-5995.668130,-9729.412825
920.249675,-666.185348,-1554.432478,-9652.803275
920.249996,888.247130,3849.070898,-11414.822920
920.250316,1258.350101,5699.585753,-10572.117872
920.250636,1628.453072,6365.771101,-9729.412825
920.250956,1554.432478,2738.761985,-10189.070123
920.251276,1628.453072,-2368.659014,-9116.536426
920.251596,2220.617826,-7772.162391,-9116.536426
920.251916,1850.514855,-7994.224174,-9422.974625
920.252236,1628.453072,-5033.400406,-8656.879127
920.252556,2072.576638,-222.061783,-9806.022374
920.252876,2220.617826,3627.009116,-10265.679673
920.253196,222.061783,5033.400406,-10035.851024
920.253516,370.102971,2146.597232,-10189.070123
920.253836,2072.576638,666.185348,-9806.022374
920.254156,3627.009116,-1554.432478,-10955.165621
920.254476,3997.112087,-2516.700203,-9959.241474
920.254796,370.102971,-4515.256246,-9806.022374
920.255116,-1776.494261,-4737.318029,-9729.412825
920.255436,518.144159,-1332.370696,-9652.803275
920.255756,1184.329507,2960.823768,-10955.165621
920.256076,2146.597232,4737.318029,-10725.336972
920.256397,1850.514855,4071.132681,-10342.289223
920.256717,1850.514855,1332.370696,-11414.822920
920.257037,962.267725,-740.205942,-9729.412825
920.257357,444.123565,-4071.132681,-10572.117872
920.257677,-666.185348,-4737.318029,-9576.193725
920.257997,-1776.494261,-2960.823768,-9576.193725
920.258317,-1628.453072,1332.370696,-10878.556072
920.258637,-1554.432478,3923.091493,-10801.946522
920.258957,-1036.288319,4219.173869,-11261.603821
920.259277,-1702.473667,666.185348,-10265.679673
920.259597,-1480.411884,-2368.659014,-9882.631924
920.259917,592.164754,-3849.070898,-10112.460574
920.260237,1702.473667,-2960.823768,-9806.022374
920.260557,1554.432478,-296.082377,-10189.070123
920.260877,-148.041188,1406.391290,-10495.508323
920.261197,-1258.350101,2294.638420,-10035.851024
920.261517,-1036.288319,2220.617826,-10189.070123
920.261837,-296.082377,1998.556043,-9959.241474
920.262157,1406.391290,296.082377,-9959.241474
920.262477,-592.164754,-296.082377,-10035.851024
920.262797,-148.041188,-1258.350101,-9806.022374
920.263118,-1628.453072,-1480.411884,-9499.584175
920.263438,-1554.432478,-518.144159,-9269.755526
920.263758,-518.144159,888.247130,-9422.974625
920.264078,-296.082377,3775.050304,-10189.070123
920.264398,-814.226536,3849.070898,-9806.022374
920.264718,666.185348,1554.432478,-10342.289223
920.265038,2738.761985,0.000000,-9806.022374
920.265358,3404.947333,0.000000,-10112.460574
920.265678,1850.514855,0.000000,-10035.851024
920.265998,296.082377,1036.288319,-9422.974625
920.266318,-296.082377,1480.411884,-10112.460574
920.266638,0.000000,1110.308913,-9806.022374
920.266958,1554.432478,1850.514855,-10112.460574
920.267278,1480.411884,2368.659014,-11031.775171
920.267598,1406.391290,1702.473667,-10112.460574
920.267918,2220.617826,1258.350101,-10725.336972
920.268238,1850.514855,0.000000,-9422.974625
920.268558,2960.823768,-592.164754,-10418.898773
920.268878,3849.070898,444.123565,-10572.117872
920.269198,2294.638420,1332.370696,-9959.241474
920.269519,-222.061783,2812.782580,-10342.289223
920.269839,962.267725,1850.514855,-9882.631924
920.270159,4589.276840,1036.288319,-10189.070123
920.270479,6735.874072,1554.432478,-10725.336972
920.270799,4219.173869,666.185348,-10265.679673
920.271119,666.185348,-296.082377,-10265.679673
920.271439,-1480.411884,740.205942,-9652.803275
920.271759,740.205942,2072.576638,-9652.803275
920.272079,1924.535449,2738.761985,-10725.336972
920.272399,-1406.391290,2812.782580,-9882.631924
920.272719,-2664.741391,148.041188,-9269.755526
920.273039,-1480.411884,-1406.391290,-9422.974625
920.273359,1480.411884,-1628.453072,-9269.755526
920.273679,1628.453072,-888.247130,-10495.508323
920.273999,-888.247130,666.185348,-9499.584175
920.274319,-814.226536,666.185348,-9806.022374
920.274639,444.123565,0.000000,-10342.289223
920.274959,2294.638420,-370.102971,-9806.022374
920.275279,1628.453072,-1184.329507,-10572.117872
920.275599,296.082377,814.226536,-9806.022374
920.275919,-1258.350101,444.123565,-10418.898773
920.276240,-2368.659014,148.041188,-10572.117872
920.276560,-1406.391290,-74.020594,-9422.974625
920.276880,-740.205942,-1554.432478,-10495.508323
920.277200,-1776.494261,-1258.350101,-10189.070123
920.277520,-3775.050304,222.061783,-10035.851024
920.277840,-4441.235652,666.185348,-10572.117872
920.278160,-2516.700203,2368.659014,-10035.851024
920.278480,148.041188,2368.659014,-11031.775171
920.278800,-1036.288319,2590.720797,-10572.117872
920.279120,-814.226536,1406.391290,-10342.289223
920.279440,-592.164754,-666.185348,-10572.117872
920.279760,370.102971,-2072.576638,-9652.803275
920.280080,1998.556043,-2886.803174,-9806.022374
920.280400,1628.453072,-2812.782580,-9422.974625
920.280720,2072.576638,-888.247130,-10035.851024
920.281040,148.041188,1184.329507,-10878.556072
920.281360,962.267725,2516.700203,-9729.412825
920.281680,148.041188,2738.761985,-10801.946522
920.282000,-222.061783,1406.391290,-11031.775171
920.282320,0.000000,370.102971,-10801.946522
920.282641,1480.411884,-222.061783,-10265.679673
920.282961,2294.638420,518.144159,-9729.412825
920.283281,3552.988522,814.226536,-10725.336972
920.283601,4145.153275,1332.370696,-10035.851024
920.283921,2960.823768,0.000000,-9806.022374
920.284241,3182.885551,0.000000,-9729.412825
920.284561,1850.514855,0.000000,-9499.584175
920.284881,1850.514855,-1406.391290,-9729.412825
920.285201,1850.514855,-1628.453072,-8963.317327
920.285521,888.247130,-888.247130,-9346.365076
920.285841,592.164754,-518.144159,-9729.412825
920.286161,296.082377,74.020594,-9806.022374
920.286481,1406.391290,1702.473667,-10189.070123
920.286801,1628.453072,1406.391290,-10265.679673
920.287121,740.205942,1998.556043,-9576.193725
920.287441,2368.659014,1110.308913,-10265.679673
920.287761,222.061783,1258.350101,-9652.803275
920.288081,370.102971,740.205942,-9729.412825
920.288401,2590.720797,444.123565,-10495.508323
920.288721,3849.070898,-444.123565,-9422.974625
920.289041,3330.926739,1258.350101,-10878.556072
920.289362,0.000000,2146.597232,-10035.851024
920.289682,-3108.864956,2738.761985,-10265.679673
920.290002,-1184.329507,1850.514855,-11031.775171
920.290322,-444.123565,222.061783,-9039.926876
920.290642,-1184.329507,-814.226536,-10648.727422
920.290962,-888.247130,-370.102971,-9959.241474
920.291239,-370.102971,740.205942,-9269.755526
920.291559,-592.164754,814.226536,-11108.384721
920.291879,-518.144159,1924.535449,-10112.460574
920.292198,-1258.350101,-222.061783,-10572.117872
920.292518,814.226536,148.041188,-10265.679673
920.292838,-2590.720797,1332.370696,-10572.117872
920.293158,-3182.885551,1554.432478,-10112.460574
920.293477,-2442.679609,222.061783,-9576.193725
920.293797,296.082377,-888.247130,-10725.336972
920.294117,0.000000,-1184.329507,-10725.336972
920.294437,-1332.370696,-1406.391290,-10035.851024
920.294756,222.061783,74.020594,-10112.460574
920.295076,148.041188,2812.782580,-9806.022374
920.295396,-592.164754,3478.967927,-10112.460574
920.295716,-2516.700203,2442.679609,-9959.241474
920.296036,-1184.329507,74.020594,-9499.584175
920.296355,592.164754,-888.247130,-9729.412825
920.296675,1258.350101,0.000000,-9422.974625
920.296995,2516.700203,-740.205942,-10112.460574
920.297315,2294.638420,888.247130,-10495.508323
920.297634,296.082377,1332.370696,-9499.584175
920.297954,-1184.329507,666.185348,-9959.241474
920.298274,-1332.370696,370.102971,-8656.879127
920.298594,592.164754,740.205942,-9959.241474
920.298914,2442.679609,1554.432478,-10801.946522
920.299233,1258.350101,518.144159,-9729.412825
920.299553,1184.329507,-2664.741391,-9959.241474
920.299873,1702.473667,-2664.741391,-8963.317327
920.300193,2442.679609,-1554.432478,-10035.851024
920.300512,3775.050304,1480.411884,-10572.117872
920.300832,3108.864956,2886.803174,-10648.727422
920.301152,2516.700203,2368.659014,-11108.384721
920.301472,1702.473667,148.041188,-10189.070123
920.301791,666.185348,-2516.700203,-9806.022374
920.302111,814.226536,-2220.617826,-9806.022374
920.302431,1332.370696,-666.185348,-10035.851024
920.302751,2146.597232,740.205942,-10648.727422
920.303071,444.123565,592.164754,-10495.508323
920.303390,296.082377,-370.102971,-10265.679673
920.303710,0.000000,-1258.350101,-9806.022374
920.304030,-592.164754,-518.144159,-9729.412825
920.304350,740.205942,740.205942,-9959.241474
920.304669,2590.720797,2072.576638,-10418.898773
920.304989,2072.576638,1036.288319,-10189.070123
920.305309,2442.679609,518.144159,-10342.289223
920.305629,1850.514855,-1332.370696,-9576.193725
920.305949,2664.741391,-592.164754,-10418.898773
920.306268,1406.391290,0.000000,-10342.289223
920.306588,666.185348,814.226536,-10342.289223
920.306908,0.000000,1332.370696,-9806.022374
920.307228,-222.061783,666.185348,-10112.460574
920.307547,-518.144159,-370.102971,-10801.946522
920.307867,-1110.308913,-740.205942,-10725.336972
920.308187,-1554.432478,-740.205942,-9806.022374
920.308507,-1480.411884,-370.102971,-10342.289223
920.308826,-1480.411884,222.061783,-10572.117872
920.309146,-1480.411884,-666.185348,-10572.117872
920.309466,-3108.864956,74.020594,-10572.117872
920.309786,-4737.318029,962.267725,-9193.145976
920.310106,-3108.864956,518.144159,-10189.070123
920.310425,-1702.473667,1184.329507,-9806.022374
920.310745,-962.267725,-222.061783,-10189.070123
920.311065,0.000000,-370.102971,-10112.460574
920.311385,-962.267725,-2072.576638,-9193.145976
920.311704,-518.144159,-1702.473667,-10418.898773
920.312024,444.123565,222.061783,-9729.412825
920.312344,1850.514855,3182.885551,-9806.022374
920.312664,1998.556043,3182.885551,-10342.289223
920.312984,1110.308913,2220.617826,-9576.193725
920.313303,-444.123565,592.164754,-10189.070123
920.313623,0.000000,-370.102971,-9346.365076
920.313943,888.247130,814.226536,-9806.022374
920.314263,1480.411884,-296.082377,-10648.727422
920.314582,1776.494261,-148.041188,-10265.679673
920.314902,444.123565,-370.102971,-10342.289223
920.315222,-962.267725,740.205942,-10035.851024
920.315542,148.041188,3404.947333,-11184.994271
920.315861,1110.308913,4663.297435,-11261.603821
920.316181,2368.659014,5181.441594,-10035.851024
920.316501,2886.803174,2960.823768,-11874.480219
920.316821,4145.153275,-740.205942,-8963.317327
920.317141,4367.215058,-2812.782580,-9959.241474
920.317460,3701.029710,-3256.906145,-10265.679673
920.317780,1850.514855,-370.102971,-9116.536426
920.318100,1258.350101,2368.659014,-10725.336972
920.318420,962.267725,2368.659014,-10801.946522
920.318739,814.226536,370.102971,-9269.755526
920.319059,1258.350101,-1776.494261,-9806.022374
920.319379,740.205942,-1702.473667,-8963.317327
920.319699,1924.535449,-296.082377,-10725.336972
920.320019,2146.597232,592.164754,-10035.851024
920.320338,1776.494261,1480.411884,-8580.269578
920.320658,888.247130,444.123565,-10342.289223
920.320978,-222.061783,740.205942,-8580.269578
920.321298,-444.123565,0.000000,-9959.241474
920.321617,0.000000,814.226536,-9193.145976
920.321937,444.123565,-222.061783,-8886.707777
920.322257,1258.350101,-888.247130,-9576.193725
920.322577,888.247130,-962.267725,-9499.584175
920.322896,518.144159,-2368.659014,-9882.631924
920.323216,-814.226536,-740.205942,-10189.070123
920.323536,-1480.411884,814.226536,-9499.584175
920.323856,-1850.514855,3034.844362,-10495.508323
920.324176,-2072.576638,2664.741391,-10572.117872
920.324495,-1406.391290,962.267725,-10189.070123
920.324815,-1258.350101,-1332.370696,-11031.775171
920.325135,-1850.514855,-1924.535449,-10955.165621
920.325455,-1554.432478,-3034.844362,-10112.460574
920.325774,-1554.432478,-1110.308913,-10725.336972
920.326094,-592.164754,2146.597232,-11338.213370
920.326414,-1184.329507,3404.947333,-11951.089769
920.326734,-2368.659014,2368.659014,-9959.241474
920.327054,-1628.453072,0.000000,-10878.556072
920.327373,-222.061783,-2368.659014,-10265.679673
920.327693,740.205942,-3034.844362,-10265.679673
920.328013,-222.061783,-2072.576638,-10878.556072
920.328333,148.041188,0.000000,-9729.412825
920.328652,962.267725,1554.432478,-10495.508323
920.328972,1258.350101,2072.576638,-10495.508323
920.329292,-1110.308913,1184.329507,-9806.022374
920.329612,-1332.370696,0.000000,-10495.508323
920.329931,-1332.370696,-1998.556043,-9039.926876
920.330251,1480.411884,-3701.029710,-8963.317327
920.330571,1480.411884,-2368.659014,-9882.631924
920.330891,-222.061783,-2220.617826,-8810.098227
920.331211,1406.391290,-1184.329507,-9576.193725
920.331530,3552.988522,518.144159,-9346.365076
920.331850,5107.421000,1554.432478,-9422.974625
920.332170,3478.967927,2072.576638,-10648.727422
920.332490,2368.659014,1406.391290,-8886.707777
920.332809,1258.350101,-592.164754,-10035.851024
920.333129,1776.494261,-962.267725,-9346.365076
920.333449,2664.741391,-2664.741391,-9729.412825
920.333769,1554.432478,-2442.679609,-10648.727422
920.334088,1110.308913,-814.226536,-9346.365076
920.334408,1406.391290,1480.411884,-10265.679673
920.334728,1702.473667,2590.720797,-10265.679673
920.335048,3108.864956,3108.864956,-10955.165621
920.335368,3627.009116,1924.535449,-10801.946522
920.335687,1776.494261,518.144159,-10418.898773
920.336007,222.061783,0.000000,-11184.994271
920.336327,0.000000,-888.247130,-10495.508323
920.336647,888.247130,-370.102971,-9806.022374
920.336966,1924.535449,666.185348,-11031.775171
920.337286,1110.308913,1924.535449,-10418.898773
920.337606,2072.576638,2146.597232,-10648.727422
920.337926,296.082377,1258.350101,-10648.727422
920.338246,-1036.288319,1702.473667,-11797.870669
920.338565,-222.061783,592.164754,-11108.384721
920.338885,0.000000,-296.082377,-9652.803275
920.339205,370.102971,0.000000,-9882.631924
920.339525,666.185348,1702.473667,-10112.460574
920.339844,370.102971,3108.864956,-10189.070123
920.340164,814.226536,1850.514855,-10878.556072
920.340484,-1480.411884,888.247130,-9806.022374
920.340804,-2590.720797,-1110.308913,-9806.022374
920.341123,-2886.803174,-2368.659014,-9499.584175
920.341443,-2516.700203,-666.185348,-9269.755526
920.341763,-962.267725,148.041188,-9346.365076
920.342083,0.000000,2294.638420,-9652.803275
920.342403,740.205942,1406.391290,-9806.022374
920.342722,814.226536,444.123565,-10342.289223
920.343042,0.000000,0.000000,-9806.022374
920.343362,0.000000,444.123565,-9959.241474
920.343682,-592.164754,2294.638420,-9806.022374
920.344001,-814.226536,1776.494261,-9959.241474
920.344321,-1406.391290,962.267725,-10572.117872
920.344641,-2516.700203,-962.267725,-9729.412825
920.344961,74.020594,-1258.350101,-10112.460574
920.345281,-148.041188,222.061783,-9652.803275
920.345600,-148.041188,1184.329507,-10495.508323
920.345920,-1036.288319,1924.535449,-10801.946522
920.346240,-1480.411884,1702.473667,-9959.241474
920.346560,-296.082377,2220.617826,-10495.508323
920.346879,2368.659014,1332.370696,-11031.775171
920.347199,2886.803174,-148.041188,-10725.336972
920.347519,1628.453072,-1036.288319,-10801.946522
920.347839,444.123565,-1406.391290,-9422.974625
920.348158,2738.761985,74.020594,-10112.460574
920.348478,1850.514855,592.164754,-11031.775171
920.348798,0.000000,1480.411884,-10418.898773
920.349118,-444.123565,2368.659014,-10878.556072
920.349438,740.205942,2072.576638,-9576.193725
920.349757,2886.803174,888.247130,-10725.336972
920.350077,4145.153275,-740.205942,-10495.508323
920.350397,2442.679609,-1924.535449,-9269.755526
920.350717,1628.453072,-2368.659014,-10035.851024
920.351036,3849.070898,-1702.473667,-8580.269578
920.351356,5107.421000,-1258.350101,-10418.898773
920.351676,4293.194464,-222.061783,-10265.679673
920.351996,1554.432478,2072.576638,-9499.584175
920.352316,592.164754,4293.194464,-10801.946522
920.352635,1184.329507,2442.679609,-9039.926876
920.352955,1258.350101,-1480.411884,-9806.022374
920.353275,2442.679609,-5033.400406,-8963.317327
920.353595,1702.473667,-4959.379811,-8810.098227
920.353914,296.082377,-2516.700203,-9269.755526
920.354234,148.041188,-222.061783,-9269.755526
920.354554,592.164754,3108.864956,-10265.679673
920.354874,1776.494261,3552.988522,-10878.556072
920.355193,296.082377,1924.535449,-10112.460574
920.355513,-2220.617826,-1184.329507,-10189.070123
920.355833,-2960.823768,-2368.659014,-9116.536426
920.356153,-888.247130,-2590.720797,-9806.022374
920.356473,2738.761985,-1554.432478,-11031.775171
920.356792,1258.350101,-592.164754,-9729.412825
920.357112,-1998.556043,1702.473667,-10572.117872
920.357432,-3627.009116,1998.556043,-10801.946522
920.357752,-666.185348,1184.329507,-10265.679673
920.358071,1184.329507,-370.102971,-10878.556072
920.358391,-666.185348,-1258.350101,-10035.851024
920.358711,-1776.494261,-2072.576638,-9959.241474
920.359031,-1110.308913,-1628.453072,-10648.727422
920.359351,-222.061783,888.247130,-9959.241474
920.359670,0.000000,2812.782580,-11874.480219
920.359990,-2738.761985,4441.235652,-10035.851024
920.360310,-4071.132681,2960.823768,-10878.556072
920.360630,-2738.761985,-296.082377,-10418.898773
920.360949,-1480.411884,-1554.432478,-8427.050478
920.361269,518.144159,-1776.494261,-10418.898773
920.361589,0.000000,-1332.370696,-9499.584175
920.361909,-1998.556043,-222.061783,-10725.336972
920.362228,-222.061783,222.061783,-9806.022374
920.362548,1406.391290,1850.514855,-9652.803275
920.362868,1406.391290,2664.741391,-10495.508323
920.363188,1480.411884,1628.453072,-9269.755526
920.363508,222.061783,222.061783,-9882.631924
920.363827,-666.185348,-1184.329507,-10495.508323
920.364147,148.041188,-1480.411884,-8733.488677
920.364467,2812.782580,-1628.453072,-9422.974625
920.364787,3404.947333,148.041188,-9576.193725
920.365106,2664.741391,222.061783,-10112.460574
920.365426,3404.947333,1258.350101,-10035.851024
920.365746,2738.761985,2442.679609,-9729.412825
920.366066,2812.782580,666.185348,-10418.898773
920.366386,888.247130,0.000000,-9422.974625
920.366705,1776.494261,-1998.556043,-9806.022374
920.367025,2072.576638,-518.144159,-9882.631924
920.367345,2146.597232,518.144159,-10035.851024
920.367665,2294.638420,1924.535449,-10878.556072
920.367984,2442.679609,2220.617826,-10495.508323
920.368304,2368.659014,2294.638420,-10572.117872
920.368624,444.123565,1702.473667,-10955.165621
920.368944,1628.453072,518.144159,-9959.241474
920.369263,3478.967927,0.000000,-11184.994271
920.369583,3627.009116,148.041188,-11108.384721
920.369903,2516.700203,1702.473667,-10418.898773
920.370223,-370.102971,2886.803174,-10955.165621
920.370543,-666.185348,3627.009116,-9806.022374
920.370862,1036.288319,2738.761985,-11108.384721
920.371182,1998.556043,888.247130,-10725.336972
920.371502,-888.247130,-222.061783,-9806.022374
920.371822,-1702.473667,-1480.411884,-9729.412825
920.372141,-1332.370696,-1924.535449,-9193.145976
920.372461,1998.556043,-1258.350101,-10342.289223
920.372781,2146.597232,444.123565,-10342.289223
920.373101,74.020594,962.267725,-9499.584175
920.373421,-814.226536,1036.288319,-10189.070123
920.373740,-962.267725,814.226536,-10265.679673
920.374060,-518.144159,370.102971,-9652.803275
920.374380,148.041188,-444.123565,-10342.289223
920.374700,-814.226536,-1702.473667,-9116.536426
920.375019,-1850.514855,-2516.700203,-9576.193725
920.375339,-3034.844362,-2368.659014,-9346.365076
920.375659,-3182.885551,-888.247130,-9193.145976
920.375979,-1850.514855,148.041188,-9882.631924
920.376298,-1184.329507,1258.350101,-9193.145976
920.376618,-148.041188,1702.473667,-9959.241474
920.376938,-592.164754,74.020594,-10112.460574
920.377258,74.020594,222.061783,-9806.022374
920.377578,222.061783,0.000000,-10878.556072
920.377897,-1332.370696,1184.329507,-9959.241474
920.378217,-1702.473667,444.123565,-9959.241474
920.378537,-3478.967927,592.164754,-10572.117872
920.378857,-1258.350101,666.185348,-10035.851024
920.379176,666.185348,74.020594,-10955.165621
920.379496,1554.432478,296.082377,-10342.289223
920.379816,1628.453072,-370.102971,-10648.727422
920.380136,518.144159,-1406.391290,-11031.775171
920.380456,666.185348,-1332.370696,-9806.022374
920.380775,3330.926739,-962.267725,-10725.336972
920.381095,3404.947333,148.041188,-10572.117872
920.381415,1554.432478,2072.576638,-10572.117872
920.381735,-518.144159,3330.926739,-11414.822920
920.382054,-222.061783,2146.597232,-10495.508323
920.382374,3478.967927,370.102971,-10725.336972
920.382694,4071.132681,-666.185348,-10495.508323
920.383014,2220.617826,-2220.617826,-9346.365076
920.383333,2516.700203,-1110.308913,-9959.241474
920.383653,3330.926739,-444.123565,-9499.584175
920.383973,3775.050304,0.000000,-9576.193725
920.384293,2812.782580,1480.411884,-9882.631924
920.384613,1924.535449,2516.700203,-9806.022374
920.384932,1184.329507,1924.535449,-10265.679673
920.385252,2664.741391,1776.494261,-9346.365076
920.385572,3627.009116,1702.473667,-9729.412825
920.385892,3404.947333,-296.082377,-9499.584175
920.386211,1850.514855,-2294.638420,-9193.145976
920.386531,222.061783,-2590.720797,-8963.317327
920.386851,-370.102971,-2294.638420,-8656.879127
920.387171,-444.123565,740.205942,-9882.631924
920.387491,0.000000,1850.514855,-10112.460574
920.387810,888.247130,2590.720797,-9422.974625
920.388130,1776.494261,2368.659014,-10495.508323
920.388450,2220.617826,888.247130,-9882.631924
920.388770,2664.741391,0.000000,-10801.946522
920.389089,1258.350101,-518.144159,-10801.946522
920.389409,0.000000,-148.041188,-9729.412825
920.389729,-1850.514855,-814.226536,-11261.603821
920.390049,-3478.967927,-518.144159,-10112.460574
920.390369,-3034.844362,962.267725,-10725.336972
920.390688,-1036.288319,3627.009116,-11644.651570
920.391008,-962.267725,4737.318029,-11338.213370
920.391328,0.000000,3775.050304,-12027.699319
920.391648,-888.247130,888.247130,-10955.165621
920.391968,-1554.432478,-1554.432478,-9882.631924
920.392288,-1406.391290,-1406.391290,-10342.289223
920.392608,-2516.700203,2072.576638,-10189.070123
920.392928,-3256.906145,4441.235652,-11568.042020
920.393248,-3627.009116,4737.318029,-10035.851024
920.393568,-1480.411884,2220.617826,-9959.241474
920.393887,592.164754,-1258.350101,-9039.926876
920.394207,-888.247130,-2960.823768,-8810.098227
920.394527,-1184.329507,-3552.988522,-9346.365076
920.394847,-1702.473667,-1924.535449,-8886.707777
920.395167,-592.164754,-222.061783,-8810.098227
920.395487,1702.473667,74.020594,-9116.536426
920.395807,1258.350101,296.082377,-9039.926876
920.396127,1406.391290,1258.350101,-10112.460574
920.396447,1554.432478,518.144159,-9193.145976
920.396767,2220.617826,1110.308913,-9499.584175
920.397086,3404.947333,-888.247130,-9882.631924
920.397406,1702.473667,-2812.782580,-9193.145976
920.397726,74.020594,-3997.112087,-9729.412825
920.398046,-1998.556043,-2738.761985,-9499.584175
920.398366,-1480.411884,740.205942,-9422.974625
920.398686,1850.514855,2886.803174,-10801.946522
920.399006,4441.235652,3478.967927,-10725.336972
920.399326,5403.503377,2220.617826,-11031.775171
920.399646,4219.173869,0.000000,-10801.946522
920.399965,3330.926739,-1554.432478,-10418.898773
920.400285,4071.132681,-888.247130,-11108.384721
920.400605,3552.988522,370.102971,-10342.289223
920.400925,2960.823768,2368.659014,-10265.679673
920.401245,74.020594,2590.720797,-10878.556072
920.401565,-444.123565,2664.741391,-10801.946522
920.401885,1036.288319,1184.329507,-11721.261119
920.402205,1924.535449,-296.082377,-9576.193725
920.402525,2886.803174,-1406.391290,-10495.508323
920.402845,2590.720797,-1184.329507,-10572.117872
920.403164,0.000000,-666.185348,-10189.070123
920.403484,-592.164754,-222.061783,-10572.117872
920.403804,148.041188,1554.432478,-9269.755526
920.404124,1110.308913,2294.638420,-9959.241474
920.404444,1850.514855,1850.514855,-9959.241474
920.404764,370.102971,0.000000,-9729.412825
920.405084,-518.144159,-1628.453072,-9882.631924
920.405404,-962.267725,-3404.947333,-9116.536426
920.405724,-2738.761985,-4071.132681,-9039.926876
920.406044,-3775.050304,-2516.700203,-9652.803275
920.406363,-3330.926739,-740.205942,-9039.926876
920.406683,-814.226536,296.082377,-9806.022374
920.407003,666.185348,1480.411884,-9576.193725
920.407323,-962.267725,1850.514855,-9806.022374
920.407643,-1184.329507,962.267725,-10418.898773
920.407963,-1036.288319,-666.185348,-10265.679673
920.408283,296.082377,-740.205942,-10035.851024
920.408603,-2220.617826,-296.082377,-10265.679673
920.408923,-4663.297435,518.144159,-9806.022374
920.409242,-3182.885551,592.164754,-10495.508323
920.409562,0.000000,1480.411884,-10418.898773
920.409882,1184.329507,1258.350101,-10878.556072
920.410202,-148.041188,1850.514855,-10572.117872
920.410522,-1036.288319,1110.308913,-10342.289223
920.410842,-962.267725,370.102971,-10648.727422
920.411162,444.123565,-518.144159,-10265.679673
920.411482,1332.370696,0.000000,-10648.727422
920.411802,1480.411884,0.000000,-10342.289223
920.412122,1406.391290,2294.638420,-11414.822920
920.412441,1332.370696,2886.803174,-11108.384721
920.412761,3404.947333,3627.009116,-9882.631924
920.413081,3182.885551,3034.844362,-11261.603821
920.413401,1554.432478,1110.308913,-10725.336972
920.413721,-518.144159,-1554.432478,-10342.289223
920.414041,-1184.329507,-2368.659014,-9576.193725
920.414361,444.123565,-1850.514855,-8963.317327
920.414681,3034.844362,444.123565,-9806.022374
920.415001,3627.009116,1850.514855,-10418.898773
920.415321,2960.823768,2368.659014,-9652.803275
920.415640,2442.679609,2294.638420,-9882.631924
920.415960,4145.153275,2516.700203,-10035.851024
920.416280,3627.009116,1554.432478,-9806.022374
920.416600,3552.988522,0.000000,-10112.460574
920.416920,740.205942,-1628.453072,-8733.488677
920.417240,666.185348,-2368.659014,-9269.755526
920.417560,296.082377,-1850.514855,-9039.926876
920.417880,370.102971,296.082377,-9269.755526
920.418200,2072.576638,1850.514855,-10342.289223
920.418519,2220.617826,2294.638420,-9499.584175
920.418839,2738.761985,1258.350101,-10265.679673
920.419159,1776.494261,1480.411884,-10418.898773
920.419479,740.205942,666.185348,-10035.851024
920.419799,-222.061783,296.082377,-10342.289223
920.420119,-518.144159,518.144159,-10265.679673
920.420439,-1406.391290,518.144159,-10342.289223
920.420759,-1480.411884,814.226536,-10418.898773
920.421079,-1184.329507,666.185348,-10265.679673
920.421399,-518.144159,666.185348,-10725.336972
920.421718,0.000000,962.267725,-10725.336972
920.422038,-74.020594,888.247130,-10265.679673
920.422358,-1554.432478,222.061783,-10572.117872
920.422678,-518.144159,-370.102971,-10418.898773
920.422998,444.123565,-1036.288319,-10648.727422
920.423318,222.061783,0.000000,-10189.070123
920.423638,592.164754,2072.576638,-11108.384721
920.423958,-296.082377,2220.617826,-10801.946522
920.424278,-1406.391290,2368.659014,-10648.727422
920.424598,-1702.473667,74.020594,-11184.994271
920.424917,-3256.906145,-1406.391290,-9422.974625
920.425237,-1998.556043,-1184.329507,-9806.022374
920.425557,-370.102971,-222.061783,-10035.851024
920.425877,148.041188,1628.453072,-10265.679673
920.426197,814.226536,2516.700203,-10648.727422
920.426517,-222.061783,1998.556043,-9422.974625
920.426837,-1628.453072,1036.288319,-9116.536426
920.427157,-222.061783,-962.267725,-9959.241474
920.427477,1184.329507,-1332.370696,-8503.660028
920.427796,1628.453072,-1406.391290,-10342.289223
920.428116,1776.494261,-1332.370696,-9269.755526
920.428436,0.000000,-1702.473667,-9652.803275
920.428756,0.000000,-2294.638420,-10265.679673
920.429076,-1850.514855,-1554.432478,-8886.707777
920.429396,74.020594,-592.164754,-10112.460574
920.429716,888.247130,740.205942,-9882.631924
920.430036,962.267725,888.247130,-10265.679673
920.430356,1184.329507,814.226536,-10648.727422
920.430676,1850.514855,-888.247130,-9882.631924
920.430995,3182.885551,-2146.597232,-10189.070123
920.431315,2516.700203,-2516.700203,-10572.117872
920.431635,1924.535449,-888.247130,-10035.851024
920.431955,1628.453072,1036.288319,-11108.384721
920.432275,962.267725,2516.700203,-9806.022374
920.432595,1628.453072,2146.597232,-10801.946522
920.432915,1998.556043,1480.411884,-11031.775171
920.433235,1036.288319,-444.123565,-10112.460574
920.433555,1406.391290,-1776.494261,-9576.193725
920.433875,1406.391290,-1628.453072,-9652.803275
920.434194,1776.494261,-444.123565,-9576.193725
920.434514,2368.659014,1776.494261,-10189.070123
920.434834,1406.391290,2072.576638,-9806.022374
920.435154,518.144159,1628.453072,-10265.679673
920.435474,296.082377,370.102971,-10189.070123
920.435794,1258.350101,-962.267725,-9422.974625
920.436114,2072.576638,-2072.576638,-10495.508323
920.436434,1998.556043,-1406.391290,-9422.974625
920.436754,-444.123565,-444.123565,-10035.851024
920.437073,-296.082377,-444.123565,-9576.193725
920.437393,1628.453072,1406.391290,-9346.365076
920.437713,2220.617826,1332.370696,-11031.775171
920.438033,74.020594,962.267725,-9422.974625
920.438353,-1850.514855,-518.144159,-10648.727422
920.438673,-2368.659014,-1332.370696,-9806.022374
920.438993,-518.144159,-1036.288319,-9269.755526
920.439313,666.185348,370.102971,-10801.946522
920.439633,-370.102971,814.226536,-9806.022374
920.439953,-1554.432478,1776.494261,-10189.070123
920.440272,-2294.638420,962.267725,-10418.898773
920.440592,-518.144159,1258.350101,-9652.803275
920.440912,1036.288319,296.082377,-10878.556072
920.441232,-1036.288319,74.020594,-9959.241474
920.441552,-2146.597232,666.185348,-9959.241474
920.441872,-2146.597232,296.082377,-10725.336972
920.442192,-1110.308913,814.226536,-9422.974625
920.442512,1332.370696,814.226536,-10572.117872
920.442832,1110.308913,2368.659014,-10572.117872
920.443152,-370.102971,2886.803174,-10648.727422
920.443471,-1036.288319,2516.700203,-9729.412825
920.443791,814.226536,1702.473667,-10112.460574
920.444111,2220.617826,666.185348,-10265.679673
920.444431,1924.535449,1036.288319,-10189.070123
920.444751,1702.473667,1776.494261,-10112.460574
920.445071,2220.617826,1998.556043,-10342.289223
920.445391,1924.535449,1702.473667,-9806.022374
920.445711,2368.659014,592.164754,-10725.336972
920.446031,1110.308913,0.000000,-9806.022374
920.446350,-1036.288319,222.061783,-10112.460574
920.446670,-444.123565,296.082377,-9806.022374
920.446990,1924.535449,888.247130,-9576.193725
920.447310,3182.885551,888.247130,-10035.851024
920.447630,2368.659014,0.000000,-10189.070123
920.447950,740.205942,-1036.288319,-9729.412825
920.448270,148.041188,-1776.494261,-9806.022374
920.448590,1332.370696,-1406.391290,-8580.269578
920.448910,2294.638420,0.000000,-9806.022374
920.449230,3552.988522,1332.370696,-9806.022374
920.449549,1776.494261,1628.453072,-10112.460574
920.449869,-148.041188,222.061783,-10189.070123
920.450189,-1480.411884,1036.288319,-9729.412825
920.450509,-666.185348,1036.288319,-9806.022374
920.450829,592.164754,592.164754,-10342.289223
920.451149,1258.350101,888.247130,-10265.679673
920.451469,-666.185348,1110.308913,-10572.117872
920.451789,-1850.514855,0.000000,-10342.289223
920.452109,-370.102971,-1258.350101,-9882.631924
920.452429,2072.576638,-1554.432478,-10112.460574
920.452748,2072.576638,296.082377,-10189.070123
920.453068,148.041188,444.123565,-10342.289223
920.453388,-962.267725,-518.144159,-9729.412825
920.453708,0.000000,-444.123565,-10112.460574
920.454028,296.082377,-814.226536,-10495.508323
920.454348,-1406.391290,222.061783,-10572.117872
920.454668,-2294.638420,592.164754,-10265.679673
920.454988,-3108.864956,-592.164754,-8733.488677
920.455308,0.000000,-1332.370696,-10189.070123
920.455627,1480.411884,-1406.391290,-10878.556072
920.455947,592.164754,-2368.659014,-10265.679673
920.456267,370.102971,-1628.453072,-11031.775171
920.456587,-814.226536,-814.226536,-9806.022374
920.456907,-1628.453072,1332.370696,-9806.022374
920.457227,-740.205942,3034.844362,-10265.679673
920.457547,-740.205942,2590.720797,-10878.556072
920.457867,0.000000,1258.350101,-10112.460574
920.458187,-148.041188,-1998.556043,-10112.460574
920.458507,1036.288319,-3034.844362,-9806.022374
920.458826,1406.391290,-3256.906145,-9806.022374
920.459146,370.102971,-518.144159,-9576.193725
920.459466,-518.144159,1776.494261,-9806.022374
920.459786,-592.164754,2590.720797,-9882.631924
920.460106,1258.350101,1776.494261,-10418.898773
920.460426,3404.947333,0.000000,-10572.117872
920.460746,1850.514855,148.041188,-9499.584175
920.461066,0.000000,1554.432478,-10035.851024
920.461386,-592.164754,1258.350101,-10189.070123
920.461706,962.267725,0.000000,-9652.803275
920.462025,2516.700203,-592.164754,-10342.289223
920.462345,1998.556043,-2738.761985,-9652.803275
920.462665,444.123565,-3182.885551,-9729.412825
920.462985,-740.205942,-1480.411884,-9729.412825
920.463305,370.102971,814.226536,-9576.193725
920.463625,2590.720797,1850.514855,-10801.946522
920.463945,3627.009116,1554.432478,-10495.508323
920.464265,3478.967927,444.123565,-10342.289223
920.464585,962.267725,-444.123565,-11338.213370
920.464904,0.000000,814.226536,-9576.193725
920.465224,2368.659014,1776.494261,-11491.432470
920.465544,3330.926739,2960.823768,-10342.289223
920.465864,1628.453072,2294.638420,-10189.070123
920.466184,-222.061783,0.000000,-10725.336972
920.466504,-666.185348,-962.267725,-9576.193725
920.466824,1924.535449,-148.041188,-10418.898773
920.467144,2516.700203,2072.576638,-10342.289223
920.467464,1776.494261,2516.700203,-9806.022374
920.467784,-740.205942,2590.720797,-10572.117872
920.468103,740.205942,1554.432478,-9269.755526
920.468423,296.082377,2220.617826,-9959.241474
920.468743,592.164754,2072.576638,-10495.508323
920.469063,518.144159,1776.494261,-9346.365076
920.469383,74.020594,0.000000,-10035.851024
920.469703,148.041188,-1776.494261,-9269.755526
920.470023,0.000000,-1702.473667,-9576.193725
920.470343,-2368.659014,-1184.329507,-9652.803275
920.470663,-3923.091493,-148.041188,-9193.145976
920.470983,-2738.761985,1110.308913,-10265.679673
920.471302,-1258.350101,222.061783,-9959.241474
920.471622,592.164754,370.102971,-9806.022374
920.471942,-1406.391290,1258.350101,-10495.508323
920.472262,-1332.370696,1110.308913,-9882.631924
920.472582,222.061783,2146.597232,-11031.775171
920.472902,1628.453072,1702.473667,-10648.727422
920.473222,1406.391290,-296.082377,-9806.022374
920.473542,-814.226536,-888.247130,-10189.070123
920.473862,-3775.050304,-1406.391290,-9959.241474
920.474181,-2812.782580,148.041188,-10648.727422
920.474501,-666.185348,1776.494261,-11031.775171
920.474821,-1184.329507,2368.659014,-10648.727422
920.475141,-1406.391290,1258.350101,-10725.336972
920.475461,-888.247130,1184.329507,-10418.898773
920.475781,888.247130,1036.288319,-11491.432470
920.476101,2146.597232,962.267725,-10189.070123
920.476421,740.205942,592.164754,-10725.336972
920.476741,1480.411884,592.164754,-10418.898773
920.477061,222.061783,0.000000,-9422.974625
920.477380,148.041188,888.247130,-10342.289223
920.477700,2738.761985,0.000000,-9576.193725
920.478020,3552.988522,-296.082377,-10112.460574
920.478340,3849.070898,-1406.391290,-10035.851024
920.478660,740.205942,-2294.638420,-9422.974625
920.478980,-74.020594,-1480.411884,-9269.755526
920.479300,0.000000,-1332.370696,-9729.412825
920.479620,2590.720797,444.123565,-9039.926876
920.479940,2812.782580,296.082377,-10035.851024
920.480260,3552.988522,148.041188,-9269.755526
920.480579,5699.585753,-444.123565,-9576.193725
920.480899,5921.647536,-814.226536,-9806.022374
920.481219,3627.009116,-592.164754,-10265.679673
920.481539,1628.453072,-148.041188,-10265.679673
920.481859,0.000000,296.082377,-9729.412825
920.482179,74.020594,-296.082377,-10342.289223
920.482499,1036.288319,-1776.494261,-9652.803275
920.482819,1110.308913,-1554.432478,-9806.022374
920.483139,3256.906145,-2738.761985,-10725.336972
920.483459,3182.885551,-1036.288319,-9039.926876
920.483778,1110.308913,1258.350101,-11184.994271
920.484098,-1628.453072,2812.782580,-10878.556072
920.484418,0.000000,2812.782580,-10189.070123
920.484738,2294.638420,1332.370696,-11414.822920
920.485058,0.000000,0.000000,-9806.022374
920.485378,-2960.823768,-444.123565,-9652.803275
920.485698,-518.144159,296.082377,-10572.117872
920.486018,-222.061783,0.000000,-10112.460574
920.486338,1628.453072,-1258.350101,-10648.727422
920.486657,-2738.761985,0.000000,-10035.851024
920.486977,-4219.173869,1184.329507,-9806.022374
920.487297,-3330.926739,740.205942,-10112.460574
920.487617,-1480.411884,740.205942,-9576.193725
920.487937,-296.082377,74.020594,-10572.117872
920.488257,-1332.370696,-1036.288319,-10035.851024
920.488577,-1036.288319,-1110.308913,-8963.317327
920.488897,-666.185348,-888.247130,-10035.851024
920.489217,-222.061783,0.000000,-9729.412825
920.489537,1184.329507,592.164754,-10112.460574
920.489857,0.000000,1184.329507,-10342.289223
920.490177,-1998.556043,0.000000,-9882.631924
920.490497,-3108.864956,0.000000,-9576.193725
920.490817,-1554.432478,-370.102971,-9652.803275
920.491137,592.164754,2072.576638,-10265.679673
920.491457,1184.329507,3997.112087,-10495.508323
920.491777,518.144159,3775.050304,-10801.946522
920.492097,1628.453072,-222.061783,-9959.241474
920.492417,1998.556043,-2442.679609,-9806.022374
920.492737,1776.494261,-1628.453072,-10112.460574
920.493057,-518.144159,296.082377,-10878.556072
920.493377,74.020594,3849.070898,-10418.898773
920.493697,-1258.350101,4293.194464,-11108.384721
920.494017,370.102971,1998.556043,-9806.022374
920.494337,2368.659014,-444.123565,-10572.117872
920.494657,2886.803174,-1258.350101,-10035.851024
920.494977,1036.288319,-2220.617826,-9576.193725
920.495297,1628.453072,-888.247130,-9882.631924
920.495617,2664.741391,148.041188,-9882.631924
920.495937,2294.638420,0.000000,-10189.070123
920.496257,2812.782580,-962.267725,-9806.022374
920.496577,1554.432478,888.247130,-9806.022374
920.496897,814.226536,1628.453072,-10725.336972
920.497217,1480.411884,1406.391290,-9959.241474
920.497537,3182.885551,1628.453072,-10035.851024
920.497857,3256.906145,-1258.350101,-10112.460574
920.498177,1850.514855,-2146.597232,-9039.926876
920.498497,296.082377,-962.267725,-10648.727422
920.498817,370.102971,-740.205942,-9729.412825
920.499137,2368.659014,1998.556043,-9959.241474
920.499457,3701.029710,3034.844362,-10495.508323
920.499777,1924.535449,1998.556043,-10189.070123
920.500097,222.061783,296.082377,-10418.898773
920.500417,-814.226536,-518.144159,-9806.022374
920.500737,814.226536,-888.247130,-9422.974625
920.501057,2516.700203,-518.144159,-10189.070123
920.501377,1776.494261,1036.288319,-10418.898773
920.501697,-444.123565,296.082377,-10265.679673
920.502017,-1258.350101,0.000000,-10495.508323
920.502337,0.000000,296.082377,-10265.679673
920.502657,1110.308913,-370.102971,-10878.556072
920.502977,370.102971,-518.144159,-10112.460574
920.503297,-1776.494261,-592.164754,-10418.898773
920.503617,-2590.720797,-592.164754,-9959.241474
920.503937,-740.205942,518.144159,-9882.631924
920.504257,-1776.494261,296.082377,-10495.508323
920.504577,-1702.473667,1702.473667,-10189.070123
920.504897,-222.061783,962.267725,-10418.898773
920.505217,1184.329507,-518.144159,-10112.460574
920.505537,-518.144159,-814.226536,-10035.851024
920.505857,-2812.782580,-2294.638420,-10495.508323
920.506177,-3182.885551,-2294.638420,-9882.631924
920.506497,-3034.844362,0.000000,-9806.022374
920.506817,-1406.391290,1554.432478,-10035.851024
920.507137,0.000000,1480.411884,-9806.022374
920.507457,1702.473667,74.020594,-10878.556072
920.507778,962.267725,666.185348,-10648.727422
920.508098,-444.123565,-222.061783,-10112.460574
920.508418,-1184.329507,1480.411884,-10112.460574
920.508738,-1184.329507,2072.576638,-10342.289223
920.509058,1850.514855,1332.370696,-10189.070123
920.509378,370.102971,0.000000,-10878.556072
920.509698,-1554.432478,-2368.659014,-8963.317327
920.510018,-1332.370696,-2294.638420,-10112.460574
920.510338,666.185348,-444.123565,-9652.803275
920.510658,4367.215058,2146.597232,-11184.994271
920.510978,4737.318029,3775.050304,-10572.117872
920.511298,2368.659014,4293.194464,-10648.727422
920.511618,444.123565,2812.782580,-10572.117872
920.511938,2442.679609,962.267725,-9729.412825
920.512258,4515.256246,-1036.288319,-10189.070123
920.512578,4737.318029,-2368.659014,-9806.022374
920.512898,3182.885551,-2146.597232,-9576.193725
920.513218,1924.535449,-1776.494261,-10572.117872
920.513538,1406.391290,74.020594,-9576.193725
920.513858,1554.432478,2220.617826,-10801.946522
920.514178,1258.350101,4071.132681,-11108.384721
920.514498,296.082377,3849.070898,-9882.631924
920.514818,2590.720797,1258.350101,-10878.556072
920.515138,2886.803174,-1184.329507,-9422.974625
920.515458,2738.761985,-2516.700203,-10112.460574
920.515778,3256.906145,-2368.659014,-10265.679673
920.516098,1628.453072,296.082377,-9269.755526
920.516418,518.144159,3034.844362,-10495.508323
920.516738,-518.144159,3256.906145,-10189.070123
920.517058,1702.473667,3256.906145,-10035.851024
920.517378,1554.432478,1702.473667,-10955.165621
920.517698,-962.267725,444.123565,-9499.584175
920.518018,-3478.967927,-444.123565,-9806.022374
920.518338,-2664.741391,-1258.350101,-9729.412825
920.518658,740.205942,-2072.576638,-9116.536426
920.518978,1332.370696,-1036.288319,-9422.974625
920.519298,-222.061783,-740.205942,-9269.755526
920.519618,-518.144159,740.205942,-9882.631924
920.519938,-296.082377,518.144159,-9193.145976
920.520258,-296.082377,1480.411884,-10035.851024
920.520578,-666.185348,0.000000,-9959.241474
920.520898,-1406.391290,-1998.556043,-9729.412825
920.521218,-1850.514855,-2368.659014,-10112.460574
920.521538,-2886.803174,-2368.659014,-10112.460574
920.521858,-2294.638420,0.000000,-9729.412825
920.522178,-740.205942,2368.659014,-10878.556072
920.522498,0.000000,2812.782580,-10648.727422
920.522818,-444.123565,1924.535449,-10801.946522
920.523138,-2442.679609,-222.061783,-10265.679673
920.523458,-3108.864956,-592.164754,-10801.946522
920.523778,-1110.308913,-370.102971,-11338.213370
920.524098,-592.164754,1332.370696,-10495.508323
920.524418,-740.205942,2516.700203,-11644.651570
920.524738,592.164754,2294.638420,-9346.365076
920.525058,1184.329507,2220.617826,-10648.727422
920.525378,2590.720797,814.226536,-11031.775171
920.525698,2294.638420,0.000000,-10035.851024
920.526018,3256.906145,74.020594,-10878.556072
920.526338,2368.659014,0.000000,-10342.289223
920.526658,1702.473667,222.061783,-9652.803275
920.526978,1850.514855,518.144159,-9806.022374
920.527298,1776.494261,74.020594,-9652.803275
920.527618,740.205942,0.000000,-10265.679673
920.527938,0.000000,-1036.288319,-9959.241474
920.528258,-148.041188,-1480.411884,-8733.488677
920.528578,1554.432478,-148.041188,-10265.679673
920.528898,1258.350101,-1406.391290,-8963.317327
920.529218,2442.679609,-2072.576638,-9193.145976
920.529539,1776.494261,-1332.370696,-9346.365076
920.529859,2960.823768,-1036.288319,-9422.974625
920.530179,4441.235652,444.123565,-9576.193725
920.530499,3701.029710,1184.329507,-10495.508323
920.530819,2664.741391,666.185348,-9806.022374
920.531139,666.185348,0.000000,-9652.803275
920.531459,296.082377,-1258.350101,-10189.070123
920.531779,2220.617826,-1036.288319,-9882.631924
920.532099,1332.370696,148.041188,-10112.460574
920.532419,1110.308913,1554.432478,-10648.727422
920.532739,-370.102971,2072.576638,-10955.165621
920.533059,592.164754,1702.473667,-10572.117872
920.533379,1628.453072,2220.617826,-10112.460574
920.533699,0.000000,1258.350101,-10878.556072
920.534019,-888.247130,74.020594,-10725.336972
920.534339,-592.164754,296.082377,-10035.851024
920.534659,222.061783,592.164754,-9116.536426
920.534979,2368.659014,-592.164754,-10342.289223
920.535299,1924.535449,-222.061783,-10495.508323
920.535619,-1628.453072,0.000000,-10418.898773
920.535939,-4293.194464,1110.308913,-9806.022374
920.536259,-3034.844362,2368.659014,-9729.412825
920.536579,-1184.329507,1628.453072,-10418.898773
920.536899,2146.597232,-148.041188,-10035.851024
920.537219,666.185348,-296.082377,-9882.631924
920.537539,-1258.350101,74.020594,-10418.898773
920.537859,-2590.720797,0.000000,-9346.365076
920.538179,-1258.350101,0.000000,-9499.584175
920.538499,-296.082377,222.061783,-9652.803275
920.538819,148.041188,222.061783,-9422.974625
920.539139,370.102971,-888.247130,-10189.070123
920.539459,-1480.411884,-666.185348,-8886.707777
920.539779,-1924.535449,222.061783,-9729.412825
920.540099,-1036.288319,1258.350101,-10112.460574
920.540419,1480.411884,592.164754,-9806.022374
920.540739,444.123565,1110.308913,-9882.631924
920.541059,-444.123565,222.061783,-9346.365076
920.541379,444.123565,1036.288319,-10342.289223
920.541699,2294.638420,444.123565,-10189.070123
920.542019,2960.823768,-296.082377,-9576.193725
920.542339,222.061783,1554.432478,-11031.775171
920.542659,-444.123565,2146.597232,-10112.460574
920.542979,666.185348,2072.576638,-10495.508323
920.543299,2368.659014,1406.391290,-10801.946522
920.543619,1110.308913,1776.494261,-10112.460574
920.543939,1406.391290,1258.350101,-11568.042020
920.544259,2368.659014,0.000000,-10265.679673
920.544579,1036.288319,592.164754,-10112.460574
920.544899,1554.432478,740.205942,-10725.336972
920.545219,1332.370696,740.205942,-9806.022374
920.545539,1924.535449,0.000000,-10342.289223
920.545859,1480.411884,0.000000,-10342.289223
920.546179,962.267725,518.144159,-9959.241474
920.546499,2664.741391,814.226536,-10495.508323
920.546819,3775.050304,370.102971,-10035.851024
920.547139,3330.926739,518.144159,-10265.679673
920.547459,518.144159,888.247130,-10189.070123
920.547779,-518.144159,370.102971,-9576.193725
920.548099,1332.370696,444.123565,-10265.679673
920.548419,740.205942,0.000000,-9959.241474
920.548739,518.144159,-666.185348,-9576.193725
920.549059,814.226536,-2146.597232,-10725.336972
920.549379,2072.576638,-1924.535449,-9576.193725
920.549699,2442.679609,-444.123565,-9652.803275
920.550019,1554.432478,740.205942,-9882.631924
920.550339,-518.144159,1406.391290,-9193.145976
920.550659,-2368.659014,1554.432478,-9806.022374
920.550980,-2738.761985,962.267725,-9806.022374
920.551300,-1258.350101,-2368.659014,-9346.365076
920.551620,148.041188,-3849.070898,-9269.755526
920.551940,296.082377,-3478.967927,-9806.022374
920.552260,-1702.473667,-1702.473667,-9729.412825
920.552580,-2294.638420,-518.144159,-9729.412825
920.552900,-740.205942,1036.288319,-10572.117872
920.553220,-962.267725,1924.535449,-10572.117872
920.553540,-1184.329507,1036.288319,-10725.336972
920.553860,-2738.761985,962.267725,-10648.727422
920.554180,-3182.885551,814.226536,-10878.556072
920.554500,-814.226536,0.000000,-12104.308868
920.554820,1776.494261,0.000000,-11797.870669
920.555140,592.164754,-592.164754,-10801.946522
920.555460,-592.164754,-888.247130,-10648.727422
920.555780,444.123565,222.061783,-10955.165621
920.556100,444.123565,518.144159,-10725.336972
920.556420,0.000000,2590.720797,-11184.994271
920.556740,-2590.720797,2072.576638,-10418.898773
920.557060,-370.102971,2368.659014,-10955.165621
920.557380,814.226536,1924.535449,-9882.631924
920.557700,4367.215058,0.000000,-10725.336972
920.558020,2590.720797,-1702.473667,-9806.022374
920.558340,-148.041188,-1184.329507,-9422.974625
920.558660,-888.247130,-1628.453072,-8886.707777
920.558980,444.123565,296.082377,-8963.317327
920.559300,2220.617826,1850.514855,-9806.022374
920.559620,2812.782580,2664.741391,-9346.365076
920.559940,2294.638420,2294.638420,-8963.317327
920.560260,2294.638420,962.267725,-9039.926876
920.560580,3627.009116,-814.226536,-8656.879127
920.560900,4885.359217,-1776.494261,-9193.145976
920.561220,4219.173869,-962.267725,-9269.755526
920.561540,2220.617826,-222.061783,-9346.365076
920.561860,370.102971,0.000000,-9269.755526
920.562180,518.144159,0.000000,-9499.584175
920.562500,1850.514855,518.144159,-9729.412825
920.562820,4219.173869,1036.288319,-10418.898773
920.563140,2368.659014,3923.091493,-10955.165621
920.563460,1406.391290,2146.597232,-11568.042020
920.563780,1184.329507,1332.370696,-10878.556072
920.564100,2220.617826,666.185348,-11031.775171
920.564420,1258.350101,-444.123565,-10495.508323
920.564740,0.000000,592.164754,-11184.994271
920.565060,-666.185348,2368.659014,-10878.556072
920.565380,-592.164754,3923.091493,-11491.432470
920.565700,148.041188,3404.947333,-10801.946522
920.566020,2812.782580,2294.638420,-11797.870669
920.566340,-296.082377,1480.411884,-10265.679673
920.566660,-370.102971,-2072.576638,-9959.241474
920.566980,148.041188,-1850.514855,-10265.679673
920.567300,-2146.597232,370.102971,-9499.584175
920.567620,-2664.741391,518.144159,-9499.584175
920.567940,-1480.411884,2368.659014,-9422.974625
920.568260,-814.226536,-518.144159,-8810.098227
920.568580,-888.247130,-148.041188,-9959.241474
920.568900,-1036.288319,-814.226536,-6818.249932
920.569220,1776.494261,-1924.535449,-9806.022374
920.569540,-222.061783,-2368.659014,-8656.879127
920.569860,-2886.803174,-1554.432478,-9652.803275
920.570180,-3552.988522,-2146.597232,-8273.831378
920.570500,-1998.556043,-518.144159,-8503.660028
920.570820,962.267725,-1110.308913,-9422.974625
920.571140,518.144159,0.000000,-9882.631924
920.571460,-2146.597232,0.000000,-9729.412825
920.571780,-2516.700203,962.267725,-10112.460574
920.572100,-370.102971,666.185348,-9576.193725
920.572420,1036.288319,-740.205942,-10572.117872
920.572741,740.205942,0.000000,-10878.556072
920.573061,-1184.329507,-592.164754,-11721.261119
920.573381,592.164754,0.000000,-11721.261119
920.573701,-666.185348,1184.329507,-10342.289223
920.574021,888.247130,148.041188,-11338.213370
920.574341,592.164754,1628.453072,-11031.775171
920.574661,-148.041188,444.123565,-11184.994271
920.574981,1924.535449,444.123565,-11108.384721
920.575301,2368.659014,740.205942,-10801.946522
920.575621,3775.050304,518.144159,-11338.213370
920.575941,4219.173869,-518.144159,-11031.775171
920.576261,2294.638420,1110.308913,-10801.946522
920.576581,1702.473667,1332.370696,-10955.165621
920.576901,2738.761985,1554.432478,-9806.022374
920.577221,3182.885551,1554.432478,-10801.946522
920.577541,3404.947333,1406.391290,-10495.508323
920.577861,3182.885551,-222.061783,-9729.412825
920.578181,2442.679609,-1776.494261,-10112.460574
920.578501,1480.411884,-2220.617826,-8580.269578
920.578821,-296.082377,-1036.288319,-9116.536426
920.579141,1776.494261,-666.185348,-9499.584175
920.579461,148.041188,888.247130,-8656.879127
920.579781,1036.288319,1702.473667,-9806.022374
920.580101,2886.803174,1480.411884,-9806.022374
920.580421,4663.297435,370.102971,-9806.022374
920.580741,4293.194464,-1480.411884,-9882.631924
920.581061,2072.576638,-1554.432478,-9346.365076
920.581381,-1332.370696,-1110.308913,-8963.317327
920.581701,-2220.617826,-666.185348,-10725.336972
920.582021,0.000000,370.102971,-9346.365076
920.582341,74.020594,1480.411884,-10112.460574
920.582661,-1480.411884,1332.370696,-9652.803275
920.582981,-1332.370696,592.164754,-10265.679673
920.583301,222.061783,-370.102971,-10572.117872
920.583621,1110.308913,1702.473667,-10495.508323
920.583941,518.144159,518.144159,-11031.775171
920.584261,-1924.535449,1702.473667,-10418.898773
920.584581,-1110.308913,370.102971,-11184.994271
920.584901,-2368.659014,666.185348,-10189.070123
920.585221,-1702.473667,1184.329507,-10572.117872
920.585541,-1850.514855,1184.329507,-10801.946522
920.585861,-2442.679609,962.267725,-10495.508323
920.586181,-1332.370696,-222.061783,-10572.117872
920.586501,-1480.411884,1554.432478,-10572.117872
920.586821,-1036.288319,1258.350101,-10418.898773
920.587141,222.061783,370.102971,-10495.508323
920.587461,-1184.329507,1850.514855,-10342.289223
920.587781,0.000000,1850.514855,-10648.727422
920.588101,-592.164754,888.247130,-9806.022374
920.588421,0.000000,740.205942,-10572.117872
920.588741,1628.453072,-148.041188,-10418.898773
920.589061,2220.617826,-740.205942,-9576.193725
920.589381,296.082377,-888.247130,-9193.145976
920.589701,0.000000,0.000000,-9499.584175
920.590021,-2072.576638,2368.659014,-9652.803275
920.590341,-1332.370696,1184.329507,-9729.412825
920.590661,-1628.453072,0.000000,-8810.098227
920.590981,296.082377,-2960.823768,-9269.755526
920.591301,1480.411884,-2738.761985,-8886.707777
920.591621,3478.967927,-592.164754,-9729.412825
920.591941,5107.421000,222.061783,-10189.070123
920.592261,3775.050304,1406.391290,-10342.289223
920.592581,1480.411884,1850.514855,-10035.851024
920.592901,518.144159,2516.700203,-9652.803275
920.593221,-592.164754,2072.576638,-9116.536426
920.593541,2442.679609,74.020594,-9806.022374
920.593860,4663.297435,-666.185348,-11031.775171
920.594180,5033.400406,-2220.617826,-10112.460574
920.594500,3997.112087,-1554.432478,-10725.336972
920.594820,666.185348,-444.123565,-9269.755526
920.595140,-962.267725,1776.494261,-11414.822920
920.595460,-2442.679609,2664.741391,-10495.508323
920.595780,-814.226536,2960.823768,-10801.946522
920.596099,1258.350101,1628.453072,-11338.213370
920.596419,1406.391290,0.000000,-9882.631924
920.596739,2664.741391,-1406.391290,-11184.994271
920.597059,2960.823768,-888.247130,-9882.631924
920.597379,1480.411884,0.000000,-9882.631924
920.597699,2368.659014,1258.350101,-10648.727422
920.598018,1850.514855,-518.144159,-9882.631924
920.598338,2812.782580,370.102971,-10035.851024
920.598658,2516.700203,2590.720797,-10342.289223
920.598978,814.226536,3330.926739,-10035.851024
920.599298,-666.185348,1258.350101,-9729.412825
920.599618,-666.185348,-1480.411884,-9346.365076
920.599938,-814.226536,-3775.050304,-8427.050478
920.600257,592.164754,-5033.400406,-8197.221829
920.600577,-2368.659014,-3256.906145,-8503.660028
920.600897,-3997.112087,-740.205942,-9576.193725
920.601217,-4885.359217,1924.535449,-9729.412825
920.601537,-2738.761985,1998.556043,-9576.193725
920.601857,-444.123565,74.020594,-10342.289223
920.602177,-1628.453072,-1776.494261,-9346.365076
920.602496,-1924.535449,-1036.288319,-9882.631924
920.602816,0.000000,-74.020594,-9959.241474
920.603136,2590.720797,0.000000,-10572.117872
920.603456,2590.720797,-370.102971,-11261.603821
920.603776,-2072.576638,-222.061783,-9959.241474
920.604096,-2738.761985,888.247130,-10878.556072
920.604416,-2220.617826,2812.782580,-10035.851024
920.604735,1036.288319,3478.967927,-11108.384721
920.605055,296.082377,3627.009116,-10955.165621
920.605375,-666.185348,1998.556043,-11108.384721
920.605695,-592.164754,-1110.308913,-9882.631924
920.606015,148.041188,-2220.617826,-10495.508323
920.606335,148.041188,-1850.514855,-10265.679673
920.606655,444.123565,962.267725,-10878.556072
920.606974,1036.288319,1480.411884,-9806.022374
920.607294,4219.173869,3256.906145,-10878.556072
920.607614,1998.556043,2886.803174,-9499.584175
920.607934,3108.864956,1406.391290,-10572.117872
920.608254,4293.194464,962.267725,-10035.851024
920.608574,3108.864956,-888.247130,-9499.584175
920.608894,3923.091493,-296.082377,-9959.241474
920.609213,1036.288319,-1406.391290,-9652.803275
920.609533,74.020594,-1776.494261,-9116.536426
920.609853,962.267725,444.123565,-9576.193725
920.610173,1850.514855,592.164754,-9422.974625
920.610493,3775.050304,2590.720797,-9499.584175
920.610813,2442.679609,1554.432478,-10342.289223
920.611133,1554.432478,-444.123565,-9193.145976
920.611452,2368.659014,-666.185348,-9806.022374
920.611772,2294.638420,-296.082377,-10189.070123
920.612092,3701.029710,666.185348,-9806.022374
920.612412,3182.885551,740.205942,-10342.289223
920.612732,1702.473667,1702.473667,-10035.851024
920.613052,592.164754,1554.432478,-11414.822920
920.613372,-1554.432478,1184.329507,-10189.070123
920.613691,-1184.329507,74.020594,-9806.022374
920.614011,74.020594,-1332.370696,-10572.117872
920.614331,1036.288319,-1702.473667,-9576.193725
920.614651,-222.061783,962.267725,-10801.946522
920.614971,-370.102971,1036.288319,-10801.946522
920.615291,-814.226536,0.000000,-10265.679673
920.615611,-592.164754,2368.659014,-10801.946522
920.615930,-1554.432478,3627.009116,-10418.898773
920.616250,-962.267725,1776.494261,-10189.070123
920.616570,-814.226536,-1258.350101,-10725.336972
920.616890,-740.205942,-2738.761985,-9806.022374
920.617210,-2220.617826,-1480.411884,-10878.556072
920.617530,-2590.720797,-3552.988522,-9806.022374
920.617849,-1332.370696,-1036.288319,-9422.974625
920.618169,-1628.453072,222.061783,-10495.508323
920.618489,-3108.864956,1776.494261,-9806.022374
920.618809,-2812.782580,1480.411884,-10189.070123
920.619129,-592.164754,888.247130,-10572.117872
920.619449,-148.041188,-518.144159,-9193.145976
920.619769,444.123565,-1480.411884,-10265.679673
920.620088,-814.226536,-2220.617826,-9116.536426
920.620408,-666.185348,-1184.329507,-10112.460574
920.620728,0.000000,-2146.597232,-9039.926876
920.621048,444.123565,-518.144159,-9652.803275
920.621368,-1110.308913,148.041188,-9193.145976
920.621688,592.164754,2590.720797,-10189.070123
920.622008,2072.576638,2442.679609,-10495.508323
920.622327,3182.885551,148.041188,-10112.460574
920.622647,3256.906145,-1776.494261,-10418.898773
920.622967,1332.370696,-2146.597232,-9193.145976
920.623287,222.061783,-518.144159,-10572.117872
920.623607,1036.288319,296.082377,-10955.165621
920.623927,962.267725,2220.617826,-10418.898773
920.624247,814.226536,3849.070898,-10572.117872
920.624566,2812.782580,3330.926739,-10342.289223
920.624886,3404.947333,814.226536,-10342.289223
920.625206,3330.926739,-962.267725,-10878.556072
920.625526,2146.597232,-2590.720797,-9499.584175
920.625846,1036.288319,-814.226536,-8886.707777
920.626166,2368.659014,-1036.288319,-9729.412825
920.626486,2960.823768,444.123565,-9806.022374
920.626805,2220.617826,1776.494261,-10265.679673
920.627125,1850.514855,1776.494261,-10495.508323
920.627445,3182.885551,592.164754,-9729.412825
920.627765,3108.864956,-592.164754,-10418.898773
920.628085,2294.638420,-222.061783,-9959.241474
920.628405,1628.453072,1110.308913,-10189.070123
920.628725,666.185348,888.247130,-10725.336972
920.629044,74.020594,1110.308913,-9882.631924
920.629364,-666.185348,1258.350101,-10112.460574
920.629684,-1036.288319,740.205942,-9882.631924
920.630004,2368.659014,444.123565,-9806.022374
920.630324,1998.556043,0.000000,-10342.289223
920.630644,1480.411884,666.185348,-9959.241474
920.630964,518.144159,518.144159,-10265.679673
920.631283,1036.288319,740.205942,-10189.070123
920.631603,0.000000,222.061783,-9729.412825
920.631923,-2442.679609,296.082377,-10035.851024
920.632243,-4441.235652,1406.391290,-9346.365076
920.632563,-3627.009116,2146.597232,-9652.803275
920.632883,-1406.391290,1554.432478,-8963.317327
920.633203,-666.185348,0.000000,-10189.070123
920.633522,-1998.556043,-888.247130,-9729.412825
920.633842,-2442.679609,222.061783,-10112.460574
920.634162,74.020594,518.144159,-10112.460574
920.634482,2146.597232,0.000000,-10112.460574
920.634802,2294.638420,148.041188,-9806.022374
920.635122,-888.247130,1036.288319,-9806.022374
920.635442,-1480.411884,888.247130,-9346.365076
920.635761,-666.185348,1332.370696,-11184.994271
920.636081,-1332.370696,1184.329507,-9806.022374
920.636401,-814.226536,296.082377,-10112.460574
920.636721,74.020594,-296.082377,-10495.508323
920.637041,888.247130,-592.164754,-9806.022374
920.637361,148.041188,814.226536,-11644.651570
920.637681,-1776.494261,1554.432478,-10265.679673
920.638000,-2368.659014,1110.308913,-10342.289223
920.638320,444.123565,1184.329507,-10878.556072
920.638640,1998.556043,-222.061783,-9806.022374
920.638960,1554.432478,444.123565,-10572.117872
920.639280,2368.659014,0.000000,-10265.679673
920.639600,3182.885551,222.061783,-10112.460574
920.639919,3627.009116,1184.329507,-10648.727422
920.640239,2738.761985,666.185348,-10189.070123
920.640559,3256.906145,222.061783,-10495.508323
920.640879,3034.844362,-444.123565,-10189.070123
920.641199,2220.617826,370.102971,-10112.460574
920.641519,2146.597232,74.020594,-10418.898773
920.641839,1628.453072,-148.041188,-9882.631924
920.642158,1924.535449,-222.061783,-9959.241474
920.642478,2738.761985,814.226536,-9959.241474
920.642798,1258.350101,666.185348,-9806.022374
920.643118,888.247130,1702.473667,-10035.851024
920.643438,814.226536,222.061783,-9882.631924
920.643758,2146.597232,-296.082377,-9882.631924
920.644078,888.247130,-1628.453072,-10112.460574
920.644397,-1258.350101,-2146.597232,-9652.803275
920.644717,-1184.329507,-1258.350101,-9499.584175
920.645037,1184.329507,0.000000,-9652.803275
920.645357,3552.988522,2146.597232,-10265.679673
920.645677,2220.617826,1554.432478,-10495.508323
920.645997,-740.205942,1258.350101,-9882.631924
920.646317,-1332.370696,1110.308913,-10189.070123
920.646636,296.082377,518.144159,-9806.022374
920.646956,1036.288319,-592.164754,-10495.508323
920.647276,888.247130,-1850.514855,-9576.193725
920.647596,-1184.329507,-2516.700203,-9652.803275
920.647916,-2590.720797,-1184.329507,-9882.631924
920.648236,-1702.473667,444.123565,-9806.022374
920.648556,-148.041188,2294.638420,-10801.946522
920.648875,0.000000,2294.638420,-10189.070123
920.649195,0.000000,666.185348,-10189.070123
920.649515,-444.123565,-1480.411884,-10342.289223
920.649835,-2442.679609,-3404.947333,-9729.412825
920.650155,-962.267725,-2368.659014,-9806.022374
920.650475,-1406.391290,0.000000,-10112.460574
920.650795,-1110.308913,2886.803174,-10112.460574
920.651114,-814.226536,2886.803174,-10648.727422
920.651434,-666.185348,518.144159,-10189.070123
920.651754,148.041188,-1924.535449,-10265.679673
920.652074,0.000000,-3330.926739,-9882.631924
920.652394,-1924.535449,-2368.659014,-9269.755526
920.652714,-2220.617826,-962.267725,-10035.851024
920.653034,518.144159,962.267725,-9806.022374
920.653353,1702.473667,1998.556043,-10418.898773
920.653673,962.267725,1702.473667,-10801.946522
920.653993,370.102971,-148.041188,-9652.803275
920.654313,1332.370696,-1480.411884,-10189.070123
920.654633,1998.556043,148.041188,-9806.022374
920.654953,1406.391290,962.267725,-9806.022374
920.655273,1554.432478,518.144159,-10878.556072
920.655592,1036.288319,-296.082377,-9959.241474
920.655912,2146.597232,-1850.514855,-10035.851024
920.656232,666.185348,-2294.638420,-10265.679673
920.656552,1110.308913,-1480.411884,-9882.631924
920.656872,1110.308913,1998.556043,-10648.727422
920.657192,-148.041188,3849.070898,-11031.775171
920.657512,1702.473667,5329.482782,-10265.679673
920.657831,3256.906145,4071.132681,-11108.384721
920.658151,3552.988522,1036.288319,-10495.508323
920.658471,3034.844362,-1110.308913,-9499.584175
920.658791,2368.659014,-2664.741391,-10112.460574
920.659111,2220.617826,-1924.535449,-9882.631924
920.659431,1628.453072,592.164754,-10418.898773
920.659751,1554.432478,2886.803174,-10418.898773
920.660070,2220.617826,5329.482782,-9959.241474
920.660390,1702.473667,4293.194464,-10418.898773
920.660710,1332.370696,1776.494261,-10265.679673
920.661030,1628.453072,-148.041188,-9652.803275
920.661350,1628.453072,-2442.679609,-9039.926876
920.661670,2368.659014,-1998.556043,-9652.803275
920.661989,1332.370696,-592.164754,-9806.022374
920.662309,-814.226536,666.185348,-9729.412825
920.662629,-2072.576638,2516.700203,-9959.241474
920.662949,-1924.535449,2664.741391,-9346.365076
920.663269,2220.617826,2886.803174,-10342.289223
920.663589,2664.741391,592.164754,-10342.289223
920.663909,-1036.288319,-888.247130,-9806.022374
920.664228,-4737.318029,-1480.411884,-9806.022374
920.664548,-3404.947333,-1036.288319,-9346.365076
920.664868,888.247130,962.267725,-10725.336972
920.665188,1332.370696,2368.659014,-10418.898773
920.665508,0.000000,2294.638420,-10035.851024
920.665828,-1184.329507,2368.659014,-10801.946522
920.666148,-1110.308913,1554.432478,-10189.070123
920.666467,296.082377,1480.411884,-9959.241474
920.666787,-444.123565,-814.226536,-10112.460574
920.667107,-2072.576638,-2590.720797,-8810.098227
920.667427,-3775.050304,-1554.432478,-10189.070123
920.667747,-2516.700203,296.082377,-9346.365076
920.668067,-740.205942,2220.617826,-10265.679673
920.668387,370.102971,370.102971,-10495.508323
920.668706,-296.082377,-666.185348,-9499.584175
920.669026,-3108.864956,-1184.329507,-10265.679673
920.669346,-2738.761985,-1332.370696,-9193.145976
920.669666,-1406.391290,-740.205942,-9806.022374
920.669986,222.061783,666.185348,-10572.117872
920.670306,-222.061783,814.226536,-9959.241474
920.670626,0.000000,962.267725,-10189.070123
920.670945,296.082377,518.144159,-9652.803275
920.671265,1628.453072,518.144159,-9806.022374
920.671585,2590.720797,148.041188,-10878.556072
920.671905,3923.091493,-1924.535449,-9346.365076
920.672225,4145.153275,-1998.556043,-9806.022374
920.672545,1258.350101,-1036.288319,-10189.070123
920.672865,1406.391290,-1850.514855,-9806.022374
920.673184,3108.864956,1036.288319,-11568.042020
920.673504,1850.514855,1998.556043,-10265.679673
920.673824,1554.432478,3108.864956,-10801.946522
920.674144,1332.370696,2368.659014,-10801.946522
920.674464,2146.597232,518.144159,-10572.117872
920.674784,2664.741391,-814.226536,-11414.822920
920.675104,1776.494261,-2442.679609,-10342.289223
920.675423,1554.432478,-3034.844362,-10112.460574
920.675743,1332.370696,-1406.391290,-10035.851024
920.676063,1628.453072,1776.494261,-10495.508323
920.676383,4367.215058,2442.679609,-10955.165621
920.676703,5033.400406,2442.679609,-10418.898773
920.677023,1776.494261,-1406.391290,-8810.098227
920.677343,296.082377,-2294.638420,-9499.584175
920.677662,888.247130,-2886.803174,-9806.022374
920.677982,3182.885551,148.041188,-10725.336972
920.678302,2516.700203,1184.329507,-10189.070123
920.678622,-592.164754,740.205942,-9193.145976
920.678942,-2368.659014,444.123565,-9959.241474
920.679262,-1480.411884,-296.082377,-9499.584175
920.679582,1480.411884,222.061783,-9652.803275
920.679901,1702.473667,0.000000,-10112.460574
920.680221,1258.350101,-444.123565,-9422.974625
920.680541,0.000000,-1332.370696,-10189.070123
920.680861,-1110.308913,0.000000,-9729.412825
920.681181,-222.061783,1554.432478,-9652.803275
920.681501,0.000000,1702.473667,-10112.460574
920.681820,-518.144159,814.226536,-10035.851024
920.682140,-3552.988522,296.082377,-9806.022374
920.682460,-3627.009116,-888.247130,-10035.851024
920.682780,-1406.391290,-370.102971,-9346.365076
920.683100,370.102971,148.041188,-10265.679673
920.683420,-1406.391290,1258.350101,-11031.775171
920.683740,-2442.679609,1406.391290,-10265.679673
920.684059,-888.247130,2072.576638,-9652.803275
920.684379,148.041188,2294.638420,-11261.603821
920.684699,0.000000,1776.494261,-10801.946522
920.685019,-962.267725,296.082377,-10342.289223
920.685339,-2220.617826,-296.082377,-10265.679673
920.685659,-148.041188,0.000000,-9269.755526
920.685979,814.226536,1850.514855,-10572.117872
920.686298,1184.329507,1554.432478,-10572.117872
920.686618,74.020594,1258.350101,-9882.631924
920.686938,-1258.350101,1110.308913,-9806.022374
920.687258,-1406.391290,814.226536,-9729.412825
920.687578,74.020594,1332.370696,-9806.022374
920.687898,814.226536,1036.288319,-10342.289223
920.688218,2516.700203,444.123565,-9806.022374
920.688537,2960.823768,74.020594,-10112.460574
920.688857,1110.308913,370.102971,-9422.974625
920.689177,666.185348,1184.329507,-9729.412825
920.689497,222.061783,2294.638420,-10189.070123
920.689817,1258.350101,1702.473667,-10648.727422
920.690137,1776.494261,222.061783,-9576.193725
920.690457,518.144159,0.000000,-9652.803275
920.690776,962.267725,518.144159,-10112.460574
920.691096,4293.194464,1110.308913,-9729.412825
920.691416,3256.906145,1480.411884,-11261.603821
920.691736,3997.112087,518.144159,-9882.631924
920.692056,2368.659014,222.061783,-9806.022374
920.692376,888.247130,-1036.288319,-10112.460574
920.692696,1998.556043,740.205942,-9652.803275
920.693016,370.102971,1480.411884,-10265.679673
920.693336,-370.102971,1554.432478,-10265.679673
920.693656,0.000000,370.102971,-10189.070123
920.693976,1480.411884,740.205942,-10648.727422
920.694296,2590.720797,-370.102971,-10265.679673
920.694616,3182.885551,-962.267725,-10418.898773
920.694936,1776.494261,-666.185348,-9959.241474
920.695256,1850.514855,666.185348,-10418.898773
920.695576,2664.741391,1480.411884,-10189.070123
920.695896,2960.823768,1258.350101,-10495.508323
920.696216,1628.453072,148.041188,-9959.241474
920.696536,-1480.411884,-370.102971,-10035.851024
920.696856,-1480.411884,-1258.350101,-9806.022374
920.697176,-1036.288319,-2072.576638,-9806.022374
920.697496,592.164754,-1628.453072,-9806.022374
920.697816,-1480.411884,-518.144159,-9576.193725
920.698136,-3627.009116,148.041188,-10112.460574
920.698456,-2812.782580,370.102971,-10035.851024
920.698776,-1554.432478,444.123565,-10035.851024
920.699096,-222.061783,370.102971,-10418.898773
920.699416,0.000000,-814.226536,-9806.022374
920.699736,-518.144159,-1406.391290,-10112.460574
920.700056,-1406.391290,-1184.329507,-10572.117872
920.700376,-2146.597232,-1036.288319,-10035.851024
920.700696,-1998.556043,370.102971,-11108.384721
920.701016,-1702.473667,296.082377,-10418.898773
920.701335,-2146.597232,148.041188,-10035.851024
920.701655,-1480.411884,-148.041188,-10725.336972
920.701975,888.247130,-296.082377,-9806.022374
920.702295,740.205942,1850.514855,-10342.289223
920.702615,1036.288319,1702.473667,-11338.213370
920.702935,1036.288319,0.000000,-10265.679673
920.703255,1406.391290,-1776.494261,-10648.727422
920.703575,-296.082377,-2664.741391,-9422.974625
920.703895,-296.082377,-740.205942,-9959.241474
920.704215,1184.329507,2368.659014,-9729.412825
920.704535,962.267725,3330.926739,-10572.117872
920.704855,1258.350101,3552.988522,-11108.384721
920.705175,148.041188,666.185348,-9576.193725
920.705495,1110.308913,-1628.453072,-9652.803275
920.705815,1702.473667,-2146.597232,-9806.022374
920.706135,1480.411884,-888.247130,-9729.412825
920.706455,518.144159,1184.329507,-10342.289223
920.706775,-148.041188,1406.391290,-9576.193725
920.707095,2146.597232,740.205942,-9193.145976
920.707415,6809.894666,592.164754,-10495.508323
920.707735,6735.874072,1184.329507,-9959.241474
920.708055,4441.235652,962.267725,-10189.070123
920.708375,1924.535449,1110.308913,-9499.584175
920.708695,1998.556043,-740.205942,-9269.755526
920.709015,2812.782580,-148.041188,-9806.022374
920.709335,2220.617826,-740.205942,-9729.412825
920.709655,1110.308913,888.247130,-10495.508323
920.709975,666.185348,1554.432478,-10265.679673
920.710295,592.164754,2516.700203,-10189.070123
920.710615,3256.906145,2664.741391,-10801.946522
920.710935,1628.453072,1776.494261,-10495.508323
920.711255,222.061783,2368.659014,-9882.631924
920.711575,-1924.535449,1850.514855,-10418.898773
920.711895,-1258.350101,2072.576638,-10189.070123
920.712214,1776.494261,888.247130,-10495.508323
920.712534,1628.453072,592.164754,-10265.679673
920.712854,740.205942,888.247130,-10112.460574
920.713174,0.000000,296.082377,-9269.755526
920.713494,666.185348,1110.308913,-10189.070123
920.713814,2294.638420,2368.659014,-10265.679673
920.714134,1110.308913,3478.967927,-11184.994271
920.714454,-444.123565,2294.638420,-10189.070123
920.714774,-2220.617826,1036.288319,-9882.631924
920.715094,-1480.411884,0.000000,-9959.241474
920.715414,962.267725,-222.061783,-10112.460574
920.715734,962.267725,518.144159,-9806.022374
920.716054,-1850.514855,888.247130,-9729.412825
920.716374,-4367.215058,518.144159,-9499.584175
920.716694,-3849.070898,0.000000,-9269.755526
920.717014,74.020594,-444.123565,-10035.851024
920.717334,3182.885551,74.020594,-9729.412825
920.717654,2220.617826,1406.391290,-9959.241474
920.717974,518.144159,3256.906145,-10648.727422
920.718294,666.185348,2886.803174,-9499.584175
920.718614,1998.556043,2220.617826,-10725.336972
920.718934,592.164754,1702.473667,-10112.460574
920.719254,-370.102971,962.267725,-9346.365076
920.719574,518.144159,1184.329507,-11031.775171
920.719894,3775.050304,1628.453072,-9806.022374
920.720214,3923.091493,3182.885551,-10265.679673
920.720534,2886.803174,2812.782580,-11338.213370
920.720854,3552.988522,1406.391290,-9422.974625
920.721174,2442.679609,2368.659014,-11108.384721
920.721494,2294.638420,3034.844362,-9959.241474
920.721814,1702.473667,3849.070898,-9652.803275
920.722134,3182.885551,2442.679609,-11031.775171
920.722454,6587.832884,666.185348,-9806.022374
920.722774,7624.121203,296.082377,-10572.117872
920.723094,5995.668130,814.226536,-11184.994271
920.723413,3997.112087,2442.679609,-9806.022374
920.723733,2738.761985,3775.050304,-10725.336972
920.724053,2146.597232,4145.153275,-10265.679673
920.724373,2368.659014,3182.885551,-9806.022374
920.724693,1332.370696,1036.288319,-11184.994271
920.725013,2442.679609,962.267725,-9806.022374
920.725333,2368.659014,2146.597232,-9806.022374
920.725653,3849.070898,3627.009116,-10112.460574
920.725973,5847.626942,4145.153275,-10189.070123
920.726293,4959.379811,3108.864956,-9959.241474
920.726613,3552.988522,2590.720797,-9806.022374
920.726933,4145.153275,2960.823768,-9806.022374
920.727253,3997.112087,3256.906145,-9959.241474
920.727573,4589.276840,2960.823768,-10035.851024
920.727893,3701.029710,2664.741391,-9959.241474
920.728213,2442.679609,2072.576638,-9729.412825
920.728533,1628.453072,1036.288319,-9882.631924
920.728853,1036.288319,1702.473667,-10572.117872
920.729173,814.226536,2590.720797,-10035.851024
920.729493,74.020594,3775.050304,-9806.022374
920.729813,1480.411884,2812.782580,-9193.145976
920.730133,3552.988522,444.123565,-10035.851024
920.730453,2072.576638,-444.123565,-9576.193725
920.730773,888.247130,1332.370696,-10265.679673
920.731093,1036.288319,4071.132681,-10495.508323
920.731413,1184.329507,5403.503377,-10648.727422
920.731733,1110.308913,5255.462188,-10189.070123
920.732053,2072.576638,3404.947333,-10265.679673
920.732373,2368.659014,1628.453072,-10112.460574
920.732693,2146.597232,1554.432478,-10878.556072
920.733013,962.267725,3478.967927,-10035.851024
920.733333,-518.144159,5329.482782,-10572.117872
920.733653,-1110.308913,4811.338623,-9959.241474
920.733973,-518.144159,2812.782580,-8886.707777
920.734293,1480.411884,222.061783,-9882.631924
920.734612,2442.679609,74.020594,-9499.584175
920.734932,1998.556043,1332.370696,-10189.070123
920.735252,1850.514855,3108.864956,-10572.117872
920.735572,2294.638420,3849.070898,-10265.679673
920.735892,1332.370696,3775.050304,-10189.070123
920.736212,1110.308913,3997.112087,-9882.631924
920.736532,1184.329507,3256.906145,-9959.241474
920.736852,1850.514855,2516.700203,-10265.679673
920.737172,1480.411884,814.226536,-10265.679673
920.737492,444.123565,-592.164754,-9652.803275
920.737812,1628.453072,-666.185348,-9576.193725
920.738132,3552.988522,444.123565,-9576.193725
920.738452,3256.906145,3701.029710,-9882.631924
920.738772,2294.638420,5551.544565,-10495.508323
920.739092,3108.864956,5995.668130,-10572.117872
920.739412,5625.565159,4367.215058,-10955.165621
920.739732,5847.626942,1924.535449,-10265.679673
920.740052,4293.194464,296.082377,-9882.631924
920.740372,2960.823768,962.267725,-9729.412825
920.740692,3182.885551,2516.700203,-10265.679673
920.741012,3256.906145,4663.297435,-10342.289223
920.741332,1480.411884,5033.400406,-10265.679673
920.741652,1332.370696,3478.967927,-9882.631924
920.741972,3775.050304,2220.617826,-10189.070123
920.742292,5773.606348,1998.556043,-10418.898773
920.742612,4885.359217,3034.844362,-11108.384721
920.742932,4145.153275,3997.112087,-10035.851024
920.743252,4589.276840,4441.235652,-9652.803275
920.743572,4959.379811,3627.009116,-10265.679673
920.743892,4145.153275,3627.009116,-10112.460574
920.744212,1924.535449,1406.391290,-9806.022374
920.744532,1258.350101,1332.370696,-9729.412825
920.744852,2442.679609,666.185348,-9806.022374
920.745172,2812.782580,1406.391290,-10112.460574
920.745491,888.247130,2072.576638,-9346.365076
920.745811,-518.144159,2072.576638,-9346.365076
920.746131,1184.329507,2368.659014,-9729.412825
920.746451,4145.153275,3256.906145,-9959.241474
920.746771,6217.729913,3034.844362,-11261.603821
920.747091,5255.462188,2368.659014,-10265.679673
920.747411,2590.720797,2516.700203,-10189.070123
920.747731,666.185348,2368.659014,-10035.851024
920.748051,74.020594,2590.720797,-9652.803275
920.748371,148.041188,3182.885551,-10418.898773
920.748691,592.164754,2368.659014,-10265.679673
920.749011,-74.020594,1406.391290,-9806.022374
920.749331,-1628.453072,148.041188,-10418.898773
920.749651,-1850.514855,148.041188,-9269.755526
920.749971,-222.061783,1628.453072,-9959.241474
920.750291,3627.009116,2664.741391,-10572.117872
920.750611,5255.462188,3182.885551,-10112.460574
920.750931,3552.988522,3478.967927,-11031.775171
920.751251,0.000000,3627.009116,-10801.946522
920.751571,-370.102971,3330.926739,-10189.070123
920.751891,222.061783,2738.761985,-10418.898773
920.752211,1554.432478,1554.432478,-10189.070123
920.752531,2738.761985,-740.205942,-9806.022374
920.752851,1850.514855,0.000000,-10189.070123
920.753171,1776.494261,1406.391290,-10495.508323
920.753491,1480.411884,3404.947333,-10572.117872
920.753811,592.164754,4219.173869,-10572.117872
920.754131,2220.617826,3775.050304,-10035.851024
920.754451,3552.988522,1998.556043,-10495.508323
920.754771,3330.926739,666.185348,-10495.508323
920.755091,2516.700203,888.247130,-10112.460574
920.755411,2516.700203,2294.638420,-10265.679673
920.755731,3256.906145,3478.967927,-10342.289223
920.756051,2220.617826,4071.132681,-10112.460574
920.756371,1406.391290,2886.803174,-9806.022374
920.756690,2220.617826,1184.329507,-9729.412825
920.757010,3923.091493,370.102971,-9269.755526
920.757330,4959.379811,518.144159,-9806.022374
920.757650,5625.565159,2294.638420,-9882.631924
920.757970,5847.626942,3775.050304,-10112.460574
920.758290,6143.709319,4811.338623,-9269.755526
920.758610,4441.235652,5403.503377,-10495.508323
920.758930,1924.535449,4811.338623,-10342.289223
920.759250,370.102971,3330.926739,-10035.851024
920.759570,1406.391290,888.247130,-10112.460574
920.759890,2294.638420,-592.164754,-10418.898773
920.760210,2220.617826,-962.267725,-9806.022374
920.760530,1850.514855,814.226536,-9806.022374
920.760850,2738.761985,3775.050304,-9882.631924
920.761170,4737.318029,5995.668130,-10725.336972
920.761490,5699.585753,6587.832884,-11031.775171
920.761810,5033.400406,5477.523971,-10418.898773
920.762130,3182.885551,2886.803174,-10265.679673
920.762450,962.267725,1332.370696,-9269.755526
920.762770,0.000000,518.144159,-9806.022374
920.763090,-444.123565,814.226536,-9729.412825
920.763410,74.020594,1184.329507,-9729.412825
920.763730,592.164754,2072.576638,-9806.022374
920.764050,1184.329507,2516.700203,-9959.241474
920.764370,1924.535449,3775.050304,-10112.460574
920.764690,3775.050304,4885.359217,-10495.508323
920.765010,5033.400406,5329.482782,-10648.727422
920.765330,4071.132681,4959.379811,-10342.289223
920.765650,2738.761985,3478.967927,-10112.460574
920.765970,1110.308913,2664.741391,-10112.460574
920.766290,518.144159,2516.700203,-10035.851024
920.766610,-148.041188,2812.782580,-10112.460574
920.766930,-444.123565,2516.700203,-9422.974625
920.767250,-1628.453072,1480.411884,-9882.631924
920.767569,-1702.473667,814.226536,-9729.412825
920.767889,-740.205942,222.061783,-9269.755526
920.768209,1406.391290,1184.329507,-9499.584175
920.768529,3627.009116,2294.638420,-9652.803275
920.768849,5329.482782,3478.967927,-9959.241474
920.769169,6143.709319,4737.318029,-10265.679673
920.769489,5477.523971,5255.462188,-10112.460574
920.769809,4367.215058,6069.688724,-10801.946522
920.770129,2960.823768,4811.338623,-10572.117872
920.770449,1702.473667,3552.988522,-10418.898773
920.770769,888.247130,1924.535449,-10112.460574
920.771089,370.102971,592.164754,-10878.556072
920.771409,-222.061783,0.000000,-9729.412825
920.771729,-296.082377,222.061783,-9729.412825
920.772049,1184.329507,1480.411884,-9882.631924
920.772369,3034.844362,2738.761985,-10189.070123
920.772689,4885.359217,3552.988522,-10418.898773
920.773009,6439.791695,3404.947333,-10342.289223
920.773329,7105.977043,2960.823768,-10342.289223
920.773649,5921.647536,1998.556043,-10342.289223
920.773969,3478.967927,2368.659014,-9652.803275
920.774289,888.247130,1776.494261,-10112.460574
920.774609,-888.247130,1184.329507,-9959.241474
920.774929,-1332.370696,296.082377,-9959.241474
920.775249,-666.185348,-444.123565,-10801.946522
920.775569,74.020594,-444.123565,-10035.851024
920.775889,962.267725,0.000000,-9806.022374
920.776209,1628.453072,1480.411884,-9959.241474
920.776529,2590.720797,3108.864956,-10342.289223
920.776849,3404.947333,4367.215058,-10342.289223
920.777169,4219.173869,4219.173869,-10572.117872
920.777489,3775.050304,3849.070898,-10878.556072
920.777809,3404.947333,2960.823768,-10495.508323
920.778129,2516.700203,2072.576638,-10572.117872
920.778449,740.205942,1406.391290,-10112.460574
920.778768,74.020594,740.205942,-9806.022374
920.779088,74.020594,666.185348,-9729.412825
920.779408,592.164754,962.267725,-9959.241474
920.779728,1776.494261,1850.514855,-10112.460574
920.780048,2220.617826,3108.864956,-10189.070123
920.780368,3552.988522,3923.091493,-9959.241474
920.780688,5033.400406,4367.215058,-10418.898773
920.781008,6809.894666,4737.318029,-10495.508323
920.781328,7105.977043,4737.318029,-10495.508323
920.781648,5921.647536,5181.441594,-10572.117872
920.781968,3552.988522,5107.421000,-10495.508323
920.782288,888.247130,4441.235652,-10265.679673
920.782608,-814.226536,2812.782580,-9193.145976
920.782928,-1628.453072,740.205942,-9499.584175
920.783248,-888.247130,-740.205942,-9422.974625
920.783568,740.205942,-666.185348,-9576.193725
920.783888,2960.823768,888.247130,-8656.879127
920.784208,4293.194464,3256.906145,-9499.584175
920.784528,5477.523971,5921.647536,-10189.070123
920.784848,6513.812290,7105.977043,-10265.679673
920.785168,6735.874072,7179.997637,-10495.508323
920.785488,5551.544565,6069.688724,-10878.556072
920.785808,4441.235652,4367.215058,-10495.508323
920.786128,3478.967927,3182.885551,-10342.289223
920.786448,1924.535449,2220.617826,-10112.460574
920.786768,-962.267725,2812.782580,-9652.803275
920.787088,-3404.947333,2960.823768,-9806.022374
920.787408,-2590.720797,2960.823768,-9806.022374
920.787728,0.000000,2442.679609,-9806.022374
920.788048,2072.576638,2220.617826,-9269.755526
920.788368,3034.844362,2072.576638,-9882.631924
920.788688,3330.926739,2886.803174,-9882.631924
920.789008,3849.070898,4441.235652,-10035.851024
920.789328,5181.441594,5699.585753,-10265.679673
920.789647,6661.853478,6143.709319,-10725.336972
920.789967,5625.565159,5477.523971,-11031.775171
920.790287,2072.576638,4219.173869,-10495.508323
920.790607,-1258.350101,2442.679609,-9959.241474
920.790927,-2442.679609,1332.370696,-10035.851024
920.791247,-1850.514855,74.020594,-9806.022374
920.791567,-1332.370696,-814.226536,-9269.755526
920.791887,-740.205942,-370.102971,-9193.145976
920.792207,962.267725,1036.288319,-9269.755526
920.792527,4219.173869,3478.967927,-10342.289223
920.792847,5995.668130,5773.606348,-10572.117872
920.793167,5847.626942,6735.874072,-10801.946522
920.793487,4885.359217,6291.750507,-10189.070123
920.793807,3997.112087,4515.256246,-10265.679673
920.794127,2590.720797,2146.597232,-10189.070123
920.794447,888.247130,592.164754,-9806.022374
920.794767,296.082377,-592.164754,-9652.803275
920.795087,296.082377,-814.226536,-9806.022374
920.795407,-148.041188,0.000000,-10801.946522
920.795727,-444.123565,1332.370696,-9652.803275
920.796047,1850.514855,2368.659014,-10112.460574
920.796367,4737.318029,2886.803174,-9959.241474
920.796687,6513.812290,2960.823768,-10495.508323
920.797007,7254.018232,2738.761985,-10648.727422
920.797327,6883.915261,3552.988522,-10801.946522
920.797647,5181.441594,4515.256246,-10801.946522
920.797967,2812.782580,4811.338623,-10418.898773
920.798287,444.123565,3627.009116,-10725.336972
920.798607,-148.041188,1332.370696,-10189.070123
920.798927,148.041188,-1036.288319,-10035.851024
920.799247,0.000000,-1998.556043,-10495.508323
920.799567,-592.164754,-1332.370696,-9806.022374
920.799887,-148.041188,0.000000,-9806.022374
920.800207,2220.617826,1628.453072,-10112.460574
920.800527,4515.256246,2738.761985,-9806.022374
920.800847,5699.585753,3997.112087,-10035.851024
920.801167,6365.771101,4145.153275,-10801.946522
920.801487,6069.688724,4367.215058,-10418.898773
920.801807,3849.070898,4737.318029,-10495.508323
920.802127,2960.823768,3256.906145,-10189.070123
920.802447,2368.659014,1258.350101,-9806.022374
920.802767,-592.164754,-666.185348,-9882.631924
920.803087,-3330.926739,-1850.514855,-9422.974625
920.803407,-5403.503377,-1924.535449,-9116.536426
920.803727,-3923.091493,-1258.350101,-9269.755526
920.804047,518.144159,0.000000,-9193.145976
920.804367,3775.050304,2294.638420,-10035.851024
920.804687,4663.297435,3849.070898,-10495.508323
920.805007,4441.235652,4737.318029,-9806.022374
920.805327,5107.421000,5551.544565,-10418.898773
920.805647,6661.853478,4811.338623,-10801.946522
920.805967,5847.626942,3701.029710,-10495.508323
920.806287,2220.617826,1702.473667,-10572.117872
920.806607,-1110.308913,666.185348,-9346.365076
920.806927,-1924.535449,444.123565,-10265.679673
920.807247,-1332.370696,1628.453072,-10495.508323
920.807567,-148.041188,2146.597232,-10112.460574
920.807887,-74.020594,2960.823768,-10572.117872
920.808207,1776.494261,3108.864956,-9652.803275
920.808527,4367.215058,3701.029710,-10189.070123
920.808847,5625.565159,4737.318029,-10878.556072
920.809167,5773.606348,5773.606348,-10572.117872
920.809487,5403.503377,5847.626942,-9652.803275
920.809807,6143.709319,5033.400406,-10418.898773
920.810127,6513.812290,3701.029710,-10265.679673
920.810447,4663.297435,3256.906145,-9959.241474
920.810767,1480.411884,3478.967927,-9959.241474
920.811087,222.061783,2960.823768,-9882.631924
920.811407,-518.144159,2590.720797,-9959.241474
920.811727,-1332.370696,1776.494261,-9652.803275
920.812047,-592.164754,1036.288319,-8886.707777
920.812367,2516.700203,814.226536,-8350.440928
920.812687,5477.523971,2516.700203,-9576.193725
920.813007,6587.832884,4737.318029,-9882.631924
920.813327,5995.668130,6957.935855,-10035.851024
920.813647,7402.059420,7846.182985,-9729.412825
920.813967,7550.100608,6809.894666,-10572.117872
920.814287,4737.318029,4589.276840,-10035.851024
920.814607,962.267725,2368.659014,-9652.803275
920.814927,-518.144159,444.123565,-9729.412825
920.815247,-370.102971,-296.082377,-9422.974625
920.815567,-1628.453072,-222.061783,-9729.412825
920.815887,-3182.885551,-148.041188,-9422.974625
920.816207,-1702.473667,296.082377,-9346.365076
920.816527,222.061783,3034.844362,-10189.070123
920.816847,2072.576638,4959.379811,-10878.556072
920.817167,5255.462188,6809.894666,-10801.946522
920.817487,5921.647536,6661.853478,-11338.213370
920.817807,5477.523971,5255.462188,-10725.336972
920.818127,3478.967927,3923.091493,-10265.679673
920.818447,962.267725,2516.700203,-10725.336972
920.818767,-1036.288319,1406.391290,-9729.412825
920.819087,-1036.288319,1332.370696,-10265.679673
920.819407,-1036.288319,1332.370696,-10342.289223
920.819727,-1184.329507,2146.597232,-10265.679673
920.820047,-2146.597232,1628.453072,-9576.193725
920.820367,666.185348,1776.494261,-10112.460574
920.820687,4219.173869,2368.659014,-10112.460574
920.821007,4441.235652,3256.906145,-11721.261119
920.821327,4515.256246,2960.823768,-9882.631924
920.821647,5255.462188,3182.885551,-9729.412825
920.821967,5847.626942,3108.864956,-9806.022374
920.822287,6143.709319,2886.803174,-10189.070123
920.822607,3775.050304,1702.473667,-10265.679673
920.822927,0.000000,1554.432478,-9193.145976
920.823247,-1184.329507,1332.370696,-10265.679673
920.823567,-1184.329507,1036.288319,-9652.803275
920.823887,0.000000,2220.617826,-9269.755526
920.824207,740.205942,592.164754,-10342.289223
920.824528,3330.926739,444.123565,-9499.584175
920.824848,5551.544565,962.267725,-9346.365076
920.825168,5403.503377,3108.864956,-10725.336972
920.825488,5995.668130,3775.050304,-10342.289223
920.825808,6735.874072,4811.338623,-10495.508323
920.826128,5847.626942,4737.318029,-10878.556072
920.826448,4293.194464,2516.700203,-10265.679673
920.826768,1554.432478,1702.473667,-10418.898773
920.827088,74.020594,-222.061783,-10648.727422
920.827408,-222.061783,-1776.494261,-9652.803275
920.827728,-1184.329507,-1776.494261,-9806.022374
920.828048,-2368.659014,-296.082377,-9959.241474
920.828368,-2146.597232,0.000000,-9959.241474
920.828688,222.061783,1332.370696,-10342.289223
920.829008,4145.153275,2072.576638,-11031.775171
920.829328,6439.791695,2368.659014,-9882.631924
920.829648,5921.647536,2812.782580,-10572.117872
920.829968,5033.400406,3034.844362,-10878.556072
920.830288,3256.906145,1776.494261,-10265.679673
920.830608,1850.514855,1702.473667,-10495.508323
920.830928,592.164754,1258.350101,-9959.241474
920.831248,74.020594,222.061783,-9499.584175
920.831568,-592.164754,222.061783,-10725.336972
920.831888,-148.041188,-222.061783,-9729.412825
920.832208,-518.144159,0.000000,-8810.098227
920.832528,148.041188,-148.041188,-9882.631924
920.832848,1850.514855,1110.308913,-9652.803275
920.833168,1332.370696,1406.391290,-9806.022374
920.833488,1702.473667,2220.617826,-10112.460574
920.833808,2738.761985,2960.823768,-9116.536426
920.834128,3034.844362,2590.720797,-10572.117872
920.834448,3552.988522,666.185348,-9806.022374
920.834768,1776.494261,-148.041188,-9499.584175
920.835088,-1036.288319,888.247130,-10955.165621
920.835408,-2442.679609,962.267725,-9499.584175
920.835728,-3997.112087,1554.432478,-9806.022374
920.836048,-4071.132681,592.164754,-10112.460574
920.836368,-2886.803174,-1110.308913,-9422.974625
920.836688,-2886.803174,-2664.741391,-10265.679673
920.837008,-518.144159,-2368.659014,-9499.584175
920.837328,2368.659014,0.000000,-10035.851024
920.837648,3849.070898,3701.029710,-11721.261119
920.837968,5255.462188,4145.153275,-10342.289223
920.838288,2960.823768,4885.359217,-11031.775171
920.838608,2368.659014,3775.050304,-10801.946522
920.838928,1406.391290,1776.494261,-9652.803275
920.839248,-1184.329507,222.061783,-11568.042020
920.839568,-2368.659014,-888.247130,-9729.412825
920.839888,-4071.132681,-888.247130,-9499.584175
920.840208,-4071.132681,74.020594,-10572.117872
920.840528,-1628.453072,518.144159,-9576.193725
920.840848,-740.205942,74.020594,-8963.317327
920.841168,-296.082377,0.000000,-9959.241474
920.841488,0.000000,444.123565,-9422.974625
920.841808,1702.473667,888.247130,-10418.898773
920.842128,4071.132681,444.123565,-9576.193725
920.842448,4145.153275,592.164754,-9729.412825
920.842768,2886.803174,740.205942,-9959.241474
920.843088,2442.679609,1406.391290,-9116.536426
920.843408,2812.782580,1628.453072,-10801.946522
920.843728,2812.782580,1998.556043,-10342.289223
920.844048,-814.226536,0.000000,-9499.584175
920.844368,-2368.659014,-1924.535449,-9882.631924
920.844688,-296.082377,-3478.967927,-9269.755526
920.845008,2072.576638,-1702.473667,-9806.022374
920.845328,2590.720797,592.164754,-10955.165621
920.845648,2664.741391,3034.844362,-9806.022374
920.845968,2738.761985,4441.235652,-10878.556072
920.846288,2220.617826,3256.906145,-10035.851024
920.846608,2812.782580,-370.102971,-10189.070123
920.846928,2590.720797,-1924.535449,-9882.631924
920.847248,2368.659014,-1998.556043,-10648.727422
920.847568,296.082377,-148.041188,-10418.898773
920.847888,-962.267725,1036.288319,-10265.679673
920.848208,-888.247130,1628.453072,-10035.851024
920.848528,1850.514855,592.164754,-10418.898773
920.848848,2072.576638,222.061783,-10572.117872
920.849168,1258.350101,148.041188,-10572.117872
920.849488,-518.144159,444.123565,-9729.412825
920.849808,296.082377,-592.164754,-10572.117872
920.850128,3552.988522,-1110.308913,-10801.946522
920.850448,3256.906145,518.144159,-10572.117872
920.850768,-666.185348,2886.803174,-10572.117872
920.851088,-3034.844362,3404.947333,-10035.851024
920.851408,-2590.720797,3849.070898,-10495.508323
920.851728,-814.226536,2220.617826,-10725.336972
920.852048,-666.185348,-2442.679609,-9422.974625
920.852368,-1406.391290,-5995.668130,-9576.193725
920.852688,-3330.926739,-6217.729913,-9039.926876
920.853008,-3552.988522,-2516.700203,-9499.584175
920.853328,222.061783,2442.679609,-10418.898773
920.853648,2220.617826,5107.421000,-10878.556072
920.853968,666.185348,5403.503377,-10342.289223
920.854288,-1184.329507,3108.864956,-10725.336972
920.854608,-814.226536,148.041188,-9576.193725
920.854928,0.000000,-1850.514855,-10112.460574
920.855248,-296.082377,-3108.864956,-9882.631924
920.855568,-740.205942,-2516.700203,-9422.974625
920.855888,-1924.535449,-1406.391290,-9806.022374
920.856208,-2220.617826,888.247130,-9422.974625
920.856528,888.247130,1110.308913,-10572.117872
920.856848,518.144159,3182.885551,-10189.070123
920.857168,148.041188,3256.906145,-10648.727422
920.857488,1258.350101,1850.514855,-10418.898773
920.857808,2664.741391,296.082377,-10265.679673
920.858128,4293.194464,-1184.329507,-10572.117872
920.858448,1998.556043,-1110.308913,-10495.508323
920.858768,296.082377,0.000000,-10112.460574
920.859088,-148.041188,1258.350101,-10112.460574
920.859408,-888.247130,518.144159,-9576.193725
920.859728,-592.164754,-592.164754,-9882.631924
920.860048,222.061783,-1406.391290,-9882.631924
920.860368,888.247130,-888.247130,-10035.851024
920.860688,3330.926739,296.082377,-10495.508323
920.861008,2960.823768,1554.432478,-9806.022374
920.861328,1850.514855,1184.329507,-10112.460574
920.861648,2442.679609,222.061783,-9499.584175
920.861968,3552.988522,-740.205942,-10418.898773
920.862288,3775.050304,-962.267725,-10112.460574
920.862608,1480.411884,-814.226536,-10112.460574
920.862928,1036.288319,0.000000,-9576.193725
920.863248,1628.453072,0.000000,-10035.851024
920.863568,1554.432478,444.123565,-10035.851024
920.863888,222.061783,666.185348,-10035.851024
920.864208,-1850.514855,-444.123565,-9576.193725
920.864528,518.144159,-592.164754,-9806.022374
920.864848,1702.473667,-1628.453072,-9652.803275
920.865168,2664.741391,-1480.411884,-10112.460574
920.865488,1924.535449,0.000000,-10265.679673
920.865808,1628.453072,888.247130,-9959.241474
920.866128,1924.535449,2146.597232,-10878.556072
920.866448,2812.782580,2738.761985,-10035.851024
920.866768,222.061783,1110.308913,-10725.336972
920.867088,-2368.659014,-518.144159,-10572.117872
920.867408,-3627.009116,-1406.391290,-9422.974625
920.867728,-3108.864956,-1332.370696,-10572.117872
920.868048,-592.164754,-1332.370696,-9116.536426
920.868368,518.144159,-1110.308913,-10265.679673
920.868688,-1184.329507,370.102971,-11031.775171
920.869008,-1110.308913,1258.350101,-9959.241474
920.869328,-1184.329507,2886.803174,-10495.508323
920.869648,740.205942,2590.720797,-10955.165621
920.869968,370.102971,1480.411884,-10342.289223
920.870288,-1110.308913,222.061783,-10572.117872
920.870608,-1998.556043,-666.185348,-9346.365076
920.870928,-1110.308913,-296.082377,-9806.022374
920.871248,1332.370696,444.123565,-10725.336972
920.871568,74.020594,1110.308913,-9576.193725
920.871888,-1332.370696,592.164754,-10418.898773
920.872208,-2516.700203,222.061783,-9652.803275
920.872528,-1776.494261,222.061783,-9193.145976
920.872848,74.020594,296.082377,-9882.631924
920.873168,1258.350101,814.226536,-9652.803275
920.873488,2886.803174,1628.453072,-10495.508323
920.873808,2516.700203,1480.411884,-10112.460574
920.874128,2812.782580,1554.432478,-9652.803275
920.874448,2590.720797,1184.329507,-10495.508323
920.874768,-370.102971,888.247130,-9729.412825
920.875088,-2886.803174,888.247130,-9499.584175
920.875408,-2220.617826,-518.144159,-9499.584175
920.875728,-1406.391290,-1480.411884,-9422.974625
920.876048,1480.411884,-962.267725,-9959.241474
920.876368,3108.864956,-592.164754,-9729.412825
920.876688,3775.050304,222.061783,-10035.851024
920.877008,3404.947333,1776.494261,-10495.508323
920.877328,2368.659014,1406.391290,-10495.508323
920.877648,2516.700203,1998.556043,-9882.631924
920.877968,2590.720797,1110.308913,-10572.117872
920.878288,2368.659014,296.082377,-10572.117872
920.878608,444.123565,-148.041188,-10342.289223
920.878928,-1184.329507,444.123565,-10418.898773
920.879248,888.247130,666.185348,-9959.241474
920.879568,2368.659014,2664.741391,-10725.336972
920.879888,3478.967927,2960.823768,-10189.070123
920.880208,4145.153275,740.205942,-10035.851024
920.880528,3034.844362,-1924.535449,-10189.070123
920.880848,3627.009116,-4811.338623,-10035.851024
920.881168,3108.864956,-2886.803174,-9422.974625
920.881488,2886.803174,296.082377,-9806.022374
920.881808,1110.308913,3627.009116,-10342.289223
920.882128,0.000000,4071.132681,-10265.679673
920.882448,148.041188,1258.350101,-9882.631924
920.882768,222.061783,-2368.659014,-8886.707777
920.883088,-2072.576638,-4071.132681,-9269.755526
920.883408,-2960.823768,-3923.091493,-9806.022374
920.883728,-3404.947333,-2516.700203,-9576.193725
920.884048,-2738.761985,-888.247130,-9882.631924
920.884368,518.144159,518.144159,-9729.412825
920.884688,1258.350101,1480.411884,-10495.508323
920.885008,1258.350101,2516.700203,-10801.946522
920.885328,-592.164754,2738.761985,-9806.022374
920.885648,-1850.514855,2368.659014,-10725.336972
920.885968,1332.370696,-888.247130,-10035.851024
920.886288,296.082377,-3997.112087,-10189.070123
920.886608,-1184.329507,-5033.400406,-10112.460574
920.886928,-3775.050304,-2960.823768,-9959.241474
920.887248,-5403.503377,1258.350101,-9959.241474
920.887568,-3404.947333,4589.276840,-11184.994271
920.887888,0.000000,4737.318029,-11261.603821
920.888208,1332.370696,962.267725,-11108.384721
920.888528,148.041188,-1998.556043,-10418.898773
920.888848,-1480.411884,-2886.803174,-10265.679673
920.889168,-962.267725,-1702.473667,-9576.193725
920.889488,814.226536,740.205942,-10342.289223
920.889808,518.144159,2220.617826,-10418.898773
920.890128,-370.102971,2368.659014,-10418.898773
920.890448,-814.226536,888.247130,-9806.022374
920.890768,148.041188,-962.267725,-9729.412825
920.891088,222.061783,-1924.535449,-10342.289223
920.891408,0.000000,-2368.659014,-9652.803275
920.891728,-1480.411884,-2516.700203,-9346.365076
920.892048,-1998.556043,-2368.659014,-8733.488677
920.892368,962.267725,-2516.700203,-9576.193725
920.892688,3330.926739,-592.164754,-9882.631924
920.893008,3997.112087,962.267725,-9959.241474
920.893328,3330.926739,2590.720797,-9806.022374
920.893648,2220.617826,2516.700203,-10495.508323
920.893968,3627.009116,-148.041188,-9882.631924
920.894288,3256.906145,-1776.494261,-9729.412825
920.894608,2368.659014,-1406.391290,-10265.679673
920.894928,1406.391290,-370.102971,-9882.631924
920.895248,74.020594,222.061783,-10265.679673
920.895568,740.205942,1184.329507,-10418.898773
920.895888,2368.659014,1554.432478,-10112.460574
920.896208,3182.885551,2294.638420,-10878.556072
920.896528,1924.535449,1998.556043,-10801.946522
920.896848,740.205942,1110.308913,-10342.289223
920.897168,2368.659014,444.123565,-10189.070123
920.897488,3552.988522,148.041188,-10725.336972
920.897808,4367.215058,-148.041188,-10035.851024
920.898128,1628.453072,74.020594,-11261.603821
920.898448,592.164754,2146.597232,-9729.412825
920.898768,0.000000,3552.988522,-11184.994271
920.899088,962.267725,2516.700203,-9882.631924
920.899408,0.000000,814.226536,-10495.508323
920.899728,-1776.494261,-1776.494261,-9729.412825
920.900048,-444.123565,-1480.411884,-9422.974625
920.900368,-148.041188,148.041188,-10189.070123
920.900688,2072.576638,2220.617826,-9576.193725
920.901008,0.000000,2664.741391,-9652.803275
920.901328,-1258.350101,2368.659014,-10418.898773
920.901648,-2368.659014,1184.329507,-9499.584175
920.901968,-1850.514855,444.123565,-10112.460574
920.902288,-592.164754,-148.041188,-9576.193725
920.902608,-666.185348,740.205942,-9346.365076
920.902928,-740.205942,888.247130,-10265.679673
920.903248,-740.205942,-444.123565,-9346.365076
920.903568,-1776.494261,-1110.308913,-9039.926876
920.903888,-3108.864956,-888.247130,-9422.974625
920.904208,-1702.473667,592.164754,-9806.022374
920.904528,592.164754,2146.597232,-10725.336972
920.904848,2072.576638,3108.864956,-10035.851024
920.905168,518.144159,2442.679609,-9959.241474
920.905488,-444.123565,1332.370696,-10495.508323
920.905808,-666.185348,0.000000,-10112.460574
920.906128,0.000000,444.123565,-11261.603821
920.906448,-1332.370696,370.102971,-9882.631924
920.906768,-1258.350101,296.082377,-9806.022374
920.907088,-814.226536,296.082377,-10342.289223
920.907408,222.061783,148.041188,-10648.727422
920.907728,1184.329507,1110.308913,-10572.117872
920.908048,296.082377,1110.308913,-10878.556072
920.908368,-518.144159,1110.308913,-10112.460574
920.908688,296.082377,740.205942,-10648.727422
920.909008,2072.576638,-370.102971,-10112.460574
920.909328,2812.782580,-1258.350101,-9882.631924
920.909648,3775.050304,-1480.411884,-10112.460574
920.909968,1998.556043,0.000000,-10112.460574
920.910288,888.247130,888.247130,-10189.070123
920.910608,-888.247130,1110.308913,-9959.241474
920.910928,-888.247130,962.267725,-10112.460574
920.911248,1036.288319,-1332.370696,-9806.022374
920.911568,1480.411884,-3330.926739,-9729.412825
920.911888,2812.782580,-1998.556043,-10495.508323
920.912208,2442.679609,-592.164754,-10112.460574
920.912528,3330.926739,1998.556043,-10265.679673
920.912848,2886.803174,4071.132681,-10878.556072
920.913168,1850.514855,4663.297435,-10418.898773
920.913488,740.205942,2738.761985,-9882.631924
920.913808,1406.391290,-444.123565,-9806.022374
920.914128,1998.556043,-4145.153275,-9806.022374
920.914448,1702.473667,-6661.853478,-9576.193725
920.914767,814.226536,-6883.915261,-9039.926876
920.915087,2146.597232,-4441.235652,-9039.926876
920.915407,2220.617826,-518.144159,-9806.022374
920.915727,814.226536,2590.720797,-10035.851024
920.916047,-1110.308913,4071.132681,-10572.117872
920.916367,-1998.556043,2960.823768,-9806.022374
920.916687,148.041188,370.102971,-10265.679673
920.917007,1036.288319,-2516.700203,-10342.289223
920.917327,222.061783,-4367.215058,-10495.508323
920.917647,-888.247130,-3923.091493,-9882.631924
920.917967,-1776.494261,-2072.576638,-9729.412825
920.918287,-888.247130,1776.494261,-9959.241474
920.918607,296.082377,2960.823768,-10725.336972
920.918927,444.123565,3627.009116,-10648.727422
920.919247,-1258.350101,1258.350101,-10265.679673
920.919567,-2960.823768,1184.329507,-9882.631924
920.919887,-1702.473667,-740.205942,-10342.289223
920.920207,296.082377,-2516.700203,-10418.898773
920.920527,-666.185348,-370.102971,-10572.117872
920.920847,-1850.514855,962.267725,-10189.070123
920.921167,-1110.308913,2738.761985,-10342.289223
920.921487,74.020594,3701.029710,-11108.384721
920.921807,1554.432478,2960.823768,-10342.289223
920.922127,0.000000,1110.308913,-9729.412825
920.922447,-1776.494261,-444.123565,-9806.022374
920.922767,-1924.535449,-2442.679609,-9499.584175
920.923087,0.000000,-2516.700203,-10035.851024
920.923407,1702.473667,-1332.370696,-10112.460574
920.923727,1480.411884,1110.308913,-9422.974625
920.924047,1110.308913,4219.173869,-10418.898773
920.924367,1628.453072,3627.009116,-9882.631924
920.924687,296.082377,1628.453072,-9959.241474
920.925007,1110.308913,518.144159,-10265.679673
920.925327,1036.288319,-1554.432478,-9422.974625
920.925647,1110.308913,-1184.329507,-9882.631924
920.925967,962.267725,-814.226536,-9806.022374
920.926287,1332.370696,-296.082377,-9269.755526
920.926607,1924.535449,1036.288319,-9959.241474
920.926927,3404.947333,1924.535449,-9882.631924
