#time,accel_x,accel_y,accel_z
902.422290,518.144159,444.123565,-10189.070123
902.422610,444.123565,0.000000,-10035.851024
902.422930,444.123565,-74.020594,-10265.679673
902.423250,666.185348,-296.082377,-10265.679673
902.423570,-518.144159,518.144159,-10189.070123
902.423891,370.102971,370.102971,-10342.289223
902.424211,148.041188,962.267725,-10112.460574
902.424531,592.164754,888.247130,-10112.460574
902.424851,740.205942,74.020594,-10189.070123
902.425171,814.226536,0.000000,-10112.460574
902.425492,666.185348,-222.061783,-10265.679673
902.425812,740.205942,-222.061783,-10265.679673
902.426132,592.164754,296.082377,-9959.241474
902.426452,296.082377,370.102971,-10189.070123
902.426772,444.123565,370.102971,-9806.022374
902.427093,592.164754,296.082377,-10035.851024
902.427413,1110.308913,0.000000,-10265.679673
902.427733,518.144159,0.000000,-10035.851024
902.428053,0.000000,-222.061783,-9882.631924
902.428373,0.000000,74.020594,-9959.241474
902.428694,444.123565,296.082377,-10035.851024
902.429014,592.164754,518.144159,-9959.241474
902.429334,74.020594,296.082377,-10265.679673
902.429654,888.247130,296.082377,-9959.241474
902.429974,1036.288319,222.061783,-10495.508323
902.430295,1184.329507,0.000000,-10035.851024
902.430615,148.041188,-148.041188,-9959.241474
902.430935,-370.102971,0.000000,-10035.851024
902.431255,0.000000,296.082377,-10035.851024
902.431575,148.041188,222.061783,-10265.679673
902.431896,-148.041188,-666.185348,-10112.460574
902.432216,-1332.370696,-814.226536,-10189.070123
902.432536,-518.144159,-814.226536,-9959.241474
902.432856,-222.061783,-296.082377,-9959.241474
902.433176,-518.144159,0.000000,-10189.070123
902.433497,-296.082377,222.061783,-10189.070123
902.433817,74.020594,-296.082377,-10112.460574
902.434137,0.000000,-518.144159,-9959.241474
902.434457,-814.226536,-1036.288319,-10112.460574
902.434777,-962.267725,-1332.370696,-9806.022374
902.435097,-962.267725,-1406.391290,-10112.460574
902.435418,-888.247130,-814.226536,-9806.022374
902.435738,-1776.494261,-1036.288319,-9959.241474
902.436058,-2442.679609,-1184.329507,-9882.631924
902.436378,-1554.432478,-962.267725,-9729.412825
902.436698,-740.205942,-1406.391290,-9882.631924
902.437019,-666.185348,-1702.473667,-9959.241474
902.437339,-1110.308913,-2294.638420,-10112.460574
902.437659,-814.226536,-2146.597232,-10495.508323
902.437979,74.020594,-1998.556043,-9806.022374
902.438299,-148.041188,-1480.411884,-10035.851024
902.438620,-1406.391290,-1776.494261,-10035.851024
902.438940,-2812.782580,-2368.659014,-10112.460574
902.439260,-3256.906145,-3182.885551,-9729.412825
902.439580,-2368.659014,-3330.926739,-10035.851024
902.439900,-2368.659014,-3182.885551,-9806.022374
902.440221,-2960.823768,-2960.823768,-9882.631924
902.440541,-2664.741391,-2886.803174,-9806.022374
902.440861,-740.205942,-2664.741391,-9959.241474
902.441181,1110.308913,-1702.473667,-10265.679673
902.441501,1110.308913,-1258.350101,-10342.289223
902.441822,0.000000,-1850.514855,-10801.946522
902.442142,-1850.514855,-1628.453072,-10418.898773
902.442462,-2960.823768,-2516.700203,-10342.289223
902.442782,-4589.276840,-3108.864956,-10189.070123
902.443102,-5625.565159,-4071.132681,-9806.022374
902.443423,-4737.318029,-4145.153275,-10572.117872
902.443743,-2960.823768,-5107.421000,-9806.022374
902.444063,-888.247130,-4515.256246,-10112.460574
902.444383,74.020594,-2886.803174,-10342.289223
902.444703,1036.288319,-740.205942,-11414.822920
902.445024,1924.535449,518.144159,-10648.727422
902.445344,2368.659014,444.123565,-10342.289223
902.445664,1998.556043,-222.061783,-10418.898773
902.445984,148.041188,-1850.514855,-10342.289223
902.446304,-2368.659014,-3034.844362,-9882.631924
902.446624,-3478.967927,-3997.112087,-9882.631924
902.446945,-5403.503377,-4145.153275,-9576.193725
902.447265,-5773.606348,-4589.276840,-9652.803275
902.447585,-5181.441594,-4737.318029,-8963.317327
902.447905,-1554.432478,-5181.441594,-9346.365076
902.448225,962.267725,-4145.153275,-9882.631924
902.448546,2368.659014,-2146.597232,-9959.241474
902.448866,2886.803174,814.226536,-10265.679673
902.449186,4219.173869,3034.844362,-9882.631924
902.449506,3997.112087,3701.029710,-11108.384721
902.449826,592.164754,2294.638420,-10725.336972
902.450147,-3478.967927,-1406.391290,-10265.679673
902.450467,-5921.647536,-4441.235652,-9576.193725
902.450787,-5773.606348,-6661.853478,-9499.584175
902.451107,-4811.338623,-7105.977043,-9729.412825
902.451427,-4219.173869,-6143.709319,-9652.803275
902.451748,-2738.761985,-3701.029710,-9576.193725
902.452068,-222.061783,-296.082377,-10112.460574
902.452388,1480.411884,2516.700203,-10725.336972
902.452708,2146.597232,4959.379811,-10648.727422
902.453028,2368.659014,4219.173869,-10801.946522
902.453349,2960.823768,2442.679609,-11874.480219
902.453669,2368.659014,0.000000,-10572.117872
902.453989,-888.247130,-1776.494261,-10648.727422
902.454309,-3849.070898,-3256.906145,-9806.022374
902.454629,-5403.503377,-3108.864956,-10342.289223
902.454950,-6439.791695,-2664.741391,-9806.022374
902.455270,-7624.121203,-3404.947333,-9576.193725
902.455590,-6735.874072,-4737.318029,-9346.365076
902.455910,-2886.803174,-4811.338623,-9269.755526
902.456230,1110.308913,-2738.761985,-9806.022374
902.456551,3404.947333,370.102971,-10035.851024
902.456871,2368.659014,3182.885551,-10725.336972
902.457191,1776.494261,4737.318029,-10342.289223
902.457511,1850.514855,3997.112087,-10189.070123
902.457831,2072.576638,1702.473667,-10495.508323
902.458152,-296.082377,-1110.308913,-10265.679673
902.458472,-3627.009116,-3923.091493,-10342.289223
902.458792,-5921.647536,-4885.359217,-9499.584175
902.459112,-7328.038826,-4219.173869,-9039.926876
902.459432,-7846.182985,-3256.906145,-8886.707777
902.459752,-5403.503377,-3478.967927,-8810.098227
902.460073,-1406.391290,-3627.009116,-9346.365076
902.460393,2590.720797,-2368.659014,-9806.022374
902.460713,3330.926739,-2516.700203,-10189.070123
902.461033,3330.926739,370.102971,-10189.070123
902.461353,4293.194464,3034.844362,-10342.289223
902.461674,4219.173869,3849.070898,-10572.117872
902.461994,2516.700203,1924.535449,-10878.556072
902.462314,-2146.597232,-740.205942,-10265.679673
902.462634,-6439.791695,-4441.235652,-10342.289223
902.462954,-7402.059420,-7254.018232,-9422.974625
902.463275,-6661.853478,-8734.430116,-9576.193725
902.463595,-4737.318029,-7846.182985,-9499.584175
902.463915,-5033.400406,-6217.729913,-9652.803275
902.464235,-3182.885551,-4441.235652,-9729.412825
902.464555,296.082377,-666.185348,-10418.898773
902.464876,4367.215058,1776.494261,-10725.336972
902.465196,6069.688724,3034.844362,-11721.261119
902.465516,4071.132681,2590.720797,-11644.651570
902.465836,74.020594,296.082377,-10955.165621
902.466156,-1924.535449,-2294.638420,-10189.070123
902.466477,-3108.864956,-4737.318029,-9882.631924
902.466797,-4515.256246,-5995.668130,-10572.117872
902.467117,-7105.977043,-6513.812290,-9346.365076
902.467437,-8068.244768,-7031.956449,-9193.145976
902.467757,-5921.647536,-6661.853478,-9116.536426
902.468078,-2442.679609,-4145.153275,-10112.460574
902.468398,-962.267725,-1406.391290,-10112.460574
902.468718,-1406.391290,-592.164754,-9806.022374
902.469038,-444.123565,-518.144159,-9346.365076
902.469358,2368.659014,-592.164754,-10189.070123
902.469679,4071.132681,-518.144159,-10342.289223
902.469999,3256.906145,0.000000,-10572.117872
902.470319,444.123565,-1702.473667,-10801.946522
902.470639,-1924.535449,-2812.782580,-9882.631924
902.470959,-4219.173869,-3923.091493,-10418.898773
902.471279,-6809.894666,-4737.318029,-9346.365076
902.471600,-6661.853478,-4515.256246,-9269.755526
902.471920,-4737.318029,-4663.297435,-8886.707777
902.472240,-2368.659014,-3997.112087,-9346.365076
902.472560,74.020594,-3330.926739,-9959.241474
902.472880,1776.494261,-1998.556043,-10112.460574
902.473201,2590.720797,74.020594,-10418.898773
902.473521,1480.411884,1110.308913,-11108.384721
902.473841,666.185348,1406.391290,-10265.679673
902.474161,222.061783,1332.370696,-10495.508323
902.474481,740.205942,-1036.288319,-10801.946522
902.474802,592.164754,-3330.926739,-10342.289223
902.475122,-2220.617826,-2960.823768,-10342.289223
902.475442,-3923.091493,-3701.029710,-10189.070123
902.475762,-4515.256246,-3034.844362,-10342.289223
902.476082,-3775.050304,-1554.432478,-9499.584175
902.476403,-3330.926739,-2368.659014,-9882.631924
902.476723,-1480.411884,-3108.864956,-9652.803275
902.477043,444.123565,-1702.473667,-9959.241474
902.477363,2960.823768,962.267725,-10572.117872
902.477683,2812.782580,2812.782580,-10725.336972
902.478004,962.267725,1628.453072,-10342.289223
902.478324,-518.144159,1110.308913,-9959.241474
902.478644,-1110.308913,-888.247130,-9652.803275
902.478964,-3108.864956,-2442.679609,-9806.022374
902.479284,-3849.070898,-3627.009116,-9729.412825
902.479604,-4811.338623,-5107.421000,-9652.803275
902.479925,-4219.173869,-3552.988522,-9576.193725
902.480245,-3997.112087,-962.267725,-9576.193725
902.480565,-2590.720797,-1332.370696,-9959.241474
902.480885,0.000000,-2368.659014,-9806.022374
902.481205,1184.329507,-1258.350101,-10112.460574
902.481525,2442.679609,-814.226536,-10418.898773
902.481845,2442.679609,962.267725,-10801.946522
902.482165,1110.308913,2664.741391,-10725.336972
902.482486,-518.144159,3627.009116,-10572.117872
902.482806,-1184.329507,740.205942,-10725.336972
902.483126,-1998.556043,-148.041188,-9806.022374
902.483446,-4071.132681,-3775.050304,-10572.117872
902.483766,-3775.050304,-4811.338623,-9806.022374
902.484086,-2368.659014,-3404.947333,-9729.412825
902.484406,-2294.638420,-1998.556043,-10189.070123
902.484726,-666.185348,-3330.926739,-9116.536426
902.485046,-740.205942,-2368.659014,-9499.584175
902.485367,1332.370696,-666.185348,-10495.508323
902.485687,2664.741391,222.061783,-9806.022374
902.486007,1776.494261,2146.597232,-10189.070123
902.486327,888.247130,1850.514855,-10955.165621
902.486647,-1110.308913,-370.102971,-9959.241474
902.486967,-370.102971,-2442.679609,-10112.460574
902.487287,-962.267725,-2294.638420,-10035.851024
902.487607,-4663.297435,-2590.720797,-10418.898773
902.487928,-6291.750507,-1850.514855,-9882.631924
902.488248,-3997.112087,-3404.947333,-9806.022374
902.488568,-1924.535449,-3478.967927,-9576.193725
902.488888,-962.267725,-3330.926739,-9959.241474
902.489208,-814.226536,-2294.638420,-10725.336972
902.489528,444.123565,296.082377,-10495.508323
902.489848,1406.391290,1184.329507,-10189.070123
902.490168,1850.514855,3108.864956,-10648.727422
902.490489,2368.659014,-370.102971,-10495.508323
902.490809,3627.009116,-2146.597232,-11184.994271
902.491129,1702.473667,-2146.597232,-10112.460574
902.491449,-1554.432478,-1998.556043,-10035.851024
902.491769,-3849.070898,1406.391290,-10112.460574
902.492089,-2812.782580,-1998.556043,-9652.803275
902.492409,-518.144159,-2812.782580,-9959.241474
902.492729,-592.164754,-2886.803174,-9269.755526
902.493050,-666.185348,-3478.967927,-9806.022374
902.493370,-814.226536,-2368.659014,-9346.365076
902.493690,0.000000,-666.185348,-10112.460574
902.494010,2960.823768,2738.761985,-9652.803275
902.494330,3182.885551,3404.947333,-10342.289223
902.494650,1776.494261,1184.329507,-10648.727422
902.494970,518.144159,-518.144159,-9346.365076
902.495290,-148.041188,-1850.514855,-10342.289223
902.495611,888.247130,-1258.350101,-9959.241474
902.495931,814.226536,-1110.308913,-9193.145976
902.496251,-962.267725,-1702.473667,-10495.508323
902.496571,-2072.576638,-2590.720797,-9576.193725
902.496891,-1924.535449,-1702.473667,-10112.460574
902.497211,962.267725,0.000000,-10265.679673
902.497531,4737.318029,1998.556043,-9116.536426
902.497851,3849.070898,1406.391290,-10725.336972
902.498172,3330.926739,-222.061783,-10342.289223
902.498492,3701.029710,-740.205942,-9959.241474
902.498812,2590.720797,1110.308913,-10035.851024
902.499132,1332.370696,1554.432478,-10112.460574
902.499452,1258.350101,1406.391290,-10495.508323
902.499772,370.102971,148.041188,-10112.460574
902.500092,-666.185348,74.020594,-10342.289223
902.500412,-1184.329507,-888.247130,-9193.145976
902.500733,-1258.350101,-1776.494261,-10572.117872
902.501053,0.000000,-3034.844362,-9806.022374
902.501373,1332.370696,-1776.494261,-10418.898773
902.501693,1480.411884,2442.679609,-10418.898773
902.502013,1776.494261,3034.844362,-9806.022374
902.502333,1480.411884,1184.329507,-11031.775171
902.502653,4219.173869,222.061783,-10648.727422
902.502973,3034.844362,2294.638420,-10725.336972
902.503293,-296.082377,3997.112087,-11184.994271
902.503614,-3182.885551,3997.112087,-10342.289223
902.503934,-4367.215058,2146.597232,-10572.117872
902.504254,-3034.844362,-814.226536,-9729.412825
902.504574,-1332.370696,-3923.091493,-8963.317327
902.504894,-1110.308913,-1850.514855,-9882.631924
902.505214,-1406.391290,-740.205942,-9806.022374
902.505534,-1702.473667,296.082377,-8886.707777
902.505854,-1036.288319,1480.411884,-9346.365076
902.506175,1702.473667,370.102971,-9269.755526
902.506495,3478.967927,0.000000,-9806.022374
902.506815,2738.761985,888.247130,-10495.508323
902.507135,0.000000,2220.617826,-10418.898773
902.507455,-666.185348,1332.370696,-9116.536426
902.507775,370.102971,1332.370696,-10112.460574
902.508095,-296.082377,666.185348,-10035.851024
902.508415,-2442.679609,-962.267725,-10035.851024
902.508736,-3627.009116,-1332.370696,-10189.070123
902.509056,-592.164754,-666.185348,-9576.193725
902.509376,1776.494261,1702.473667,-10265.679673
902.509696,3404.947333,2590.720797,-10725.336972
902.510016,2886.803174,1184.329507,-10648.727422
902.510336,1110.308913,1998.556043,-10265.679673
902.510656,1258.350101,1776.494261,-10189.070123
902.510976,1924.535449,2960.823768,-10648.727422
902.511297,3478.967927,3627.009116,-10878.556072
902.511617,3923.091493,2590.720797,-11184.994271
902.511937,2294.638420,518.144159,-10878.556072
902.512257,74.020594,-1480.411884,-10035.851024
902.512577,-1184.329507,-2664.741391,-9422.974625
902.512897,-518.144159,-1702.473667,-9806.022374
902.513217,740.205942,2368.659014,-9422.974625
902.513537,3775.050304,3034.844362,-11414.822920
902.513858,3552.988522,2368.659014,-10189.070123
902.514178,2220.617826,0.000000,-10189.070123
902.514498,2368.659014,-1924.535449,-9806.022374
902.514818,2220.617826,-444.123565,-9346.365076
902.515138,1924.535449,1406.391290,-10035.851024
902.515458,1406.391290,1998.556043,-9882.631924
902.515778,592.164754,-444.123565,-9729.412825
902.516098,222.061783,-1036.288319,-9959.241474
902.516419,0.000000,-1406.391290,-9806.022374
902.516739,296.082377,-740.205942,-8810.098227
902.517059,74.020594,-814.226536,-10801.946522
902.517379,74.020594,-296.082377,-9882.631924
902.517699,-740.205942,-962.267725,-9806.022374
902.518019,-518.144159,-296.082377,-10418.898773
902.518339,2294.638420,518.144159,-9959.241474
902.518659,2072.576638,1258.350101,-11184.994271
902.518979,1998.556043,1554.432478,-10725.336972
902.519300,0.000000,1554.432478,-10189.070123
902.519620,-2590.720797,370.102971,-10648.727422
902.519940,-2368.659014,-888.247130,-9959.241474
902.520260,-2368.659014,-1554.432478,-10955.165621
902.520580,-666.185348,-2516.700203,-10648.727422
902.520900,-1628.453072,-1406.391290,-9576.193725
902.521220,-2590.720797,1036.288319,-10572.117872
902.521540,-2220.617826,1702.473667,-11031.775171
902.521861,-1184.329507,-296.082377,-10725.336972
902.522181,-1258.350101,-740.205942,-10725.336972
902.522501,222.061783,-1184.329507,-9959.241474
902.522821,370.102971,-592.164754,-9729.412825
902.523141,1628.453072,0.000000,-10572.117872
902.523461,888.247130,-222.061783,-9959.241474
902.523781,814.226536,-1406.391290,-10265.679673
902.524101,-1332.370696,-888.247130,-9576.193725
902.524422,-592.164754,-888.247130,-9806.022374
902.524742,-1110.308913,0.000000,-10342.289223
902.525062,-2368.659014,-518.144159,-9959.241474
902.525382,74.020594,-1110.308913,-9729.412825
902.525702,2442.679609,-666.185348,-10342.289223
902.526022,1480.411884,-1036.288319,-9729.412825
902.526342,-1184.329507,222.061783,-9422.974625
902.526662,814.226536,962.267725,-10495.508323
902.526983,3404.947333,518.144159,-9882.631924
902.527303,2960.823768,592.164754,-10112.460574
902.527623,1628.453072,0.000000,-10342.289223
902.527943,-814.226536,-222.061783,-9576.193725
902.528263,-1480.411884,-888.247130,-10112.460574
902.528583,1554.432478,888.247130,-9959.241474
902.528903,1554.432478,444.123565,-9729.412825
902.529223,1998.556043,-888.247130,-10189.070123
902.529544,3256.906145,-1480.411884,-9422.974625
902.529864,1406.391290,-740.205942,-9576.193725
902.530184,2590.720797,814.226536,-10342.289223
902.530504,3404.947333,2368.659014,-9729.412825
902.530824,1332.370696,2146.597232,-10725.336972
902.531144,740.205942,2368.659014,-10648.727422
902.531464,-74.020594,740.205942,-9882.631924
902.531784,1036.288319,0.000000,-10342.289223
902.532105,2960.823768,222.061783,-9959.241474
902.532425,2368.659014,1850.514855,-10725.336972
902.532745,296.082377,1850.514855,-10495.508323
902.533065,-962.267725,1036.288319,-9039.926876
902.533385,-296.082377,74.020594,-9806.022374
902.533705,222.061783,74.020594,-9959.241474
902.534025,962.267725,814.226536,-10189.070123
902.534345,1776.494261,740.205942,-9959.241474
902.534665,2072.576638,0.000000,-9499.584175
902.534986,1776.494261,1258.350101,-9959.241474
902.535306,814.226536,1406.391290,-9806.022374
902.535626,1480.411884,888.247130,-10112.460574
902.535946,2368.659014,1850.514855,-9729.412825
902.536266,888.247130,0.000000,-9959.241474
902.536586,-1480.411884,-888.247130,-8963.317327
902.536906,-1258.350101,-962.267725,-9193.145976
902.537226,-370.102971,-1554.432478,-9806.022374
902.537547,1184.329507,-1480.411884,-9346.365076
902.537867,296.082377,74.020594,-10112.460574
902.538187,-962.267725,2886.803174,-9959.241474
902.538507,-1258.350101,3775.050304,-10572.117872
902.538827,-1480.411884,3997.112087,-10801.946522
902.539147,-1776.494261,3404.947333,-10495.508323
902.539467,74.020594,2442.679609,-11568.042020
902.539787,148.041188,1776.494261,-10572.117872
902.540108,-222.061783,222.061783,-10801.946522
902.540428,-370.102971,2516.700203,-10955.165621
902.540748,0.000000,2590.720797,-10648.727422
902.541068,444.123565,3182.885551,-11031.775171
902.541388,2072.576638,740.205942,-11261.603821
902.541708,1776.494261,-1036.288319,-10265.679673
902.542028,-2072.576638,-1998.556043,-10495.508323
902.542348,-2664.741391,-1628.453072,-9806.022374
902.542669,-148.041188,1036.288319,-9729.412825
902.542989,1850.514855,1776.494261,-10572.117872
902.543309,2960.823768,1332.370696,-9806.022374
902.543629,1776.494261,518.144159,-9882.631924
902.543949,222.061783,-1702.473667,-9729.412825
902.544269,1850.514855,-2146.597232,-9039.926876
902.544589,2220.617826,-814.226536,-9422.974625
902.544909,2220.617826,0.000000,-9039.926876
902.545230,1480.411884,888.247130,-9193.145976
902.545550,3034.844362,74.020594,-9422.974625
902.545870,3627.009116,1406.391290,-9806.022374
902.546190,4071.132681,296.082377,-9729.412825
902.546510,3775.050304,666.185348,-9193.145976
902.546830,2590.720797,1258.350101,-9576.193725
902.547150,2664.741391,740.205942,-9116.536426
902.547470,592.164754,222.061783,-10342.289223
902.547791,1258.350101,-1036.288319,-9652.803275
902.548111,518.144159,-370.102971,-10189.070123
902.548431,-1480.411884,296.082377,-10725.336972
902.548751,-2516.700203,1554.432478,-10572.117872
902.549071,-740.205942,1110.308913,-10725.336972
902.549391,74.020594,2368.659014,-10648.727422
902.549711,-1110.308913,2590.720797,-10801.946522
902.550031,-444.123565,2220.617826,-10955.165621
902.550352,-1036.288319,592.164754,-10572.117872
902.550672,74.020594,-1406.391290,-10801.946522
902.550992,2072.576638,-3034.844362,-10495.508323
902.551312,1776.494261,-3108.864956,-10112.460574
902.551632,-222.061783,-2812.782580,-9959.241474
902.551952,-2072.576638,-1332.370696,-9806.022374
902.552272,-1480.411884,888.247130,-11184.994271
902.552592,518.144159,1036.288319,-10725.336972
902.552912,-962.267725,222.061783,-10189.070123
902.553233,-2960.823768,0.000000,-10495.508323
902.553553,-2812.782580,-1332.370696,-9806.022374
902.553873,-3627.009116,-1480.411884,-9882.631924
902.554193,-2220.617826,-1554.432478,-9422.974625
902.554513,-666.185348,-296.082377,-9806.022374
902.554833,1110.308913,-74.020594,-9806.022374
902.555153,2960.823768,740.205942,-9806.022374
902.555473,444.123565,962.267725,-9729.412825
902.555794,-666.185348,592.164754,-9499.584175
902.556114,1110.308913,370.102971,-9499.584175
902.556434,1554.432478,-592.164754,-9193.145976
902.556754,0.000000,-1628.453072,-9652.803275
902.557074,-1184.329507,-814.226536,-9806.022374
902.557394,-1850.514855,1258.350101,-9576.193725
902.557714,0.000000,740.205942,-9882.631924
902.558034,2442.679609,1776.494261,-9806.022374
902.558355,-1554.432478,-592.164754,-9882.631924
902.558675,-2072.576638,148.041188,-10572.117872
902.558995,-3330.926739,-222.061783,-9652.803275
902.559315,-1110.308913,1184.329507,-10418.898773
902.559635,1628.453072,444.123565,-10265.679673
902.559955,2072.576638,296.082377,-10725.336972
902.560275,2960.823768,-296.082377,-10189.070123
902.560595,2220.617826,1110.308913,-10801.946522
902.560916,962.267725,1702.473667,-11108.384721
902.561236,1776.494261,2146.597232,-10878.556072
902.561556,2220.617826,1406.391290,-10035.851024
902.561876,1924.535449,2146.597232,-10801.946522
902.562196,2072.576638,1036.288319,-10572.117872
902.562516,222.061783,296.082377,-10189.070123
902.562836,2812.782580,370.102971,-10265.679673
902.563156,4737.318029,370.102971,-10189.070123
902.563477,5847.626942,2368.659014,-10265.679673
902.563797,2886.803174,3182.885551,-10725.336972
902.564117,740.205942,3627.009116,-9806.022374
902.564437,370.102971,2812.782580,-9652.803275
902.564757,2960.823768,-962.267725,-9806.022374
902.565077,3552.988522,-2590.720797,-8273.831378
902.565397,1554.432478,-1110.308913,-9882.631924
902.565717,0.000000,0.000000,-9652.803275
902.566038,1406.391290,1332.370696,-9193.145976
902.566358,1776.494261,2220.617826,-10189.070123
902.566678,2516.700203,2220.617826,-9422.974625
902.566998,2664.741391,1924.535449,-9959.241474
902.567318,1628.453072,74.020594,-10189.070123
902.567638,1332.370696,222.061783,-9652.803275
902.567958,518.144159,666.185348,-10342.289223
902.568278,1258.350101,-888.247130,-9806.022374
902.568598,1924.535449,-1924.535449,-9576.193725
902.568919,296.082377,-1554.432478,-10189.070123
902.569239,-370.102971,222.061783,-10418.898773
902.569559,-2368.659014,2368.659014,-10572.117872
902.569879,-2516.700203,2590.720797,-10572.117872
902.570199,-444.123565,1406.391290,-10725.336972
902.570519,-962.267725,518.144159,-10955.165621
902.570839,-592.164754,-296.082377,-11031.775171
902.571159,-1036.288319,-148.041188,-10418.898773
902.571480,-1332.370696,740.205942,-10495.508323
902.571800,-814.226536,1332.370696,-11108.384721
902.572120,-518.144159,1776.494261,-11261.603821
902.572440,-3182.885551,2146.597232,-10265.679673
902.572760,-5329.482782,1776.494261,-10112.460574
902.573080,-5477.523971,2812.782580,-10189.070123
902.573400,-2516.700203,962.267725,-10342.289223
902.573720,296.082377,0.000000,-10265.679673
902.574041,1184.329507,-1702.473667,-10572.117872
902.574361,148.041188,-1480.411884,-9729.412825
902.574681,-1036.288319,-592.164754,-9422.974625
902.575001,-592.164754,1480.411884,-10265.679673
902.575321,0.000000,3627.009116,-9882.631924
902.575641,1554.432478,2220.617826,-10342.289223
902.575961,0.000000,-1332.370696,-9959.241474
902.576281,-1258.350101,-3404.947333,-8886.707777
902.576602,-1110.308913,-3627.009116,-9499.584175
902.576922,2294.638420,-3627.009116,-9882.631924
902.577242,5255.462188,-1110.308913,-9422.974625
902.577562,3627.009116,814.226536,-10725.336972
902.577882,0.000000,2738.761985,-10112.460574
902.578202,-1998.556043,2886.803174,-10572.117872
902.578522,1702.473667,2960.823768,-10801.946522
902.578842,4367.215058,1184.329507,-9959.241474
902.579162,3404.947333,-1628.453072,-10572.117872
902.579482,2368.659014,-3404.947333,-9806.022374
902.579802,1184.329507,-3330.926739,-9422.974625
902.580122,1184.329507,-1036.288319,-9882.631924
902.580442,3108.864956,444.123565,-9806.022374
902.580762,3330.926739,3034.844362,-10418.898773
902.581082,2516.700203,2368.659014,-10265.679673
902.581403,2516.700203,2294.638420,-9422.974625
902.581723,814.226536,1554.432478,-9959.241474
902.582043,4293.194464,-1258.350101,-10112.460574
902.582363,4737.318029,-1850.514855,-9806.022374
902.582683,2590.720797,-1776.494261,-10495.508323
902.583003,2220.617826,444.123565,-9806.022374
902.583323,1184.329507,2442.679609,-10342.289223
902.583643,1184.329507,4589.276840,-10572.117872
902.583963,1850.514855,4293.194464,-10495.508323
902.584283,1036.288319,3701.029710,-10801.946522
902.584603,0.000000,0.000000,-10265.679673
902.584923,1184.329507,-2368.659014,-9652.803275
902.585243,74.020594,-2960.823768,-10189.070123
902.585563,444.123565,-2146.597232,-10572.117872
902.585883,1184.329507,740.205942,-10112.460574
902.586203,-962.267725,3256.906145,-10955.165621
902.586523,-1036.288319,6069.688724,-11108.384721
902.586843,-2516.700203,6957.935855,-11184.994271
902.587163,-1184.329507,3997.112087,-10878.556072
902.587483,-1184.329507,1406.391290,-10112.460574
902.587803,-1702.473667,-1998.556043,-9806.022374
902.588123,-1998.556043,-5181.441594,-9576.193725
902.588443,-2738.761985,-5255.462188,-9039.926876
902.588763,-2220.617826,-3182.885551,-9346.365076
902.589083,-1998.556043,370.102971,-9422.974625
902.589403,-962.267725,2664.741391,-9959.241474
902.589723,-1628.453072,2960.823768,-10418.898773
902.590044,-1998.556043,1776.494261,-9882.631924
902.590364,-2294.638420,1332.370696,-10035.851024
902.590684,-592.164754,-592.164754,-9806.022374
902.591004,444.123565,-814.226536,-9499.584175
902.591324,-296.082377,-2072.576638,-9806.022374
902.591644,-740.205942,-1036.288319,-9576.193725
902.591964,-2368.659014,0.000000,-9346.365076
902.592284,-1406.391290,1036.288319,-9806.022374
902.592604,-2442.679609,2368.659014,-9806.022374
902.592924,-2442.679609,1702.473667,-10035.851024
902.593244,-518.144159,1702.473667,-10342.289223
902.593564,222.061783,-888.247130,-9729.412825
902.593884,1110.308913,-1924.535449,-10265.679673
902.594204,3256.906145,-888.247130,-9652.803275
902.594524,2442.679609,1628.453072,-10955.165621
902.594844,2368.659014,2072.576638,-10648.727422
902.595164,1702.473667,2664.741391,-9882.631924
902.595484,1184.329507,1406.391290,-10725.336972
902.595804,1554.432478,-444.123565,-9959.241474
902.596124,1998.556043,-592.164754,-10418.898773
902.596444,2886.803174,0.000000,-10572.117872
902.596764,4367.215058,-1258.350101,-10572.117872
902.597084,3034.844362,-740.205942,-10189.070123
902.597404,2590.720797,-2220.617826,-9959.241474
902.597724,2516.700203,370.102971,-10035.851024
902.598044,1258.350101,2516.700203,-10955.165621
902.598364,1480.411884,3775.050304,-10878.556072
902.598684,1184.329507,1554.432478,-9729.412825
902.599005,1332.370696,222.061783,-10189.070123
902.599325,3330.926739,-2368.659014,-10265.679673
902.599645,3849.070898,-2590.720797,-9269.755526
902.599965,1850.514855,-2590.720797,-9806.022374
902.600285,1850.514855,-1480.411884,-8963.317327
902.600605,814.226536,148.041188,-9806.022374
902.600925,592.164754,1110.308913,-9269.755526
902.601245,1628.453072,2220.617826,-10035.851024
902.601565,370.102971,2220.617826,-10265.679673
902.601885,1110.308913,74.020594,-10035.851024
902.602205,2664.741391,-592.164754,-9422.974625
902.602525,2590.720797,74.020594,-9959.241474
902.602845,2294.638420,-518.144159,-9806.022374
902.603165,814.226536,518.144159,-9959.241474
902.603485,-1850.514855,-962.267725,-9959.241474
902.603805,-2220.617826,0.000000,-10035.851024
902.604125,-3701.029710,-148.041188,-9882.631924
902.604445,-2442.679609,518.144159,-10418.898773
902.604765,-666.185348,370.102971,-10418.898773
902.605085,74.020594,148.041188,-10955.165621
902.605405,222.061783,-296.082377,-11568.042020
902.605725,-1184.329507,0.000000,-10342.289223
902.606045,-1850.514855,592.164754,-10725.336972
902.606365,-1776.494261,444.123565,-10418.898773
902.606685,-296.082377,1776.494261,-11108.384721
902.607005,-370.102971,1850.514855,-10955.165621
902.607325,-962.267725,740.205942,-10189.070123
902.607645,-1036.288319,444.123565,-10035.851024
902.607966,-222.061783,0.000000,-9959.241474
902.608286,-814.226536,740.205942,-10035.851024
902.608606,-1258.350101,1110.308913,-10112.460574
902.608926,-1406.391290,-444.123565,-9576.193725
902.609246,-2072.576638,-2072.576638,-9576.193725
902.609566,-1628.453072,-2886.803174,-9422.974625
902.609886,0.000000,-962.267725,-8733.488677
902.610206,-2368.659014,2664.741391,-9269.755526
902.610526,-444.123565,4145.153275,-9959.241474
902.610846,3627.009116,2738.761985,-9806.022374
902.611166,3182.885551,370.102971,-9499.584175
902.611486,3256.906145,-3034.844362,-9576.193725
902.611806,444.123565,-2664.741391,-8580.269578
902.612126,-1036.288319,-2516.700203,-9193.145976
902.612446,-1036.288319,-296.082377,-9116.536426
902.612766,740.205942,1332.370696,-9729.412825
902.613086,3923.091493,2590.720797,-10801.946522
902.613406,4737.318029,1110.308913,-10495.508323
902.613726,4737.318029,370.102971,-10801.946522
902.614046,1924.535449,740.205942,-10189.070123
902.614366,962.267725,888.247130,-10725.336972
902.614686,2072.576638,444.123565,-10801.946522
902.615006,2738.761985,1036.288319,-10495.508323
902.615326,1036.288319,1554.432478,-10495.508323
902.615646,592.164754,814.226536,-11108.384721
902.615966,1480.411884,1480.411884,-10725.336972
902.616286,3108.864956,1036.288319,-10878.556072
902.616607,4737.318029,962.267725,-10572.117872
902.616927,2146.597232,1258.350101,-11184.994271
902.617247,0.000000,1332.370696,-10801.946522
902.617567,-370.102971,2072.576638,-10418.898773
902.617887,518.144159,2738.761985,-10725.336972
902.618207,1998.556043,1332.370696,-10418.898773
902.618527,2590.720797,0.000000,-10112.460574
902.618847,962.267725,-666.185348,-10035.851024
902.619167,-222.061783,-1036.288319,-9576.193725
902.619487,-222.061783,-370.102971,-9806.022374
902.619807,-222.061783,0.000000,-8733.488677
902.620127,-888.247130,-1110.308913,-9116.536426
902.620447,-1258.350101,-1332.370696,-9499.584175
902.620767,-1258.350101,-1036.288319,-9806.022374
902.621087,-1332.370696,-296.082377,-9959.241474
902.621407,-222.061783,148.041188,-9806.022374
902.621727,1480.411884,814.226536,-9806.022374
902.622047,666.185348,2368.659014,-9959.241474
902.622367,0.000000,1110.308913,-10418.898773
902.622687,-1628.453072,-1036.288319,-9499.584175
902.623007,-1702.473667,-3404.947333,-9346.365076
902.623327,-962.267725,-4145.153275,-9576.193725
902.623647,740.205942,-3923.091493,-9269.755526
902.623967,0.000000,-1702.473667,-9806.022374
902.624287,-1850.514855,444.123565,-10418.898773
902.624607,-2368.659014,1554.432478,-10112.460574
902.624927,-592.164754,1480.411884,-10495.508323
902.625247,-888.247130,148.041188,-10112.460574
902.625568,-1480.411884,-592.164754,-10801.946522
902.625888,222.061783,-1850.514855,-10955.165621
902.626208,-2960.823768,-2368.659014,-10265.679673
902.626528,-2516.700203,-2220.617826,-9729.412825
902.626848,-1554.432478,1480.411884,-10955.165621
902.627168,1850.514855,2590.720797,-10725.336972
902.627488,2368.659014,4071.132681,-10801.946522
902.627808,-296.082377,2590.720797,-10878.556072
902.628128,-1702.473667,-1110.308913,-9806.022374
902.628448,-592.164754,-3108.864956,-9806.022374
902.628768,444.123565,-3404.947333,-9806.022374
902.629088,1480.411884,-1924.535449,-9959.241474
902.629408,1776.494261,666.185348,-10801.946522
902.629728,740.205942,1850.514855,-9576.193725
902.630048,1776.494261,2812.782580,-10801.946522
902.630368,1554.432478,1998.556043,-9959.241474
902.630688,2442.679609,222.061783,-9959.241474
902.631008,2664.741391,-1110.308913,-9729.412825
902.631328,2294.638420,-2664.741391,-8810.098227
902.631648,2072.576638,-1406.391290,-9346.365076
902.631968,1258.350101,-1628.453072,-10112.460574
902.632288,2664.741391,740.205942,-9729.412825
902.632608,888.247130,2368.659014,-11338.213370
902.632928,666.185348,4145.153275,-10265.679673
902.633248,2146.597232,3256.906145,-9806.022374
902.633568,2960.823768,1332.370696,-10801.946522
902.633888,3256.906145,-1110.308913,-9806.022374
902.634208,2442.679609,-1480.411884,-11644.651570
902.634529,1776.494261,-1332.370696,-10648.727422
902.634849,592.164754,0.000000,-9576.193725
902.635169,74.020594,3478.967927,-10725.336972
902.635489,2738.761985,4441.235652,-10725.336972
902.635809,2590.720797,4441.235652,-11184.994271
902.636129,740.205942,2738.761985,-11644.651570
902.636449,-296.082377,1036.288319,-9882.631924
902.636769,-148.041188,-888.247130,-10035.851024
902.637089,2442.679609,-1702.473667,-10495.508323
902.637409,3404.947333,-2368.659014,-9806.022374
902.637729,444.123565,0.000000,-10035.851024
902.638049,-1998.556043,1554.432478,-10342.289223
902.638369,-1628.453072,3330.926739,-9269.755526
902.638689,0.000000,3108.864956,-10495.508323
902.639009,2072.576638,1702.473667,-9806.022374
902.639329,1110.308913,-148.041188,-9652.803275
902.639649,-740.205942,-2294.638420,-9806.022374
902.639969,-1776.494261,-3034.844362,-8503.660028
902.640289,-2664.741391,-1776.494261,-9269.755526
902.640609,-2664.741391,148.041188,-9422.974625
902.640929,-296.082377,444.123565,-9729.412825
902.641249,-592.164754,1554.432478,-10035.851024
902.641569,-2664.741391,-296.082377,-9806.022374
902.641889,-2516.700203,666.185348,-9576.193725
902.642209,-814.226536,592.164754,-10342.289223
902.642529,1776.494261,148.041188,-10265.679673
902.642849,1332.370696,444.123565,-9959.241474
902.643170,-666.185348,-740.205942,-10189.070123
902.643490,148.041188,666.185348,-9959.241474
902.643810,-296.082377,1776.494261,-10878.556072
902.644130,148.041188,1554.432478,-10495.508323
902.644450,-666.185348,888.247130,-10035.851024
902.644770,-962.267725,-814.226536,-10648.727422
902.645090,-1036.288319,-2368.659014,-9882.631924
902.645410,-2220.617826,-1480.411884,-10189.070123
902.645730,-3108.864956,370.102971,-10112.460574
902.646050,-1332.370696,1480.411884,-9882.631924
902.646370,1850.514855,1628.453072,-10342.289223
902.646690,2220.617826,-518.144159,-10112.460574
902.647010,2664.741391,0.000000,-9193.145976
902.647330,1924.535449,-518.144159,-10265.679673
902.647650,4293.194464,888.247130,-10418.898773
902.647970,4589.276840,962.267725,-10189.070123
902.648290,2664.741391,370.102971,-10342.289223
902.648610,1184.329507,-370.102971,-9422.974625
902.648930,1702.473667,-444.123565,-9806.022374
902.649250,2368.659014,-592.164754,-10035.851024
902.649570,3256.906145,-962.267725,-9959.241474
902.649890,2146.597232,-888.247130,-9806.022374
902.650210,1850.514855,-740.205942,-10035.851024
902.650530,3182.885551,1554.432478,-9959.241474
902.650850,1924.535449,2146.597232,-10801.946522
902.651170,1628.453072,1998.556043,-10648.727422
902.651490,1332.370696,2294.638420,-9806.022374
902.651810,1036.288319,1480.411884,-10495.508323
902.652131,1258.350101,148.041188,-9652.803275
902.652451,1036.288319,-1480.411884,-9806.022374
902.652771,1036.288319,-3330.926739,-9806.022374
902.653091,2590.720797,-2516.700203,-9499.584175
902.653411,1110.308913,-1258.350101,-10648.727422
902.653731,1036.288319,1480.411884,-9806.022374
902.654051,0.000000,2368.659014,-9882.631924
902.654371,0.000000,1628.453072,-10725.336972
902.654691,1702.473667,0.000000,-9576.193725
902.655011,444.123565,-1036.288319,-10572.117872
902.655331,-222.061783,-2220.617826,-10725.336972
902.655651,-1036.288319,-1110.308913,-9422.974625
902.655971,740.205942,74.020594,-11338.213370
902.656291,592.164754,592.164754,-10189.070123
902.656611,-1702.473667,2072.576638,-10189.070123
902.656931,-4367.215058,2442.679609,-10955.165621
902.657251,-3923.091493,1998.556043,-9806.022374
902.657571,-1776.494261,444.123565,-10265.679673
902.657891,370.102971,-2442.679609,-10342.289223
902.658211,518.144159,-3404.947333,-9422.974625
902.658531,962.267725,-2368.659014,-10495.508323
902.658851,1184.329507,-222.061783,-10265.679673
902.659171,148.041188,3849.070898,-10035.851024
902.659491,-1258.350101,5403.503377,-10955.165621
902.659811,-666.185348,3849.070898,-9499.584175
902.660131,-1332.370696,1184.329507,-10342.289223
902.660451,-2294.638420,-3182.885551,-9806.022374
902.660771,-1776.494261,-3997.112087,-8810.098227
902.661092,-1258.350101,-2886.803174,-9806.022374
902.661412,-1998.556043,-962.267725,-9806.022374
902.661732,-1332.370696,814.226536,-9806.022374
902.662052,-1406.391290,2220.617826,-10189.070123
902.662372,-1036.288319,2664.741391,-9729.412825
902.662692,-296.082377,2664.741391,-9959.241474
902.663012,1406.391290,2220.617826,-10878.556072
902.663332,4367.215058,-296.082377,-9882.631924
902.663652,3701.029710,-2072.576638,-10572.117872
902.663972,2738.761985,-2516.700203,-9806.022374
902.664292,-444.123565,-1702.473667,-10189.070123
902.664612,-1850.514855,814.226536,-10265.679673
902.664932,888.247130,2960.823768,-10112.460574
902.665252,1924.535449,4737.318029,-10878.556072
902.665572,1258.350101,2738.761985,-10801.946522
902.665892,888.247130,444.123565,-9806.022374
902.666212,592.164754,-1628.453072,-10265.679673
902.666532,2368.659014,-2664.741391,-9882.631924
902.666852,2886.803174,-666.185348,-9652.803275
902.667172,3034.844362,444.123565,-10572.117872
902.667492,3627.009116,2368.659014,-9806.022374
902.667812,3701.029710,1998.556043,-10265.679673
902.668132,3404.947333,1776.494261,-10418.898773
902.668452,3478.967927,222.061783,-9576.193725
902.668772,2812.782580,222.061783,-10035.851024
902.669092,1184.329507,-222.061783,-9806.022374
902.669412,1332.370696,0.000000,-9576.193725
902.669733,592.164754,-296.082377,-9882.631924
902.670053,1776.494261,0.000000,-10265.679673
902.670373,2368.659014,-814.226536,-9499.584175
902.670693,1184.329507,518.144159,-10342.289223
902.671013,370.102971,1850.514855,-10035.851024
902.671333,-370.102971,2738.761985,-9806.022374
902.671653,1628.453072,2146.597232,-10801.946522
902.671973,3034.844362,814.226536,-9806.022374
902.672293,1850.514855,-666.185348,-10725.336972
902.672613,-666.185348,-2516.700203,-9576.193725
902.672933,-740.205942,-1924.535449,-9806.022374
902.673253,-592.164754,0.000000,-10265.679673
902.673573,-666.185348,1702.473667,-9882.631924
902.673893,-814.226536,1628.453072,-9729.412825
902.674213,-888.247130,518.144159,-10955.165621
902.674533,-1184.329507,-370.102971,-9499.584175
902.674853,-2812.782580,-1184.329507,-10189.070123
902.675173,-1332.370696,-1702.473667,-9652.803275
902.675493,1628.453072,-1554.432478,-9039.926876
902.675813,296.082377,444.123565,-10955.165621
902.676133,-1998.556043,1924.535449,-9959.241474
902.676453,-4145.153275,1554.432478,-10265.679673
902.676773,-2072.576638,518.144159,-10342.289223
902.677093,74.020594,-148.041188,-10418.898773
902.677413,-1110.308913,-444.123565,-10878.556072
902.677733,-3182.885551,-962.267725,-9959.241474
902.678053,-3404.947333,-444.123565,-9576.193725
902.678373,-1850.514855,0.000000,-10495.508323
902.678694,-962.267725,-814.226536,-9959.241474
902.679014,-592.164754,518.144159,-9806.022374
902.679334,-814.226536,1406.391290,-10418.898773
902.679654,370.102971,1110.308913,-10342.289223
902.679974,1036.288319,1554.432478,-10418.898773
902.680294,518.144159,1110.308913,-10648.727422
902.680614,962.267725,0.000000,-9346.365076
902.680934,1776.494261,-148.041188,-10418.898773
902.681253,1258.350101,-1850.514855,-9959.241474
902.681573,148.041188,-2072.576638,-10035.851024
902.681893,518.144159,-666.185348,-10189.070123
902.682213,1924.535449,1258.350101,-9806.022374
902.682533,2294.638420,2220.617826,-10648.727422
902.682853,1776.494261,1776.494261,-10265.679673
902.683173,888.247130,296.082377,-10035.851024
902.683492,1554.432478,-1702.473667,-9652.803275
902.683812,3627.009116,-888.247130,-9576.193725
902.684132,3849.070898,222.061783,-9959.241474
902.684452,4145.153275,1258.350101,-10265.679673
902.684772,2812.782580,1776.494261,-10112.460574
902.685092,1998.556043,1554.432478,-10112.460574
902.685412,2516.700203,-148.041188,-9269.755526
902.685731,2886.803174,-888.247130,-9729.412825
902.686051,2146.597232,-666.185348,-9422.974625
902.686371,1406.391290,962.267725,-10189.070123
902.686691,74.020594,888.247130,-9882.631924
902.687011,0.000000,740.205942,-9729.412825
902.687331,2960.823768,0.000000,-10112.460574
902.687651,1998.556043,518.144159,-9806.022374
902.687971,2220.617826,1406.391290,-10878.556072
902.688290,2738.761985,1110.308913,-9882.631924
902.688610,1406.391290,2146.597232,-11108.384721
902.688930,1924.535449,1850.514855,-10955.165621
902.689250,814.226536,1110.308913,-10265.679673
902.689570,-1184.329507,370.102971,-10725.336972
902.689890,-740.205942,592.164754,-11568.042020
902.690210,-1184.329507,592.164754,-10418.898773
902.690529,-1332.370696,0.000000,-11414.822920
902.690849,370.102971,1110.308913,-10801.946522
902.691169,-888.247130,1924.535449,-9269.755526
902.691489,-1258.350101,1702.473667,-11184.994271
902.691809,-1036.288319,888.247130,-10725.336972
902.692129,-1406.391290,370.102971,-10955.165621
902.692449,666.185348,74.020594,-10801.946522
902.692768,1480.411884,888.247130,-10189.070123
902.693088,-296.082377,1628.453072,-10801.946522
902.693408,0.000000,1998.556043,-10112.460574
902.693728,-1628.453072,1702.473667,-9269.755526
902.694048,-814.226536,0.000000,-9039.926876
902.694368,-370.102971,-2072.576638,-8656.879127
902.694688,-1924.535449,-2886.803174,-8886.707777
902.695007,-2368.659014,-1850.514855,-9346.365076
902.695327,-1776.494261,1110.308913,-8733.488677
902.695647,-1036.288319,2738.761985,-9806.022374
902.695967,-296.082377,2368.659014,-9806.022374
902.696287,-1628.453072,518.144159,-9039.926876
902.696607,-2072.576638,-1998.556043,-9269.755526
902.696927,-1036.288319,-1850.514855,-8350.440928
902.697246,-814.226536,-740.205942,-9576.193725
902.697566,962.267725,296.082377,-9882.631924
902.697886,2220.617826,1184.329507,-10112.460574
902.698206,3182.885551,370.102971,-10342.289223
902.698526,2812.782580,-592.164754,-9806.022374
902.698846,444.123565,-518.144159,-10035.851024
902.699166,296.082377,814.226536,-10648.727422
902.699485,370.102971,2220.617826,-10189.070123
902.699805,1258.350101,2368.659014,-11031.775171
902.700125,1036.288319,296.082377,-11338.213370
902.700445,592.164754,-1628.453072,-10725.336972
902.700765,518.144159,-2294.638420,-10878.556072
902.701085,1406.391290,0.000000,-10418.898773
902.701405,2442.679609,2590.720797,-10418.898773
902.701724,814.226536,4293.194464,-11797.870669
902.702044,1554.432478,3108.864956,-10801.946522
902.702364,2812.782580,1258.350101,-10801.946522
902.702684,3849.070898,-1258.350101,-10955.165621
902.703004,3182.885551,-2442.679609,-10035.851024
902.703324,1776.494261,-1036.288319,-10112.460574
902.703644,1554.432478,740.205942,-10112.460574
902.703963,2442.679609,2294.638420,-9576.193725
902.704283,3701.029710,2220.617826,-10648.727422
902.704603,2960.823768,814.226536,-9806.022374
902.704923,1332.370696,-814.226536,-8810.098227
902.705243,740.205942,-1924.535449,-9729.412825
902.705563,2368.659014,-1628.453072,-10112.460574
902.705883,1628.453072,-296.082377,-9499.584175
902.706203,148.041188,740.205942,-9576.193725
902.706522,-1036.288319,592.164754,-9116.536426
902.706842,0.000000,222.061783,-9959.241474
902.707162,592.164754,-2146.597232,-10418.898773
902.707482,-518.144159,-2516.700203,-9193.145976
902.707802,-2368.659014,-2442.679609,-9499.584175
902.708122,-1924.535449,-1332.370696,-9499.584175
902.708442,-592.164754,222.061783,-10648.727422
902.708761,-518.144159,1184.329507,-10878.556072
902.709081,-592.164754,2146.597232,-10418.898773
902.709401,0.000000,1480.411884,-11108.384721
902.709721,1776.494261,296.082377,-10648.727422
902.710041,666.185348,0.000000,-10725.336972
902.710361,-1184.329507,0.000000,-11491.432470
902.710681,-3182.885551,370.102971,-10648.727422
902.711000,-3849.070898,1110.308913,-10955.165621
902.711320,-2590.720797,592.164754,-11108.384721
902.711640,-1702.473667,74.020594,-10418.898773
902.711960,-2368.659014,-222.061783,-10418.898773
902.712280,-2516.700203,148.041188,-10265.679673
902.712600,-1776.494261,518.144159,-9499.584175
902.712920,-962.267725,1258.350101,-10342.289223
902.713239,740.205942,814.226536,-10189.070123
902.713559,1702.473667,296.082377,-10189.070123
902.713879,370.102971,-592.164754,-9959.241474
902.714199,-592.164754,-888.247130,-9116.536426
902.714519,-222.061783,74.020594,-9269.755526
902.714839,1850.514855,74.020594,-9959.241474
902.715159,1702.473667,0.000000,-8656.879127
902.715478,-222.061783,-222.061783,-10418.898773
902.715798,296.082377,-1110.308913,-9116.536426
902.716118,1184.329507,-814.226536,-9039.926876
902.716438,2442.679609,-222.061783,-9882.631924
902.716758,2812.782580,444.123565,-8810.098227
902.717078,2220.617826,518.144159,-9346.365076
902.717398,1036.288319,962.267725,-10189.070123
902.717717,814.226536,1406.391290,-9729.412825
902.718037,962.267725,1258.350101,-10265.679673
902.718357,3701.029710,148.041188,-10265.679673
902.718677,6439.791695,592.164754,-9422.974625
902.718997,2368.659014,-1554.432478,-11184.994271
902.719317,1406.391290,-1258.350101,-8810.098227
902.719637,222.061783,814.226536,-10572.117872
902.719956,3108.864956,1850.514855,-10725.336972
902.720276,3997.112087,3775.050304,-10725.336972
902.720596,2368.659014,4219.173869,-11797.870669
902.720916,814.226536,2368.659014,-10725.336972
902.721236,2590.720797,1554.432478,-11031.775171
902.721556,2294.638420,444.123565,-11108.384721
902.721876,962.267725,-592.164754,-10265.679673
902.722195,-1258.350101,0.000000,-10418.898773
902.722515,-222.061783,814.226536,-10265.679673
902.722835,518.144159,1776.494261,-9959.241474
902.723155,1924.535449,2220.617826,-10725.336972
902.723475,1998.556043,2146.597232,-10648.727422
902.723795,740.205942,1184.329507,-10035.851024
902.724115,0.000000,370.102971,-10342.289223
902.724435,444.123565,-518.144159,-9959.241474
902.724754,888.247130,74.020594,-9499.584175
902.725074,296.082377,518.144159,-10265.679673
902.725394,444.123565,1258.350101,-10035.851024
902.725714,-1110.308913,962.267725,-9729.412825
902.726034,-370.102971,370.102971,-10112.460574
902.726354,888.247130,-222.061783,-9806.022374
902.726674,148.041188,-888.247130,-9959.241474
902.726993,-888.247130,-1332.370696,-9806.022374
902.727313,-2886.803174,-666.185348,-9576.193725
902.727633,-2590.720797,1184.329507,-9959.241474
902.727953,-1406.391290,1776.494261,-9959.241474
902.728273,-370.102971,2812.782580,-9652.803275
902.728593,-518.144159,0.000000,-10342.289223
902.728913,-592.164754,-1332.370696,-9346.365076
902.729232,-1628.453072,-814.226536,-9882.631924
902.729552,-1258.350101,444.123565,-10418.898773
902.729872,-1110.308913,1480.411884,-10572.117872
902.730192,-1776.494261,962.267725,-11414.822920
902.730512,-1998.556043,-592.164754,-9499.584175
902.730832,-1924.535449,1406.391290,-10418.898773
902.731152,-1332.370696,3330.926739,-10725.336972
902.731471,1406.391290,3034.844362,-10648.727422
902.731791,2220.617826,1480.411884,-10955.165621
902.732111,2146.597232,-2220.617826,-10265.679673
902.732431,1480.411884,-4145.153275,-9576.193725
902.732751,-1184.329507,-3330.926739,-10265.679673
902.733071,-2812.782580,-740.205942,-9806.022374
902.733391,-1850.514855,2812.782580,-10035.851024
902.733710,74.020594,3923.091493,-10955.165621
902.734030,2072.576638,2442.679609,-10418.898773
902.734350,2368.659014,-1036.288319,-9882.631924
902.734670,1184.329507,-4145.153275,-9806.022374
902.734990,2146.597232,-4441.235652,-9269.755526
902.735310,3478.967927,-2442.679609,-10265.679673
902.735630,4145.153275,-1628.453072,-9806.022374
902.735949,3775.050304,666.185348,-9882.631924
902.736269,888.247130,1406.391290,-10572.117872
902.736589,1110.308913,2146.597232,-9499.584175
902.736909,1406.391290,2220.617826,-10418.898773
902.737229,2590.720797,148.041188,-10112.460574
902.737549,2294.638420,-2590.720797,-9193.145976
902.737869,1406.391290,-4293.194464,-9959.241474
902.738188,1998.556043,-3923.091493,-9652.803275
902.738508,740.205942,-1998.556043,-9269.755526
902.738828,888.247130,962.267725,-10801.946522
902.739148,1850.514855,2812.782580,-10035.851024
902.739468,1776.494261,4071.132681,-10112.460574
902.739788,74.020594,2886.803174,-10878.556072
902.740108,1628.453072,148.041188,-9652.803275
902.740427,1998.556043,-1998.556043,-10189.070123
902.740747,1332.370696,-3256.906145,-10189.070123
902.741067,1702.473667,-3034.844362,-9959.241474
902.741387,0.000000,-962.267725,-10572.117872
902.741707,-666.185348,1110.308913,-9882.631924
902.742027,-888.247130,2812.782580,-10265.679673
902.742347,-1036.288319,3108.864956,-11414.822920
902.742667,0.000000,1036.288319,-10112.460574
902.742986,-370.102971,518.144159,-10495.508323
902.743306,-148.041188,-1776.494261,-10495.508323
902.743626,-296.082377,-2294.638420,-9652.803275
902.743946,-740.205942,-1628.453072,-10495.508323
902.744266,814.226536,74.020594,-10189.070123
902.744586,-740.205942,1998.556043,-10189.070123
902.744906,-2738.761985,2664.741391,-10955.165621
902.745225,-3034.844362,1998.556043,-9346.365076
902.745545,-1554.432478,1110.308913,-9806.022374
902.745865,370.102971,-1628.453072,-10572.117872
902.746185,2738.761985,-2072.576638,-9269.755526
902.746505,1184.329507,-1702.473667,-10189.070123
902.746825,-1850.514855,444.123565,-8733.488677
902.747145,-3552.988522,2294.638420,-9116.536426
902.747464,-2220.617826,3552.988522,-10189.070123
902.747784,1998.556043,2590.720797,-9806.022374
902.748104,1480.411884,518.144159,-9729.412825
902.748424,222.061783,-888.247130,-9959.241474
902.748744,-1110.308913,-1628.453072,-8656.879127
902.749064,-666.185348,-518.144159,-9729.412825
902.749384,740.205942,1258.350101,-9959.241474
902.749703,888.247130,2146.597232,-9959.241474
902.750023,1258.350101,1776.494261,-10572.117872
902.750343,1258.350101,1184.329507,-9806.022374
902.750663,740.205942,444.123565,-9959.241474
902.750983,2072.576638,666.185348,-9422.974625
902.751303,3997.112087,814.226536,-9499.584175
902.751623,2590.720797,2516.700203,-10801.946522
902.751942,1776.494261,2220.617826,-10725.336972
902.752262,740.205942,1258.350101,-10035.851024
902.752582,1332.370696,666.185348,-10801.946522
902.752902,1702.473667,592.164754,-10112.460574
902.753222,666.185348,1184.329507,-10418.898773
902.753542,0.000000,1036.288319,-11031.775171
902.753862,222.061783,1110.308913,-9806.022374
902.754181,962.267725,1480.411884,-10725.336972
902.754501,2812.782580,296.082377,-10418.898773
902.754821,3034.844362,-592.164754,-9652.803275
902.755141,1924.535449,0.000000,-10418.898773
902.755461,814.226536,-740.205942,-9806.022374
902.755781,518.144159,370.102971,-9116.536426
902.756101,1184.329507,1406.391290,-10648.727422
902.756420,1110.308913,2072.576638,-9499.584175
902.756740,0.000000,2072.576638,-10112.460574
902.757060,-370.102971,148.041188,-9959.241474
902.757380,1554.432478,-1776.494261,-9116.536426
902.757700,2664.741391,-1924.535449,-10342.289223
902.758020,1702.473667,-1332.370696,-9652.803275
902.758340,-222.061783,-518.144159,-9269.755526
902.758659,-1554.432478,0.000000,-10725.336972
902.758979,0.000000,888.247130,-9499.584175
902.759299,-592.164754,1258.350101,-9882.631924
902.759619,666.185348,592.164754,-11721.261119
902.759939,1924.535449,74.020594,-10189.070123
902.760259,1480.411884,-1110.308913,-10801.946522
902.760579,666.185348,-1480.411884,-10112.460574
902.760899,-740.205942,-2072.576638,-9269.755526
902.761218,-1924.535449,-1258.350101,-11184.994271
902.761538,-1406.391290,0.000000,-10418.898773
902.761858,-2220.617826,1628.453072,-9959.241474
902.762178,-1332.370696,1850.514855,-11338.213370
902.762498,1036.288319,1924.535449,-10035.851024
902.762818,740.205942,74.020594,-10725.336972
902.763138,1258.350101,-2220.617826,-10725.336972
902.763457,666.185348,-2294.638420,-9729.412825
902.763777,-888.247130,-370.102971,-11951.089769
902.764097,-148.041188,592.164754,-10035.851024
902.764417,-1332.370696,888.247130,-10035.851024
902.764737,-1184.329507,-370.102971,-10572.117872
902.765057,-1628.453072,-518.144159,-9193.145976
902.765377,-1850.514855,-296.082377,-10572.117872
902.765696,-1332.370696,-666.185348,-10189.070123
902.766016,74.020594,-518.144159,-9652.803275
902.766336,148.041188,518.144159,-10035.851024
902.766656,1480.411884,962.267725,-9729.412825
902.766976,296.082377,1332.370696,-10342.289223
902.767296,-1110.308913,1702.473667,-10189.070123
902.767616,-518.144159,1554.432478,-9806.022374
902.767935,0.000000,518.144159,-10035.851024
902.768255,444.123565,-592.164754,-9806.022374
902.768575,2146.597232,-2220.617826,-9499.584175
902.768895,2220.617826,-2220.617826,-9806.022374
902.769215,1924.535449,-592.164754,-10035.851024
902.769535,1406.391290,370.102971,-9116.536426
902.769855,1702.473667,1184.329507,-10495.508323
902.770174,1702.473667,296.082377,-10265.679673
902.770494,2072.576638,666.185348,-9652.803275
902.770814,1554.432478,222.061783,-11261.603821
902.771134,2146.597232,0.000000,-9499.584175
902.771454,1554.432478,888.247130,-10878.556072
902.771774,2368.659014,222.061783,-10572.117872
902.772094,2590.720797,666.185348,-10112.460574
902.772413,1332.370696,1702.473667,-10035.851024
902.772733,1258.350101,1184.329507,-10189.070123
902.773053,1406.391290,1702.473667,-10035.851024
902.773373,2516.700203,1406.391290,-11031.775171
902.773693,3701.029710,592.164754,-9729.412825
902.774013,2516.700203,1480.411884,-9729.412825
902.774333,1628.453072,814.226536,-10035.851024
902.774652,666.185348,1258.350101,-9346.365076
902.774972,1480.411884,2516.700203,-10418.898773
902.775292,2812.782580,1258.350101,-10265.679673
902.775612,1554.432478,592.164754,-9422.974625
902.775932,-962.267725,-222.061783,-10189.070123
902.776252,-1776.494261,0.000000,-9116.536426
902.776572,518.144159,888.247130,-9039.926876
902.776891,740.205942,1258.350101,-11184.994271
902.777211,1406.391290,1036.288319,-9422.974625
902.777531,296.082377,-444.123565,-9806.022374
902.777851,444.123565,-962.267725,-9882.631924
902.778171,0.000000,-74.020594,-8580.269578
902.778491,-2294.638420,370.102971,-10878.556072
902.778811,-2368.659014,296.082377,-9499.584175
902.779131,-2294.638420,518.144159,-9652.803275
902.779450,-1036.288319,-444.123565,-10035.851024
902.779770,-296.082377,-666.185348,-9116.536426
902.780090,-1258.350101,74.020594,-10725.336972
902.780410,-962.267725,666.185348,-10801.946522
902.780730,-148.041188,148.041188,-9806.022374
902.781050,-814.226536,888.247130,-11184.994271
902.781370,-3256.906145,-296.082377,-9729.412825
902.781690,-3256.906145,518.144159,-9499.584175
902.782010,-2220.617826,592.164754,-10801.946522
902.782330,962.267725,2220.617826,-10572.117872
902.782650,-296.082377,2368.659014,-11261.603821
902.782970,-888.247130,148.041188,-10112.460574
902.783290,1036.288319,-962.267725,-9729.412825
902.783610,1776.494261,-444.123565,-10495.508323
902.783930,1406.391290,-740.205942,-10342.289223
902.784250,814.226536,1184.329507,-9729.412825
902.784570,740.205942,1628.453072,-10725.336972
902.784890,1036.288319,1628.453072,-9729.412825
902.785210,444.123565,444.123565,-10189.070123
902.785530,814.226536,-1776.494261,-10725.336972
902.785850,1258.350101,-2664.741391,-8656.879127
902.786170,1850.514855,-592.164754,-10342.289223
902.786490,1776.494261,1036.288319,-10265.679673
902.786810,2294.638420,1554.432478,-9269.755526
902.787130,1998.556043,888.247130,-10878.556072
902.787450,1998.556043,-666.185348,-9346.365076
902.787770,962.267725,-1628.453072,-9422.974625
902.788090,2146.597232,-2960.823768,-9959.241474
902.788410,2960.823768,-2442.679609,-8656.879127
902.788730,4219.173869,-444.123565,-10418.898773
902.789050,3923.091493,0.000000,-10035.851024
902.789370,2516.700203,222.061783,-9806.022374
902.789690,-1184.329507,296.082377,-10572.117872
902.790010,-1184.329507,370.102971,-9576.193725
902.790330,1332.370696,0.000000,-10342.289223
902.790650,2072.576638,-148.041188,-11338.213370
902.790970,2960.823768,-1480.411884,-9652.803275
902.791290,518.144159,814.226536,-10955.165621
902.791610,1406.391290,2368.659014,-10801.946522
902.791930,1480.411884,2812.782580,-10189.070123
902.792250,1184.329507,3182.885551,-11338.213370
902.792570,740.205942,1332.370696,-9882.631924
902.792890,0.000000,0.000000,-10418.898773
902.793210,-222.061783,-1258.350101,-10495.508323
902.793530,74.020594,-888.247130,-9806.022374
902.793850,888.247130,1480.411884,-10495.508323
902.794170,1924.535449,1628.453072,-10342.289223
902.794490,1480.411884,1406.391290,-9729.412825
902.794810,-222.061783,1332.370696,-10725.336972
902.795130,-1332.370696,-148.041188,-9729.412825
902.795450,-1406.391290,-1036.288319,-9116.536426
902.795770,-370.102971,-1036.288319,-10035.851024
902.796090,0.000000,-666.185348,-9193.145976
902.796410,1332.370696,-222.061783,-10342.289223
902.796730,-370.102971,-518.144159,-9882.631924
902.797050,-1776.494261,-370.102971,-9729.412825
902.797370,-2590.720797,518.144159,-9959.241474
902.797690,-1702.473667,666.185348,-9576.193725
902.798010,-1258.350101,444.123565,-9576.193725
902.798330,-1332.370696,-592.164754,-10801.946522
902.798650,-1628.453072,-888.247130,-8810.098227
902.798970,-1554.432478,-592.164754,-9729.412825
902.799290,814.226536,0.000000,-10189.070123
902.799610,4663.297435,2072.576638,-10189.070123
902.799930,-296.082377,4737.318029,-12717.185267
902.800250,-1332.370696,3775.050304,-9806.022374
902.800570,-3552.988522,3108.864956,-9959.241474
902.800890,-1036.288319,2442.679609,-10955.165621
902.801210,222.061783,-296.082377,-9652.803275
902.801530,148.041188,1036.288319,-10572.117872
902.801850,1628.453072,518.144159,-10495.508323
902.802170,1258.350101,-962.267725,-9269.755526
902.802490,1480.411884,-148.041188,-9729.412825
902.802810,1776.494261,1184.329507,-10112.460574
902.803130,1776.494261,2516.700203,-10418.898773
902.803450,1406.391290,3108.864956,-10955.165621
902.803770,296.082377,1776.494261,-9882.631924
902.804090,-1406.391290,0.000000,-9422.974625
902.804410,296.082377,-1850.514855,-10035.851024
902.804730,3034.844362,-3256.906145,-9806.022374
902.805050,2960.823768,-2368.659014,-9959.241474
902.805370,1036.288319,592.164754,-10112.460574
902.805690,0.000000,1258.350101,-9499.584175
902.806010,888.247130,1406.391290,-10342.289223
902.806330,0.000000,1184.329507,-9882.631924
902.806650,-740.205942,-2220.617826,-9039.926876
902.806970,-296.082377,-2146.597232,-9806.022374
902.807290,1554.432478,-1258.350101,-9193.145976
902.807610,3108.864956,-592.164754,-9806.022374
902.807930,6069.688724,518.144159,-10265.679673
902.808250,6143.709319,666.185348,-9499.584175
902.808570,3701.029710,1036.288319,-10112.460574
902.808890,1628.453072,1258.350101,-9882.631924
902.809210,814.226536,1998.556043,-9959.241474
902.809530,1184.329507,592.164754,-10955.165621
902.809850,666.185348,-1702.473667,-9116.536426
902.810170,296.082377,-2368.659014,-10035.851024
902.810490,370.102971,-666.185348,-10725.336972
902.810810,74.020594,-518.144159,-9729.412825
902.811130,74.020594,962.267725,-10495.508323
902.811450,1258.350101,3256.906145,-11184.994271
902.811770,518.144159,2886.803174,-10342.289223
902.812090,-2146.597232,1776.494261,-11184.994271
902.812410,-1332.370696,-222.061783,-9882.631924
902.812730,-1480.411884,-2220.617826,-9959.241474
902.813050,444.123565,-2738.761985,-10189.070123
902.813370,1998.556043,-2812.782580,-10265.679673
902.813690,1702.473667,-666.185348,-9039.926876
902.814010,-296.082377,-666.185348,-10572.117872
902.814330,-2886.803174,1184.329507,-9806.022374
902.814650,-2738.761985,1998.556043,-10878.556072
902.814970,-962.267725,1702.473667,-10189.070123
902.815290,148.041188,740.205942,-9729.412825
902.815610,-1628.453072,-1110.308913,-10572.117872
902.815930,-1480.411884,-2738.761985,-9729.412825
902.816250,-444.123565,-2220.617826,-9806.022374
902.816570,518.144159,-444.123565,-10342.289223
902.816890,-1406.391290,1406.391290,-9346.365076
902.817210,-4811.338623,2664.741391,-10572.117872
902.817530,-3330.926739,1776.494261,-9652.803275
902.817850,-3034.844362,444.123565,-9269.755526
902.818170,-592.164754,-592.164754,-9882.631924
902.818490,2146.597232,-1924.535449,-9806.022374
902.818810,1554.432478,-740.205942,-9959.241474
902.819130,1332.370696,0.000000,-10495.508323
902.819450,740.205942,1258.350101,-8580.269578
902.819770,1850.514855,2886.803174,-10342.289223
902.820090,2664.741391,2516.700203,-10572.117872
902.820410,1554.432478,1850.514855,-9729.412825
902.820730,0.000000,1406.391290,-10878.556072
902.821050,148.041188,0.000000,-9422.974625
902.821370,1998.556043,0.000000,-10265.679673
902.821690,3478.967927,148.041188,-10725.336972
902.822010,4071.132681,296.082377,-9959.241474
902.822330,1480.411884,666.185348,-10265.679673
902.822650,962.267725,1110.308913,-10112.460574
902.822970,2368.659014,2368.659014,-9346.365076
902.823290,1702.473667,4071.132681,-11568.042020
902.823610,1850.514855,1924.535449,-9422.974625
902.823930,2886.803174,74.020594,-9806.022374
902.824250,2516.700203,-666.185348,-10265.679673
902.824570,2664.741391,-1036.288319,-9806.022374
902.824890,2664.741391,0.000000,-10189.070123
902.825210,4367.215058,1184.329507,-10342.289223
902.825530,3478.967927,1776.494261,-9346.365076
902.825850,444.123565,2812.782580,-10801.946522
902.826170,-2146.597232,2368.659014,-9576.193725
902.826490,-1776.494261,1850.514855,-10572.117872
902.826810,1332.370696,1702.473667,-10418.898773
902.827130,3849.070898,-296.082377,-9652.803275
902.827450,3849.070898,-1554.432478,-9729.412825
902.827770,962.267725,-2294.638420,-9576.193725
902.828090,-962.267725,-1036.288319,-9269.755526
902.828410,-2294.638420,1406.391290,-9959.241474
902.828730,-444.123565,2442.679609,-9576.193725
902.829050,-666.185348,2812.782580,-9729.412825
902.829370,-888.247130,1036.288319,-10265.679673
902.829690,-1480.411884,-1258.350101,-9499.584175
902.830010,-1110.308913,-2442.679609,-10265.679673
902.830330,-518.144159,-2516.700203,-10572.117872
902.830650,888.247130,-1406.391290,-10265.679673
902.830970,-1480.411884,0.000000,-10955.165621
902.831290,-2960.823768,518.144159,-10648.727422
902.831610,-3701.029710,2072.576638,-10342.289223
902.831930,-3627.009116,3478.967927,-11414.822920
902.832250,-296.082377,1332.370696,-10878.556072
902.832570,1702.473667,-1036.288319,-10801.946522
902.832890,1628.453072,-2516.700203,-11568.042020
902.833210,518.144159,-2812.782580,-9652.803275
902.833530,-1258.350101,-148.041188,-10495.508323
902.833850,-814.226536,2442.679609,-10648.727422
902.834170,-592.164754,4367.215058,-10342.289223
902.834490,-1850.514855,3775.050304,-11797.870669
902.834810,-1554.432478,518.144159,-9959.241474
902.835130,-2146.597232,-2072.576638,-8350.440928
902.835450,-1406.391290,-2812.782580,-9806.022374
902.835770,1184.329507,-2516.700203,-9039.926876
902.836090,2812.782580,-666.185348,-9806.022374
902.836410,2960.823768,962.267725,-10648.727422
902.836730,592.164754,666.185348,-8886.707777
902.837050,-962.267725,1110.308913,-9039.926876
902.837370,-1110.308913,222.061783,-8886.707777
902.837690,1406.391290,-1332.370696,-8886.707777
902.838010,3330.926739,-592.164754,-10725.336972
902.838330,3627.009116,-1776.494261,-8656.879127
902.838650,2886.803174,-1184.329507,-9269.755526
902.838970,2960.823768,-740.205942,-10189.070123
902.839290,3182.885551,814.226536,-9729.412825
902.839610,1776.494261,1406.391290,-10418.898773
902.839930,1110.308913,962.267725,-9882.631924
902.840250,592.164754,222.061783,-9422.974625
902.840570,1110.308913,-1184.329507,-10955.165621
902.840890,3034.844362,-1554.432478,-10112.460574
902.841210,3775.050304,-666.185348,-10418.898773
902.841530,3775.050304,1184.329507,-11261.603821
902.841850,2442.679609,1998.556043,-10725.336972
902.842170,370.102971,1850.514855,-11338.213370
902.842490,-296.082377,962.267725,-10648.727422
902.842810,148.041188,-444.123565,-9576.193725
902.843130,-740.205942,-518.144159,-11184.994271
902.843450,370.102971,-518.144159,-10342.289223
902.843770,1036.288319,296.082377,-9959.241474
902.844090,2368.659014,1850.514855,-11261.603821
902.844410,2442.679609,1480.411884,-9729.412825
902.844730,0.000000,2812.782580,-10725.336972
902.845050,-1850.514855,1924.535449,-10189.070123
902.845370,-1480.411884,962.267725,-9576.193725
902.845690,-1258.350101,592.164754,-10342.289223
902.846010,1184.329507,-2294.638420,-9652.803275
902.846330,1036.288319,-2220.617826,-8886.707777
902.846650,-148.041188,-1110.308913,-9882.631924
902.846970,296.082377,1924.535449,-9806.022374
902.847290,-370.102971,4663.297435,-9959.241474
902.847610,0.000000,2812.782580,-10112.460574
902.847930,518.144159,814.226536,-9039.926876
902.848250,-814.226536,-1998.556043,-9806.022374
902.848570,-2146.597232,-4145.153275,-9346.365076
902.848890,-1702.473667,-3627.009116,-8810.098227
902.849210,-740.205942,-1480.411884,-10342.289223
902.849530,962.267725,296.082377,-10112.460574
902.849850,888.247130,2738.761985,-10265.679673
902.850170,-2368.659014,2368.659014,-11108.384721
902.850490,-3997.112087,1924.535449,-9346.365076
902.850810,-3849.070898,1554.432478,-10495.508323
902.851130,444.123565,-592.164754,-10495.508323
902.851450,2294.638420,-1628.453072,-9346.365076
902.851770,1258.350101,-1628.453072,-11184.994271
902.852090,1406.391290,0.000000,-10189.070123
902.852410,0.000000,2812.782580,-10495.508323
902.852730,740.205942,4589.276840,-11721.261119
902.853050,1924.535449,3923.091493,-10418.898773
902.853370,814.226536,2960.823768,-10648.727422
902.853690,-444.123565,0.000000,-10265.679673
902.854010,-1258.350101,-1628.453072,-9116.536426
902.854330,-444.123565,-666.185348,-10495.508323
902.854650,3256.906145,-1184.329507,-9729.412825
902.854970,5255.462188,1554.432478,-10189.070123
902.855290,3923.091493,2072.576638,-10648.727422
902.855610,2294.638420,2516.700203,-9729.412825
902.855930,-1184.329507,2294.638420,-9652.803275
902.856250,296.082377,296.082377,-10265.679673
902.856570,2960.823768,-1110.308913,-8810.098227
902.856890,2220.617826,-2516.700203,-10342.289223
902.857210,1776.494261,-3330.926739,-9039.926876
902.857530,1776.494261,-1110.308913,-8886.707777
902.857850,1110.308913,1406.391290,-10878.556072
902.858170,3182.885551,1332.370696,-9576.193725
902.858490,1628.453072,2294.638420,-9959.241474
902.858810,0.000000,518.144159,-10495.508323
902.859130,148.041188,-1628.453072,-9039.926876
902.859450,-222.061783,-962.267725,-10112.460574
902.859770,370.102971,-1702.473667,-10265.679673
902.860090,2146.597232,-814.226536,-9499.584175
902.860410,1554.432478,888.247130,-11491.432470
902.860730,1998.556043,1110.308913,-10035.851024
902.861050,1702.473667,814.226536,-10725.336972
902.861370,888.247130,1924.535449,-11414.822920
902.861690,296.082377,1554.432478,-10418.898773
902.862010,-888.247130,1480.411884,-10955.165621
902.862330,-1406.391290,74.020594,-11031.775171
902.862650,-1332.370696,-1258.350101,-9882.631924
902.862970,-1184.329507,-1702.473667,-10418.898773
902.863290,-444.123565,-814.226536,-9806.022374
902.863610,814.226536,1332.370696,-10035.851024
902.863930,148.041188,1554.432478,-11261.603821
902.864250,-888.247130,888.247130,-9346.365076
902.864570,-1554.432478,74.020594,-9959.241474
902.864890,-1258.350101,-888.247130,-10725.336972
902.865210,-814.226536,-2664.741391,-9346.365076
902.865530,-592.164754,-2442.679609,-10495.508323
902.865850,0.000000,-740.205942,-10265.679673
902.866170,-666.185348,-518.144159,-9576.193725
902.866490,-814.226536,1702.473667,-11874.480219
902.866810,-1480.411884,1110.308913,-9806.022374
902.867130,-1850.514855,2368.659014,-10725.336972
902.867450,-1258.350101,888.247130,-11031.775171
902.867770,-1850.514855,-1406.391290,-9193.145976
902.868090,-1184.329507,-1332.370696,-10265.679673
902.868410,1924.535449,-1998.556043,-10035.851024
902.868730,1998.556043,-1184.329507,-9652.803275
902.869050,740.205942,222.061783,-11031.775171
902.869370,-962.267725,1258.350101,-9652.803275
902.869690,-1332.370696,2072.576638,-9959.241474
902.870010,2368.659014,148.041188,-10112.460574
902.870330,3627.009116,-740.205942,-9269.755526
902.870650,370.102971,-592.164754,-9652.803275
902.870970,0.000000,-666.185348,-9729.412825
902.871290,518.144159,1110.308913,-9346.365076
902.871610,1406.391290,1332.370696,-10342.289223
902.871930,2442.679609,1036.288319,-9422.974625
902.872250,2294.638420,370.102971,-9499.584175
902.872570,2886.803174,444.123565,-10112.460574
902.872890,2738.761985,222.061783,-9346.365076
902.873210,0.000000,296.082377,-10265.679673
902.873530,74.020594,1554.432478,-9346.365076
902.873850,1850.514855,2220.617826,-9346.365076
902.874170,4145.153275,1924.535449,-10342.289223
902.874490,6217.729913,888.247130,-10189.070123
902.874810,4959.379811,296.082377,-9959.241474
902.875130,4071.132681,-148.041188,-10955.165621
902.875450,2072.576638,148.041188,-9499.584175
902.875770,296.082377,2368.659014,-11184.994271
902.876090,-740.205942,2812.782580,-10878.556072
902.876410,-962.267725,2072.576638,-10035.851024
902.876730,962.267725,1332.370696,-11184.994271
902.877050,2072.576638,-148.041188,-10495.508323
902.877370,370.102971,0.000000,-9882.631924
902.877690,0.000000,518.144159,-10955.165621
902.878010,1406.391290,2072.576638,-9959.241474
902.878330,592.164754,2442.679609,-10572.117872
902.878650,296.082377,1406.391290,-10878.556072
902.878970,962.267725,740.205942,-9729.412825
902.879290,74.020594,1406.391290,-10801.946522
902.879610,296.082377,1924.535449,-10418.898773
902.879930,-592.164754,2368.659014,-9729.412825
902.880250,-1332.370696,888.247130,-10112.460574
902.880570,148.041188,-1776.494261,-9116.536426
902.880890,-592.164754,-1776.494261,-9039.926876
902.881209,-962.267725,-1628.453072,-10495.508323
902.881529,-1184.329507,-148.041188,-9346.365076
902.881849,-3701.029710,962.267725,-10112.460574
902.882169,-2146.597232,592.164754,-9346.365076
902.882489,-296.082377,666.185348,-9039.926876
902.882809,-1776.494261,296.082377,-10112.460574
902.883129,-2590.720797,-1480.411884,-8963.317327
902.883449,-3108.864956,-370.102971,-9269.755526
902.883769,-1702.473667,-1480.411884,-10955.165621
902.884089,-222.061783,-2368.659014,-9116.536426
902.884409,-1998.556043,-1702.473667,-10035.851024
902.884729,-2664.741391,-1850.514855,-10342.289223
902.885049,-962.267725,370.102971,-9652.803275
902.885369,2368.659014,2368.659014,-11797.870669
902.885689,2590.720797,1332.370696,-10342.289223
902.886009,2738.761985,1332.370696,-10648.727422
902.886329,1480.411884,-666.185348,-11338.213370
902.886649,296.082377,-2590.720797,-10035.851024
902.886969,-444.123565,-2368.659014,-10189.070123
902.887289,-2146.597232,0.000000,-10648.727422
902.887609,-1110.308913,1924.535449,-10112.460574
902.887928,370.102971,1998.556043,-11338.213370
902.888248,888.247130,0.000000,-10342.289223
902.888568,1776.494261,-1110.308913,-9652.803275
902.888888,2590.720797,-148.041188,-10572.117872
902.889208,2146.597232,-814.226536,-9729.412825
902.889528,2368.659014,0.000000,-10035.851024
902.889848,1924.535449,-962.267725,-10265.679673
902.890168,2812.782580,-962.267725,-9269.755526
902.890488,3182.885551,0.000000,-9959.241474
902.890808,4441.235652,1776.494261,-10265.679673
902.891128,2516.700203,814.226536,-9346.365076
902.891448,2442.679609,518.144159,-10418.898773
902.891768,1480.411884,-444.123565,-9576.193725
902.892088,-518.144159,-1110.308913,-9499.584175
902.892408,888.247130,-1924.535449,-9652.803275
902.892728,1776.494261,-2146.597232,-9116.536426
902.893048,1702.473667,74.020594,-10189.070123
902.893368,2368.659014,1184.329507,-10725.336972
902.893688,2368.659014,0.000000,-9039.926876
902.894008,2664.741391,1036.288319,-10572.117872
902.894328,2590.720797,2368.659014,-10035.851024
902.894647,1702.473667,2664.741391,-10955.165621
902.894967,0.000000,1036.288319,-11261.603821
902.895287,370.102971,0.000000,-9039.926876
902.895607,-444.123565,0.000000,-10342.289223
902.895927,592.164754,-1110.308913,-10035.851024
902.896247,1850.514855,-1480.411884,-9806.022374
902.896567,-1184.329507,148.041188,-11108.384721
902.896887,-1480.411884,962.267725,-9806.022374
902.897207,-962.267725,2442.679609,-9959.241474
902.897527,0.000000,1258.350101,-11491.432470
902.897847,0.000000,1332.370696,-10265.679673
902.898167,-1332.370696,1258.350101,-10418.898773
902.898487,-740.205942,814.226536,-10648.727422
902.898807,1036.288319,1036.288319,-9652.803275
902.899127,222.061783,666.185348,-9499.584175
902.899447,-814.226536,0.000000,-10035.851024
902.899767,-3034.844362,-740.205942,-9652.803275
902.900087,-3330.926739,592.164754,-10418.898773
902.900407,-962.267725,2368.659014,-9806.022374
902.900727,-740.205942,1036.288319,-9806.022374
902.901046,-2072.576638,1702.473667,-11414.822920
902.901366,-1924.535449,296.082377,-9346.365076
902.901686,-1776.494261,-444.123565,-9959.241474
902.902006,-1184.329507,-740.205942,-9269.755526
902.902326,1554.432478,-1554.432478,-9499.584175
902.902646,2368.659014,-148.041188,-11031.775171
902.902966,2368.659014,1110.308913,-9806.022374
902.903286,-814.226536,3256.906145,-10265.679673
902.903606,-2072.576638,4515.256246,-11031.775171
902.903926,-888.247130,1702.473667,-9576.193725
902.904246,1480.411884,-1184.329507,-9959.241474
902.904566,1406.391290,-2294.638420,-9422.974625
902.904886,1480.411884,-1628.453072,-9422.974625
902.905206,666.185348,-1554.432478,-10112.460574
902.905526,1628.453072,518.144159,-9576.193725
902.905846,1702.473667,2590.720797,-9652.803275
902.906166,3330.926739,3034.844362,-10725.336972
902.906486,2886.803174,592.164754,-9499.584175
902.906806,2590.720797,-1702.473667,-9576.193725
902.907126,2146.597232,-444.123565,-10189.070123
902.907446,1332.370696,0.000000,-9346.365076
902.907765,888.247130,740.205942,-10112.460574
902.908085,888.247130,-1406.391290,-9729.412825
902.908405,1258.350101,-2146.597232,-9499.584175
902.908725,-222.061783,-296.082377,-10878.556072
902.909045,1554.432478,814.226536,-9652.803275
902.909365,3182.885551,1850.514855,-10342.289223
902.909685,3108.864956,666.185348,-10418.898773
902.910005,3775.050304,-296.082377,-9959.241474
902.910325,1554.432478,-518.144159,-10342.289223
902.910645,666.185348,-444.123565,-9269.755526
902.910965,666.185348,1332.370696,-9576.193725
902.911285,962.267725,1998.556043,-11414.822920
902.911605,2442.679609,1924.535449,-10342.289223
902.911925,1480.411884,1554.432478,-10878.556072
902.912245,370.102971,-1110.308913,-10572.117872
902.912565,-592.164754,-2220.617826,-9652.803275
902.912885,-2368.659014,-3256.906145,-9959.241474
902.913205,-1480.411884,-1998.556043,-10495.508323
902.913525,-3108.864956,0.000000,-9193.145976
902.913845,962.267725,2146.597232,-10878.556072
902.914165,1776.494261,2220.617826,-10189.070123
902.914484,1184.329507,1110.308913,-10342.289223
902.914804,-666.185348,666.185348,-10801.946522
902.915124,-1628.453072,-444.123565,-9269.755526
902.915444,444.123565,370.102971,-10418.898773
902.915764,-962.267725,-962.267725,-9806.022374
902.916084,-1406.391290,-814.226536,-9576.193725
902.916404,-1924.535449,-814.226536,-10418.898773
902.916724,296.082377,-1480.411884,-10189.070123
902.917044,74.020594,148.041188,-9806.022374
902.917364,-1036.288319,1332.370696,-10878.556072
902.917684,-814.226536,1850.514855,-9652.803275
902.918004,-1258.350101,1406.391290,-10265.679673
902.918324,-148.041188,-962.267725,-10572.117872
902.918644,444.123565,-1258.350101,-9346.365076
902.918964,-1628.453072,0.000000,-10648.727422
902.919284,-1110.308913,740.205942,-9959.241474
902.919604,444.123565,666.185348,-9039.926876
902.919924,1628.453072,370.102971,-11108.384721
902.920244,592.164754,-1258.350101,-9652.803275
902.920564,-296.082377,-1628.453072,-9959.241474
902.920883,-2146.597232,-962.267725,-10342.289223
902.921203,-1702.473667,962.267725,-9116.536426
902.921523,-1924.535449,2738.761985,-10648.727422
902.921843,740.205942,1036.288319,-10265.679673
902.922163,1110.308913,1776.494261,-9806.022374
902.922483,666.185348,370.102971,-11108.384721
902.922803,1702.473667,-740.205942,-9422.974625
902.923123,3034.844362,-518.144159,-10112.460574
902.923443,4441.235652,666.185348,-10878.556072
902.923763,4367.215058,1036.288319,-9576.193725
902.924083,3849.070898,3182.885551,-10342.289223
902.924403,2442.679609,3256.906145,-10342.289223
902.924723,2664.741391,222.061783,-9652.803275
902.925043,2294.638420,-444.123565,-10495.508323
902.925363,2294.638420,740.205942,-10112.460574
902.925683,2294.638420,-74.020594,-8963.317327
902.926003,1332.370696,2146.597232,-11261.603821
902.926323,0.000000,888.247130,-8733.488677
902.926643,888.247130,1850.514855,-10801.946522
902.926963,814.226536,1406.391290,-10035.851024
902.927283,2738.761985,666.185348,-9729.412825
902.927602,1776.494261,1554.432478,-10495.508323
902.927922,1036.288319,0.000000,-10035.851024
902.928242,1184.329507,-740.205942,-9346.365076
902.928562,1702.473667,296.082377,-10878.556072
902.928882,740.205942,1406.391290,-9652.803275
902.929202,444.123565,2220.617826,-9422.974625
902.929522,148.041188,1554.432478,-10572.117872
902.929842,592.164754,-814.226536,-8656.879127
902.930162,518.144159,-888.247130,-10342.289223
902.930482,-222.061783,-148.041188,-9422.974625
902.930802,0.000000,814.226536,-10035.851024
902.931122,592.164754,518.144159,-10725.336972
902.931442,-444.123565,222.061783,-9499.584175
902.931762,-2738.761985,-740.205942,-9576.193725
902.932082,-1184.329507,-148.041188,-10725.336972
902.932402,518.144159,444.123565,-9346.365076
902.932722,1184.329507,1406.391290,-10955.165621
902.933042,370.102971,370.102971,-9806.022374
902.933362,-962.267725,592.164754,-9346.365076
902.933682,-1850.514855,148.041188,-10418.898773
902.934002,-666.185348,-1924.535449,-9882.631924
902.934321,444.123565,-1184.329507,-9959.241474
902.934641,-592.164754,-666.185348,-9499.584175
902.934961,-592.164754,0.000000,-9652.803275
902.935281,-1776.494261,740.205942,-10572.117872
902.935601,-1628.453072,-296.082377,-10342.289223
902.935921,-1998.556043,444.123565,-9729.412825
902.936241,-1850.514855,888.247130,-10572.117872
902.936561,-1036.288319,-370.102971,-9959.241474
902.936881,148.041188,-1406.391290,-9422.974625
902.937201,1998.556043,-2294.638420,-10342.289223
902.937521,2220.617826,-3108.864956,-9806.022374
902.937841,0.000000,-2368.659014,-9806.022374
902.938161,-1110.308913,222.061783,-10725.336972
902.938481,-2368.659014,2960.823768,-9499.584175
902.938801,518.144159,3552.988522,-11108.384721
902.939121,2590.720797,2220.617826,-9652.803275
902.939441,888.247130,666.185348,-10035.851024
902.939761,0.000000,-2590.720797,-10725.336972
902.940081,148.041188,-3108.864956,-9652.803275
902.940401,1110.308913,-1554.432478,-10112.460574
902.940720,1776.494261,740.205942,-10495.508323
902.941040,1924.535449,1406.391290,-9193.145976
902.941360,1998.556043,0.000000,-10418.898773
902.941680,3034.844362,-222.061783,-10035.851024
902.942000,3182.885551,-74.020594,-11108.384721
902.942320,2220.617826,888.247130,-10955.165621
902.942640,3923.091493,0.000000,-9576.193725
902.942960,3552.988522,-444.123565,-10035.851024
902.943280,2664.741391,-814.226536,-10955.165621
902.943600,518.144159,296.082377,-9882.631924
902.943920,-1554.432478,1850.514855,-9959.241474
902.944240,-518.144159,3849.070898,-10112.460574
902.944560,2960.823768,3775.050304,-10342.289223
902.944880,3330.926739,1924.535449,-10342.289223
902.945200,1776.494261,-2368.659014,-9806.022374
902.945520,518.144159,-3997.112087,-8963.317327
902.945840,888.247130,-3627.009116,-9882.631924
902.946160,1924.535449,1480.411884,-10189.070123
902.946480,592.164754,3701.029710,-10495.508323
902.946800,-1036.288319,5329.482782,-10955.165621
902.947120,0.000000,2072.576638,-9499.584175
902.947439,1702.473667,1110.308913,-11491.432470
902.947759,1480.411884,-962.267725,-11184.994271
902.948079,296.082377,-814.226536,-10035.851024
902.948399,-370.102971,370.102971,-10418.898773
902.948719,222.061783,962.267725,-9422.974625
902.949039,-370.102971,3034.844362,-10189.070123
902.949359,-592.164754,2442.679609,-10725.336972
902.949679,148.041188,1924.535449,-9882.631924
902.949999,148.041188,-592.164754,-10035.851024
902.950319,-222.061783,-1332.370696,-9959.241474
902.950639,-1332.370696,-2146.597232,-8733.488677
902.950959,-666.185348,296.082377,-10955.165621
902.951279,-592.164754,740.205942,-9806.022374
902.951599,-1184.329507,1628.453072,-10112.460574
902.951919,-3034.844362,1036.288319,-11721.261119
902.952239,-2220.617826,1332.370696,-9959.241474
902.952559,-2294.638420,1184.329507,-10035.851024
902.952879,-814.226536,666.185348,-10955.165621
902.953199,-1332.370696,296.082377,-8810.098227
902.953519,-1480.411884,-444.123565,-10648.727422
902.953838,-296.082377,-296.082377,-10035.851024
902.954158,1406.391290,0.000000,-10495.508323
902.954478,962.267725,222.061783,-10801.946522
902.954798,592.164754,518.144159,-9499.584175
902.955118,-962.267725,1850.514855,-10112.460574
902.955438,222.061783,1628.453072,-10648.727422
902.955758,1998.556043,1554.432478,-9806.022374
902.956078,1628.453072,1998.556043,-10801.946522
902.956398,2294.638420,-296.082377,-10495.508323
902.956718,1776.494261,-1406.391290,-9499.584175
902.957038,1924.535449,-814.226536,-10801.946522
902.957358,3330.926739,-592.164754,-9269.755526
902.957678,1702.473667,814.226536,-9959.241474
902.957998,1332.370696,1184.329507,-9959.241474
902.958318,1628.453072,592.164754,-9269.755526
902.958638,1480.411884,0.000000,-9882.631924
902.958958,2886.803174,-1702.473667,-9959.241474
902.959278,3552.988522,-1332.370696,-9193.145976
902.959598,3108.864956,-814.226536,-10495.508323
902.959918,2516.700203,-1110.308913,-9269.755526
902.960238,444.123565,518.144159,-9346.365076
902.960557,740.205942,1776.494261,-10648.727422
902.960877,148.041188,2516.700203,-9576.193725
902.961197,1110.308913,1110.308913,-10955.165621
902.961517,1776.494261,-296.082377,-10189.070123
902.961837,518.144159,-1406.391290,-8733.488677
902.962157,-814.226536,-1406.391290,-10418.898773
902.962477,-518.144159,-1036.288319,-9346.365076
902.962797,-666.185348,814.226536,-10801.946522
902.963117,740.205942,962.267725,-10572.117872
902.963437,3034.844362,518.144159,-9269.755526
902.963757,3552.988522,518.144159,-10878.556072
902.964077,2442.679609,666.185348,-11108.384721
902.964397,-666.185348,814.226536,-9882.631924
902.964717,-2294.638420,1924.535449,-10495.508323
902.965037,-1702.473667,518.144159,-9882.631924
902.965357,-962.267725,-592.164754,-10265.679673
902.965677,-1406.391290,-962.267725,-10342.289223
902.965997,-1036.288319,148.041188,-9806.022374
902.966317,-814.226536,1776.494261,-10801.946522
902.966637,74.020594,1036.288319,-10955.165621
902.966957,0.000000,814.226536,-9729.412825
902.967276,-1184.329507,1184.329507,-10418.898773
902.967596,-1184.329507,1480.411884,-10189.070123
902.967916,-444.123565,740.205942,-9806.022374
902.968236,-592.164754,962.267725,-10265.679673
902.968556,1110.308913,222.061783,-9422.974625
902.968876,1406.391290,222.061783,-9882.631924
902.969196,222.061783,-888.247130,-10572.117872
902.969516,-1702.473667,-666.185348,-8733.488677
902.969836,-3108.864956,-592.164754,-10112.460574
902.970156,-1406.391290,-222.061783,-9346.365076
902.970476,74.020594,-296.082377,-9652.803275
902.970796,-1480.411884,148.041188,-9806.022374
902.971116,-1406.391290,-740.205942,-9499.584175
902.971436,518.144159,-1554.432478,-9576.193725
902.971756,3256.906145,-666.185348,-10189.070123
902.972076,3256.906145,0.000000,-9806.022374
902.972396,74.020594,1702.473667,-10265.679673
902.972716,-1480.411884,2294.638420,-10648.727422
902.973036,-222.061783,1406.391290,-9806.022374
902.973356,1480.411884,-666.185348,-10265.679673
902.973675,3256.906145,-2812.782580,-9576.193725
902.973995,1998.556043,-1554.432478,-9576.193725
902.974315,148.041188,-1332.370696,-10878.556072
902.974635,740.205942,592.164754,-10189.070123
902.974955,1110.308913,1924.535449,-10878.556072
902.975275,2146.597232,2220.617826,-10648.727422
902.975595,2664.741391,1110.308913,-9806.022374
902.975915,1332.370696,0.000000,-11261.603821
902.976235,740.205942,-814.226536,-10801.946522
902.976555,1332.370696,148.041188,-10112.460574
902.976875,2738.761985,296.082377,-11184.994271
902.977195,3404.947333,74.020594,-9652.803275
902.977515,1554.432478,-1110.308913,-10342.289223
902.977835,-888.247130,-1924.535449,-9806.022374
902.978155,444.123565,-2664.741391,-9499.584175
902.978475,2368.659014,-1036.288319,-9729.412825
902.978795,3330.926739,370.102971,-10572.117872
902.979115,1776.494261,2960.823768,-9806.022374
902.979435,-888.247130,3034.844362,-10955.165621
902.979755,222.061783,1554.432478,-8963.317327
902.980075,1480.411884,0.000000,-9499.584175
902.980394,2220.617826,-1924.535449,-9882.631924
902.980714,2146.597232,-2220.617826,-9576.193725
902.981034,740.205942,-1776.494261,-9806.022374
902.981354,370.102971,148.041188,-9882.631924
902.981674,-1110.308913,1998.556043,-9422.974625
902.981994,74.020594,3478.967927,-10725.336972
902.982314,296.082377,2590.720797,-10418.898773
902.982634,-666.185348,2220.617826,-10189.070123
902.982954,-2146.597232,0.000000,-10265.679673
902.983274,0.000000,-1332.370696,-8886.707777
902.983594,1184.329507,-888.247130,-10801.946522
902.983914,2072.576638,74.020594,-10878.556072
902.984234,666.185348,1258.350101,-10265.679673
902.984554,-1924.535449,2220.617826,-10801.946522
902.984874,-1702.473667,3108.864956,-10035.851024
902.985194,-1258.350101,3478.967927,-10725.336972
902.985514,592.164754,2368.659014,-11721.261119
902.985834,-814.226536,-444.123565,-10265.679673
902.986154,-2886.803174,-2368.659014,-10495.508323
902.986474,-3256.906145,-2146.597232,-10189.070123
902.986794,-1110.308913,0.000000,-10035.851024
902.987114,-222.061783,1998.556043,-11261.603821
902.987434,-370.102971,2664.741391,-10189.070123
902.987753,-1406.391290,1480.411884,-10265.679673
902.988073,-740.205942,1628.453072,-10418.898773
902.988393,592.164754,1406.391290,-9882.631924
902.988713,740.205942,1628.453072,-9882.631924
902.989033,-222.061783,0.000000,-10342.289223
902.989353,-592.164754,-148.041188,-8810.098227
902.989673,-1702.473667,-2368.659014,-9652.803275
902.989993,-222.061783,-2442.679609,-9193.145976
902.990313,814.226536,-2294.638420,-9039.926876
902.990633,222.061783,-592.164754,-10495.508323
902.990953,444.123565,666.185348,-8810.098227
902.991273,74.020594,1702.473667,-9806.022374
902.991593,1258.350101,1480.411884,-10495.508323
902.991913,1998.556043,222.061783,-9193.145976
902.992233,1924.535449,962.267725,-11031.775171
902.992553,2516.700203,148.041188,-10189.070123
902.992873,2886.803174,0.000000,-9576.193725
902.993193,1776.494261,444.123565,-9806.022374
902.993513,1554.432478,148.041188,-9806.022374
902.993833,888.247130,888.247130,-10725.336972
902.994153,592.164754,1110.308913,-11491.432470
902.994473,2664.741391,1184.329507,-10725.336972
902.994793,1924.535449,518.144159,-10495.508323
902.995112,2146.597232,1036.288319,-11261.603821
902.995432,3330.926739,592.164754,-9652.803275
902.995752,4515.256246,740.205942,-11491.432470
902.996072,4219.173869,-444.123565,-11491.432470
902.996392,2146.597232,74.020594,-10572.117872
902.996712,518.144159,1110.308913,-10801.946522
902.997032,296.082377,1184.329507,-9422.974625
902.997352,1332.370696,1850.514855,-9729.412825
902.997672,1924.535449,0.000000,-10342.289223
902.997992,1258.350101,-1776.494261,-9269.755526
902.998312,-1036.288319,-3034.844362,-9652.803275
902.998632,-1554.432478,-2146.597232,-9346.365076
902.998952,-2516.700203,-1406.391290,-7967.393179
902.999272,-1702.473667,370.102971,-9729.412825
902.999592,518.144159,888.247130,-9269.755526
902.999912,1628.453072,518.144159,-9652.803275
903.000232,222.061783,148.041188,-9652.803275
903.000552,-1480.411884,518.144159,-8656.879127
903.000872,-1924.535449,0.000000,-9959.241474
903.001192,666.185348,-444.123565,-9882.631924
903.001512,1998.556043,-1110.308913,-9499.584175
903.001832,814.226536,-1628.453072,-10801.946522
903.002152,2368.659014,-1110.308913,-9499.584175
903.002471,1924.535449,1554.432478,-10878.556072
903.002791,-148.041188,3404.947333,-11568.042020
903.003111,-2368.659014,1480.411884,-9882.631924
903.003431,-3330.926739,74.020594,-10572.117872
903.003751,-2220.617826,-444.123565,-10265.679673
903.004071,-1480.411884,296.082377,-10725.336972
903.004391,0.000000,2368.659014,-12257.527968
903.004711,888.247130,1258.350101,-10572.117872
903.005031,740.205942,666.185348,-10725.336972
903.005351,-1258.350101,814.226536,-11491.432470
903.005671,-2294.638420,444.123565,-10342.289223
903.005991,-3108.864956,1628.453072,-12104.308868
903.006311,-1110.308913,1702.473667,-10572.117872
903.006631,1184.329507,1184.329507,-9576.193725
903.006951,1332.370696,592.164754,-10955.165621
903.007271,2738.761985,-888.247130,-9806.022374
903.007591,888.247130,296.082377,-9729.412825
903.007911,592.164754,2664.741391,-10648.727422
903.008231,2738.761985,2960.823768,-9346.365076
903.008551,2146.597232,1036.288319,-10035.851024
903.008871,-444.123565,-370.102971,-8733.488677
903.009191,-962.267725,-2294.638420,-7967.393179
903.009511,-518.144159,-1406.391290,-9269.755526
903.009830,2072.576638,-148.041188,-9806.022374
903.010150,2368.659014,592.164754,-9039.926876
903.010470,1036.288319,962.267725,-10189.070123
903.010790,1998.556043,148.041188,-8963.317327
903.011110,2294.638420,-592.164754,-9499.584175
903.011430,1998.556043,-1332.370696,-9882.631924
903.011750,3404.947333,-1332.370696,-10035.851024
903.012070,2516.700203,-148.041188,-10725.336972
903.012390,2368.659014,740.205942,-9882.631924
903.012710,1554.432478,1776.494261,-9729.412825
903.013030,1332.370696,2516.700203,-11721.261119
903.013350,2294.638420,1924.535449,-10878.556072
903.013670,666.185348,1850.514855,-10725.336972
903.013990,0.000000,962.267725,-11261.603821
903.014310,-222.061783,74.020594,-9959.241474
903.014630,370.102971,-518.144159,-11108.384721
903.014950,1036.288319,-518.144159,-10418.898773
903.015270,0.000000,-666.185348,-10035.851024
903.015590,-592.164754,1702.473667,-11338.213370
903.015910,518.144159,2442.679609,-9422.974625
903.016230,2220.617826,2590.720797,-11031.775171
903.016550,2368.659014,1924.535449,-10878.556072
903.016870,1850.514855,444.123565,-9652.803275
903.017189,814.226536,-518.144159,-10648.727422
903.017509,-814.226536,-1850.514855,-9652.803275
903.017829,-444.123565,-1776.494261,-9269.755526
903.018149,-592.164754,740.205942,-10265.679673
903.018469,0.000000,1554.432478,-9346.365076
903.018789,-148.041188,2294.638420,-8963.317327
903.019109,0.000000,666.185348,-10572.117872
903.019429,666.185348,-1480.411884,-8810.098227
903.019749,1332.370696,-2516.700203,-9652.803275
903.020069,888.247130,-2886.803174,-9959.241474
903.020389,-592.164754,-2146.597232,-8580.269578
903.020709,-3108.864956,0.000000,-10342.289223
903.021029,-3478.967927,1554.432478,-9806.022374
903.021349,-2294.638420,2294.638420,-9269.755526
903.021669,-148.041188,1406.391290,-10801.946522
903.021989,1258.350101,0.000000,-9652.803275
903.022309,592.164754,-2664.741391,-10035.851024
903.022629,-1110.308913,-3997.112087,-10265.679673
903.022949,-1776.494261,-3627.009116,-9269.755526
903.023269,-1480.411884,-1184.329507,-9806.022374
903.023589,-518.144159,2368.659014,-10955.165621
903.023909,370.102971,3997.112087,-10265.679673
903.024229,-962.267725,5329.482782,-11797.870669
903.024548,0.000000,3849.070898,-10265.679673
903.024868,1998.556043,814.226536,-10648.727422
903.025188,3775.050304,-962.267725,-11108.384721
903.025508,3627.009116,-1480.411884,-9576.193725
903.025828,0.000000,74.020594,-10035.851024
903.026148,-1850.514855,1036.288319,-10572.117872
903.026468,-814.226536,444.123565,-9806.022374
903.026788,1184.329507,2812.782580,-10955.165621
903.027108,2886.803174,2146.597232,-10725.336972
903.027428,2442.679609,1332.370696,-9039.926876
903.027748,1924.535449,222.061783,-11108.384721
903.028068,2590.720797,-518.144159,-9346.365076
903.028388,2812.782580,0.000000,-9882.631924
903.028708,3775.050304,1332.370696,-11031.775171
903.029028,3627.009116,2368.659014,-9499.584175
903.029348,1998.556043,2886.803174,-10495.508323
903.029668,1258.350101,2442.679609,-9882.631924
903.029988,296.082377,74.020594,-9346.365076
903.030308,592.164754,-1702.473667,-9882.631924
903.030628,2220.617826,-2368.659014,-9652.803275
903.030948,2146.597232,-1776.494261,-9729.412825
903.031268,1480.411884,222.061783,-10418.898773
903.031588,1036.288319,1036.288319,-8886.707777
903.031907,-1406.391290,3034.844362,-10112.460574
903.032227,-222.061783,1332.370696,-10801.946522
903.032547,1110.308913,296.082377,-9039.926876
903.032867,1184.329507,-148.041188,-11108.384721
903.033187,1036.288319,0.000000,-9806.022374
903.033507,1998.556043,666.185348,-10572.117872
903.033827,2516.700203,666.185348,-11108.384721
903.034147,1924.535449,1110.308913,-9806.022374
903.034467,-2146.597232,3182.885551,-10725.336972
903.034787,-2738.761985,2516.700203,-10572.117872
903.035107,-1628.453072,1480.411884,-9652.803275
903.035427,0.000000,592.164754,-10495.508323
903.035747,444.123565,-1184.329507,-10265.679673
903.036067,296.082377,-962.267725,-9499.584175
903.036387,-740.205942,-814.226536,-11031.775171
903.036707,-666.185348,1480.411884,-9499.584175
903.037027,-1628.453072,3108.864956,-10572.117872
903.037347,-3256.906145,3701.029710,-10955.165621
903.037667,-2812.782580,1998.556043,-9422.974625
903.037987,-1850.514855,1480.411884,-10495.508323
903.038307,0.000000,0.000000,-9806.022374
903.038627,592.164754,-1258.350101,-9499.584175
903.038947,-148.041188,-1258.350101,-10418.898773
903.039267,1036.288319,-814.226536,-9269.755526
903.039586,-888.247130,592.164754,-9422.974625
903.039906,-3330.926739,1184.329507,-10189.070123
903.040226,-3701.029710,148.041188,-8427.050478
903.040546,-2368.659014,74.020594,-9806.022374
903.040866,1480.411884,-444.123565,-9806.022374
903.041186,3552.988522,-814.226536,-9422.974625
903.041506,3256.906145,-444.123565,-10189.070123
903.041826,4293.194464,-370.102971,-9959.241474
903.042146,2368.659014,222.061783,-9806.022374
903.042466,1554.432478,1332.370696,-10418.898773
903.042786,2368.659014,888.247130,-8886.707777
903.043106,3108.864956,1258.350101,-9882.631924
903.043426,2442.679609,0.000000,-10648.727422
903.043746,1776.494261,-666.185348,-9346.365076
903.044066,2220.617826,-222.061783,-10725.336972
903.044386,4663.297435,-296.082377,-10035.851024
903.044706,4071.132681,1036.288319,-10189.070123
903.045026,666.185348,2960.823768,-11721.261119
903.045346,370.102971,2886.803174,-10265.679673
903.045666,2516.700203,2368.659014,-10342.289223
903.045986,5107.421000,148.041188,-10648.727422
903.046306,4885.359217,-1850.514855,-10189.070123
903.046626,2590.720797,-1702.473667,-10112.460574
903.046945,1628.453072,222.061783,-11031.775171
903.047265,3775.050304,2442.679609,-9959.241474
903.047585,2886.803174,4219.173869,-10878.556072
903.047905,2072.576638,2886.803174,-10878.556072
903.048225,2146.597232,962.267725,-9806.022374
903.048545,2886.803174,518.144159,-10495.508323
903.048865,4367.215058,592.164754,-10648.727422
903.049185,2516.700203,370.102971,-10035.851024
903.049505,1850.514855,444.123565,-9806.022374
903.049825,1776.494261,2072.576638,-9806.022374
903.050145,2960.823768,3997.112087,-9882.631924
903.050465,3034.844362,5625.565159,-10878.556072
903.050785,1850.514855,5329.482782,-10955.165621
903.051105,2590.720797,4367.215058,-10495.508323
903.051425,962.267725,2960.823768,-9269.755526
903.051745,1998.556043,2220.617826,-10035.851024
903.052065,2516.700203,0.000000,-8963.317327
903.052385,2812.782580,0.000000,-9576.193725
903.052705,3404.947333,740.205942,-10035.851024
903.053025,3627.009116,3701.029710,-9116.536426
903.053345,3034.844362,6439.791695,-10189.070123
903.053665,2960.823768,6365.771101,-10189.070123
903.053985,2442.679609,4663.297435,-9806.022374
903.054304,2516.700203,3182.885551,-10112.460574
903.054624,2516.700203,1480.411884,-9806.022374
903.054944,3108.864956,814.226536,-9422.974625
903.055264,-370.102971,1850.514855,-9882.631924
903.055584,-1036.288319,2590.720797,-9806.022374
903.055904,814.226536,3108.864956,-9806.022374
903.056224,2516.700203,4737.318029,-10112.460574
903.056544,1332.370696,5477.523971,-9959.241474
903.056864,2368.659014,5107.421000,-9806.022374
903.057184,3627.009116,5329.482782,-10648.727422
903.057504,3627.009116,5329.482782,-9806.022374
903.057824,1998.556043,4145.153275,-10112.460574
903.058144,2072.576638,2516.700203,-10189.070123
903.058464,2442.679609,2072.576638,-10035.851024
903.058784,1776.494261,2072.576638,-10112.460574
903.059104,-148.041188,3034.844362,-9806.022374
903.059424,-296.082377,4441.235652,-10495.508323
903.059744,1258.350101,4219.173869,-10342.289223
903.060064,1406.391290,4293.194464,-9039.926876
903.060384,666.185348,2886.803174,-10035.851024
903.060704,1258.350101,1702.473667,-10035.851024
903.061024,1998.556043,888.247130,-9882.631924
903.061344,2812.782580,1480.411884,-10189.070123
903.061663,3997.112087,2812.782580,-9806.022374
903.061983,5403.503377,3923.091493,-10725.336972
903.062303,3034.844362,5477.523971,-10495.508323
903.062623,1480.411884,5403.503377,-10648.727422
903.062943,1332.370696,4219.173869,-10418.898773
903.063263,2590.720797,1628.453072,-10572.117872
903.063583,2812.782580,-666.185348,-9959.241474
903.063903,1850.514855,-962.267725,-9422.974625
903.064223,1480.411884,962.267725,-9729.412825
903.064543,3478.967927,2812.782580,-10112.460574
903.064863,4219.173869,5181.441594,-10418.898773
903.065183,2738.761985,5329.482782,-10648.727422
903.065503,2072.576638,4515.256246,-9806.022374
903.065823,3256.906145,2368.659014,-10035.851024
903.066143,5033.400406,1480.411884,-9806.022374
903.066463,4737.318029,1258.350101,-10035.851024
903.066783,2442.679609,1332.370696,-9959.241474
903.067103,2294.638420,2442.679609,-9346.365076
903.067423,2442.679609,2960.823768,-10342.289223
903.067743,2368.659014,2960.823768,-10035.851024
903.068063,1406.391290,1850.514855,-9882.631924
903.068383,666.185348,1184.329507,-9806.022374
903.068703,2220.617826,148.041188,-10878.556072
903.069022,3256.906145,74.020594,-10418.898773
903.069342,2738.761985,1036.288319,-10418.898773
903.069662,1998.556043,2072.576638,-10035.851024
903.069982,2220.617826,3552.988522,-10572.117872
903.070302,3256.906145,4071.132681,-10572.117872
903.070622,4737.318029,3552.988522,-11108.384721
903.070942,4589.276840,2368.659014,-10878.556072
903.071262,2220.617826,1406.391290,-10572.117872
903.071582,592.164754,74.020594,-10189.070123
903.071902,-740.205942,148.041188,-9729.412825
903.072222,74.020594,296.082377,-10112.460574
903.072542,1850.514855,222.061783,-10495.508323
903.072862,2442.679609,962.267725,-9806.022374
903.073182,888.247130,1850.514855,-10265.679673
903.073502,666.185348,2812.782580,-9882.631924
903.073822,1702.473667,3701.029710,-10035.851024
903.074142,3552.988522,3330.926739,-10648.727422
903.074462,3627.009116,1850.514855,-9729.412825
903.074782,2812.782580,74.020594,-9806.022374
903.075102,666.185348,370.102971,-10265.679673
903.075422,-592.164754,1480.411884,-9652.803275
903.075742,-370.102971,2886.803174,-9806.022374
903.076062,666.185348,2738.761985,-10035.851024
903.076381,2294.638420,1036.288319,-9576.193725
903.076701,2738.761985,370.102971,-10112.460574
903.077021,2516.700203,1332.370696,-9806.022374
903.077341,2368.659014,3552.988522,-10725.336972
903.077661,1628.453072,4959.379811,-10189.070123
903.077981,2590.720797,4441.235652,-9959.241474
903.078301,4219.173869,2590.720797,-10189.070123
903.078621,3849.070898,962.267725,-10189.070123
903.078941,2220.617826,1110.308913,-9806.022374
903.079261,1258.350101,2220.617826,-10189.070123
903.079581,1480.411884,3923.091493,-10418.898773
903.079901,1480.411884,4441.235652,-10418.898773
903.080221,1110.308913,3256.906145,-10112.460574
903.080541,2146.597232,1776.494261,-9806.022374
903.080861,3997.112087,1332.370696,-10418.898773
903.081181,5477.523971,1850.514855,-10572.117872
903.081501,5847.626942,3923.091493,-10572.117872
903.081821,5625.565159,5847.626942,-10265.679673
903.082141,5403.503377,6439.791695,-10418.898773
903.082460,3923.091493,6439.791695,-10495.508323
903.082780,1184.329507,5033.400406,-10418.898773
903.083100,-222.061783,3256.906145,-9499.584175
903.083420,370.102971,1036.288319,-9882.631924
903.083740,2072.576638,-592.164754,-9499.584175
903.084060,2294.638420,-592.164754,-9346.365076
903.084380,1554.432478,1406.391290,-9499.584175
903.084700,2960.823768,4219.173869,-9576.193725
903.085020,4959.379811,6365.771101,-10112.460574
903.085340,5995.668130,7624.121203,-10572.117872
903.085660,5773.606348,6439.791695,-10342.289223
903.085980,3775.050304,3923.091493,-10265.679673
903.086299,1628.453072,1332.370696,-9882.631924
903.086619,-518.144159,296.082377,-9422.974625
903.086939,-1702.473667,148.041188,-9499.584175
903.087259,-296.082377,370.102971,-9346.365076
903.087579,814.226536,1184.329507,-9499.584175
903.087899,1110.308913,2072.576638,-9806.022374
903.088219,1776.494261,3404.947333,-10035.851024
903.088539,3330.926739,4811.338623,-10495.508323
903.088859,5551.544565,5773.606348,-10572.117872
903.089179,5995.668130,5403.503377,-10648.727422
903.089499,4589.276840,4071.132681,-10265.679673
903.089819,2146.597232,2664.741391,-10342.289223
903.090138,740.205942,2886.803174,-10418.898773
903.090458,0.000000,2516.700203,-10801.946522
903.090778,-962.267725,2516.700203,-10265.679673
903.091098,-1924.535449,1628.453072,-9959.241474
903.091418,-2072.576638,740.205942,-10572.117872
903.091738,-1406.391290,74.020594,-9959.241474
903.092058,740.205942,148.041188,-9806.022374
903.092378,3256.906145,1332.370696,-9882.631924
903.092698,5847.626942,2886.803174,-10342.289223
903.093018,7031.956449,4367.215058,-10265.679673
903.093338,6513.812290,5181.441594,-10342.289223
903.093658,4811.338623,5477.523971,-10801.946522
903.093977,2886.803174,4737.318029,-10418.898773
903.094297,1628.453072,3404.947333,-10189.070123
903.094617,1036.288319,1406.391290,-10112.460574
903.094937,592.164754,-666.185348,-9346.365076
903.095257,-222.061783,-1332.370696,-9499.584175
903.095577,-814.226536,-962.267725,-9346.365076
903.095897,0.000000,666.185348,-9576.193725
903.096217,1924.535449,2072.576638,-9806.022374
903.096537,4515.256246,3182.885551,-9806.022374
903.096857,6217.729913,3330.926739,-10112.460574
903.097177,7402.059420,2664.741391,-9193.145976
903.097497,5995.668130,2220.617826,-10265.679673
903.097816,3701.029710,2146.597232,-10495.508323
903.098136,1258.350101,2146.597232,-10112.460574
903.098456,-814.226536,1554.432478,-10189.070123
903.098776,-1480.411884,74.020594,-9499.584175
903.099096,-1184.329507,-1480.411884,-9806.022374
903.099416,-296.082377,-1702.473667,-10035.851024
903.099736,148.041188,-888.247130,-9959.241474
903.100056,1480.411884,1924.535449,-10418.898773
903.100376,2886.803174,3034.844362,-10801.946522
903.100696,4441.235652,4219.173869,-10801.946522
903.101016,4663.297435,4441.235652,-10878.556072
903.101336,3701.029710,3627.009116,-10725.336972
903.101655,3256.906145,2442.679609,-10955.165621
903.101975,1998.556043,1776.494261,-10495.508323
903.102295,888.247130,1184.329507,-10418.898773
903.102615,-74.020594,666.185348,-9959.241474
903.102935,74.020594,0.000000,-9729.412825
903.103255,296.082377,962.267725,-10112.460574
903.103575,1554.432478,2146.597232,-10342.289223
903.103895,2664.741391,3182.885551,-10342.289223
903.104215,3775.050304,4367.215058,-9806.022374
903.104535,5255.462188,4515.256246,-10035.851024
903.104855,6587.832884,4515.256246,-10648.727422
903.105175,7328.038826,4737.318029,-10418.898773
903.105495,6439.791695,5477.523971,-10418.898773
903.105814,4441.235652,5477.523971,-10189.070123
903.106134,1924.535449,4885.359217,-10342.289223
903.106454,0.000000,3552.988522,-9882.631924
903.106774,-962.267725,1702.473667,-9422.974625
903.107094,-962.267725,296.082377,-8886.707777
903.107414,814.226536,-148.041188,-9346.365076
903.107734,2368.659014,592.164754,-9652.803275
903.108054,4071.132681,2960.823768,-9806.022374
903.108374,5329.482782,5699.585753,-10112.460574
903.108694,6217.729913,7994.224174,-11414.822920
903.109014,6587.832884,8216.285956,-10418.898773
903.109334,5699.585753,7328.038826,-10495.508323
903.109653,4737.318029,5551.544565,-10189.070123
903.109973,3627.009116,3775.050304,-9882.631924
903.110293,2220.617826,2812.782580,-10342.289223
903.110613,-370.102971,2960.823768,-9806.022374
903.110933,-2812.782580,3552.988522,-9806.022374
903.111253,-3108.864956,3627.009116,-9806.022374
903.111573,-370.102971,2664.741391,-9806.022374
903.111893,1776.494261,3108.864956,-10035.851024
903.112213,3034.844362,2886.803174,-10418.898773
903.112533,3182.885551,3627.009116,-10035.851024
903.112853,3256.906145,5625.565159,-9269.755526
903.113173,4737.318029,5995.668130,-9959.241474
903.113492,5921.647536,6513.812290,-10725.336972
903.113812,5699.585753,5699.585753,-10725.336972
903.114132,2442.679609,4441.235652,-10189.070123
903.114452,-1776.494261,3182.885551,-9806.022374
903.114772,-2960.823768,1702.473667,-9806.022374
903.115092,-2146.597232,74.020594,-9652.803275
903.115412,-962.267725,-888.247130,-9193.145976
903.115732,370.102971,-1850.514855,-9193.145976
903.116052,1184.329507,296.082377,-9039.926876
903.116372,4071.132681,2590.720797,-9806.022374
903.116692,6069.688724,5477.523971,-10572.117872
903.117012,6439.791695,7328.038826,-10112.460574
903.117331,5255.462188,6439.791695,-9959.241474
903.117651,4071.132681,4293.194464,-10035.851024
903.117971,2590.720797,1702.473667,-10035.851024
903.118291,814.226536,-148.041188,-9652.803275
903.118611,0.000000,-1184.329507,-8963.317327
903.118931,74.020594,-1332.370696,-9729.412825
903.119251,74.020594,-444.123565,-9806.022374
903.119571,-592.164754,666.185348,-9652.803275
903.119891,1184.329507,1998.556043,-9806.022374
903.120211,4219.173869,2664.741391,-10342.289223
903.120531,6291.750507,2664.741391,-10495.508323
903.120851,7624.121203,2072.576638,-10342.289223
903.121170,7550.100608,2442.679609,-10955.165621
903.121490,6439.791695,3997.112087,-12104.308868
903.121810,3701.029710,4589.276840,-11031.775171
903.122130,1258.350101,4441.235652,-10878.556072
903.122450,0.000000,2442.679609,-10878.556072
903.122770,74.020594,-296.082377,-11797.870669
903.123090,-148.041188,-2294.638420,-10572.117872
903.123410,-444.123565,-2664.741391,-9576.193725
903.123730,-370.102971,-1554.432478,-9499.584175
903.124050,1480.411884,740.205942,-10342.289223
903.124370,4441.235652,1628.453072,-9959.241474
903.124690,5921.647536,3552.988522,-10342.289223
903.125009,6883.915261,4071.132681,-10955.165621
903.125329,6513.812290,3404.947333,-10572.117872
903.125649,4811.338623,3775.050304,-10265.679673
903.125969,2368.659014,3034.844362,-10035.851024
903.126289,1036.288319,1258.350101,-9499.584175
903.126609,-1332.370696,-444.123565,-9882.631924
903.126929,-2738.761985,-1628.453072,-9652.803275
903.127249,-4811.338623,-1258.350101,-9193.145976
903.127569,-4219.173869,0.000000,-9806.022374
903.127889,148.041188,814.226536,-9422.974625
903.128209,4219.173869,1850.514855,-9576.193725
903.128529,4959.379811,2368.659014,-10572.117872
903.128849,4219.173869,3330.926739,-9652.803275
903.129168,3627.009116,4811.338623,-10112.460574
903.129488,5403.503377,5403.503377,-11031.775171
903.129808,5921.647536,4663.297435,-10418.898773
903.130128,2886.803174,3256.906145,-10878.556072
903.130448,-518.144159,1702.473667,-9806.022374
903.130768,-1924.535449,814.226536,-10035.851024
903.131088,-1628.453072,888.247130,-10265.679673
903.131408,-1110.308913,962.267725,-9576.193725
903.131728,-1332.370696,1036.288319,-9576.193725
903.132048,814.226536,1110.308913,-9806.022374
903.132368,4811.338623,2368.659014,-9806.022374
903.132688,6809.894666,4515.256246,-10418.898773
903.133007,6587.832884,6217.729913,-10648.727422
903.133327,5329.482782,7105.977043,-10035.851024
903.133647,5403.503377,6661.853478,-10572.117872
903.133967,6439.791695,4737.318029,-10418.898773
903.134287,5181.441594,2886.803174,-9729.412825
903.134607,1554.432478,2590.720797,-9806.022374
903.134927,-296.082377,2368.659014,-9729.412825
903.135247,-666.185348,2738.761985,-9729.412825
903.135567,-962.267725,2072.576638,-9882.631924
903.135887,-444.123565,1702.473667,-9346.365076
903.136207,1998.556043,1998.556043,-9729.412825
903.136527,5403.503377,2664.741391,-9729.412825
903.136846,6735.874072,4737.318029,-10112.460574
903.137166,7476.080014,7254.018232,-11644.651570
903.137486,4959.379811,7624.121203,-10495.508323
903.137806,6587.832884,7105.977043,-10648.727422
903.138126,6661.853478,5107.421000,-10418.898773
903.138446,3034.844362,3108.864956,-9882.631924
903.138766,-1406.391290,1850.514855,-10265.679673
903.139086,-1184.329507,-148.041188,-10035.851024
903.139406,-2220.617826,-370.102971,-9652.803275
903.139726,-2294.638420,0.000000,-9729.412825
903.140046,-1332.370696,1480.411884,-9422.974625
903.140366,1110.308913,2516.700203,-10035.851024
903.140685,2664.741391,4811.338623,-10572.117872
903.141005,4145.153275,5625.565159,-10189.070123
903.141325,5181.441594,7402.059420,-11031.775171
903.141645,5847.626942,5921.647536,-10418.898773
903.141965,5329.482782,5107.421000,-10418.898773
903.142285,2738.761985,3997.112087,-11108.384721
903.142605,-518.144159,2664.741391,-10189.070123
903.142925,-1776.494261,740.205942,-9806.022374
903.143245,-1258.350101,-148.041188,-9959.241474
903.143565,-814.226536,0.000000,-9499.584175
903.143885,-1850.514855,296.082377,-9269.755526
903.144205,0.000000,1776.494261,-9576.193725
903.144524,1258.350101,3404.947333,-10035.851024
903.144844,3775.050304,3997.112087,-9882.631924
903.145164,5255.462188,3775.050304,-9806.022374
903.145484,6217.729913,2886.803174,-9806.022374
903.145804,6365.771101,2738.761985,-9806.022374
903.146124,5773.606348,2960.823768,-10342.289223
903.146444,3775.050304,1850.514855,-10572.117872
903.146764,1480.411884,1184.329507,-9576.193725
903.147084,148.041188,1628.453072,-8810.098227
903.147404,-592.164754,1776.494261,-9882.631924
903.147724,-2072.576638,1554.432478,-9652.803275
903.148044,148.041188,1184.329507,-10189.070123
903.148363,2220.617826,222.061783,-10035.851024
903.148683,4441.235652,-296.082377,-9269.755526
903.149003,4071.132681,1850.514855,-10035.851024
903.149323,5847.626942,2516.700203,-10801.946522
903.149643,7476.080014,3775.050304,-10725.336972
903.149963,6735.874072,5477.523971,-11261.603821
903.150283,2960.823768,3256.906145,-10801.946522
903.150603,666.185348,1036.288319,-9729.412825
903.150923,-1184.329507,0.000000,-10265.679673
903.151243,-1850.514855,-1628.453072,-10955.165621
903.151563,-1776.494261,-2590.720797,-9806.022374
903.151883,-1036.288319,-2738.761985,-10265.679673
903.152203,-222.061783,-3256.906145,-10265.679673
903.152522,1406.391290,-2442.679609,-9652.803275
903.152842,1258.350101,0.000000,-10572.117872
903.153162,3701.029710,2738.761985,-10418.898773
903.153482,7624.121203,4737.318029,-10648.727422
903.153802,6513.812290,4737.318029,-11721.261119
903.154122,4663.297435,3552.988522,-11108.384721
903.154442,2516.700203,1110.308913,-9959.241474
903.154762,-148.041188,-1036.288319,-10725.336972
903.155082,-1184.329507,-1998.556043,-9729.412825
903.155402,-4515.256246,-3108.864956,-11184.994271
903.155722,-7179.997637,-3182.885551,-10189.070123
903.156042,-6143.709319,-2442.679609,-8427.050478
903.156361,-2516.700203,-148.041188,-9729.412825
903.156681,444.123565,2442.679609,-10265.679673
903.157001,2294.638420,2368.659014,-9652.803275
903.157321,3775.050304,2072.576638,-10265.679673
903.157641,4885.359217,592.164754,-10342.289223
903.157961,4293.194464,1184.329507,-9039.926876
903.158281,2368.659014,1184.329507,-10648.727422
903.158601,1258.350101,1850.514855,-9652.803275
903.158921,148.041188,2738.761985,-10112.460574
903.159241,-2072.576638,1702.473667,-10572.117872
903.159561,-3997.112087,-518.144159,-9422.974625
903.159881,-5403.503377,-1924.535449,-8503.660028
903.160200,-5699.585753,-2590.720797,-9806.022374
903.160520,-3701.029710,-1480.411884,-9346.365076
903.160840,-962.267725,1406.391290,-9729.412825
903.161160,2368.659014,1924.535449,-9959.241474
903.161480,4589.276840,2664.741391,-9269.755526
903.161800,3330.926739,3627.009116,-11108.384721
903.162120,3849.070898,3701.029710,-10265.679673
903.162440,3108.864956,4515.256246,-10342.289223
903.162760,1036.288319,4219.173869,-11184.994271
903.163080,-740.205942,1628.453072,-9806.022374
903.163400,-3404.947333,-666.185348,-9806.022374
903.163720,-4071.132681,-1850.514855,-10189.070123
903.164039,-2886.803174,-1850.514855,-9806.022374
903.164359,-2294.638420,-222.061783,-10418.898773
903.164679,1036.288319,1258.350101,-9806.022374
903.164999,3108.864956,2220.617826,-9576.193725
903.165319,3775.050304,2442.679609,-10572.117872
903.165639,5181.441594,2368.659014,-8963.317327
903.165959,4367.215058,2960.823768,-10572.117872
903.166279,3627.009116,2886.803174,-10418.898773
903.166599,3775.050304,1628.453072,-9806.022374
903.166919,888.247130,814.226536,-10112.460574
903.167239,-1924.535449,-2146.597232,-9576.193725
903.167559,-3627.009116,-2886.803174,-9422.974625
903.167878,-3182.885551,-1924.535449,-10035.851024
903.168198,148.041188,-740.205942,-9269.755526
903.168518,1924.535449,1554.432478,-10342.289223
903.168838,2146.597232,2294.638420,-10878.556072
903.169158,2516.700203,1184.329507,-9576.193725
903.169478,2812.782580,888.247130,-11108.384721
903.169798,4367.215058,666.185348,-10418.898773
903.170118,6513.812290,592.164754,-9499.584175
903.170438,4885.359217,1406.391290,-11414.822920
903.170758,1258.350101,1036.288319,-10035.851024
903.171078,-2294.638420,518.144159,-9806.022374
903.171398,-3849.070898,222.061783,-10725.336972
903.171717,-1850.514855,-1702.473667,-9652.803275
903.172037,-148.041188,-2368.659014,-10189.070123
903.172357,1036.288319,-2664.741391,-10725.336972
903.172677,0.000000,-2220.617826,-8350.440928
903.172997,-518.144159,0.000000,-10112.460574
903.173317,2072.576638,1036.288319,-10265.679673
903.173637,4811.338623,1554.432478,-11108.384721
903.173957,5181.441594,2442.679609,-11644.651570
903.174277,3849.070898,1850.514855,-9806.022374
903.174597,74.020594,1998.556043,-10572.117872
903.174917,-3182.885551,1036.288319,-11108.384721
903.175237,-2220.617826,-518.144159,-9499.584175
903.175557,-962.267725,-962.267725,-9806.022374
903.175876,-370.102971,-3404.947333,-9806.022374
903.176196,-2442.679609,-3478.967927,-8886.707777
903.176516,-5107.421000,-2516.700203,-10418.898773
903.176836,-2072.576638,-1036.288319,-9039.926876
903.177156,1554.432478,1184.329507,-9422.974625
903.177476,2516.700203,1554.432478,-10342.289223
903.177796,1628.453072,296.082377,-8580.269578
903.178116,888.247130,370.102971,-10189.070123
903.178436,2886.803174,-518.144159,-10342.289223
903.178756,1924.535449,814.226536,-9346.365076
903.179076,-2220.617826,1258.350101,-10265.679673
903.179396,-4663.297435,222.061783,-9346.365076
903.179715,-3775.050304,-1036.288319,-8350.440928
903.180035,-3256.906145,-2368.659014,-10418.898773
903.180355,-814.226536,-3034.844362,-8733.488677
903.180675,-74.020594,-1406.391290,-10035.851024
903.180995,1332.370696,0.000000,-11261.603821
903.181315,2442.679609,2516.700203,-10342.289223
903.181635,1628.453072,3997.112087,-11031.775171
903.181955,2590.720797,4589.276840,-11031.775171
903.182275,3404.947333,3849.070898,-10648.727422
903.182595,2812.782580,2664.741391,-12027.699319
903.182915,2368.659014,740.205942,-9882.631924
903.183235,-592.164754,74.020594,-10035.851024
903.183555,-1480.411884,-592.164754,-10725.336972
903.183874,-222.061783,-1628.453072,-9729.412825
903.184194,-888.247130,-1036.288319,-10112.460574
903.184514,-444.123565,444.123565,-10189.070123
903.184834,-370.102971,1924.535449,-9576.193725
903.185154,1110.308913,2072.576638,-10572.117872
903.185474,2886.803174,1184.329507,-9499.584175
903.185794,3404.947333,-296.082377,-9806.022374
903.186114,5033.400406,-1110.308913,-10572.117872
903.186434,3182.885551,-1110.308913,-9576.193725
903.186754,444.123565,592.164754,-9806.022374
903.187074,1110.308913,888.247130,-9959.241474
903.187394,1924.535449,1184.329507,-9116.536426
903.187714,222.061783,222.061783,-10112.460574
903.188034,-2442.679609,-1850.514855,-9116.536426
903.188354,-3923.091493,-2442.679609,-8350.440928
903.188674,-1406.391290,-1998.556043,-9882.631924
903.188994,2812.782580,-1258.350101,-8886.707777
903.189314,4219.173869,74.020594,-10189.070123
903.189634,4071.132681,1776.494261,-10801.946522
903.189954,4293.194464,2664.741391,-9729.412825
903.190274,3330.926739,3923.091493,-11414.822920
903.190594,2368.659014,3256.906145,-10418.898773
903.190914,2516.700203,1406.391290,-10035.851024
903.191234,2220.617826,-148.041188,-11338.213370
903.191554,222.061783,-2590.720797,-9422.974625
903.191873,-4367.215058,-2220.617826,-10572.117872
903.192193,-4885.359217,-1110.308913,-10878.556072
903.192513,-2886.803174,-296.082377,-8886.707777
903.192833,222.061783,2072.576638,-11568.042020
903.193153,1924.535449,2146.597232,-11184.994271
903.193473,666.185348,1554.432478,-10035.851024
903.193793,-1332.370696,1110.308913,-11568.042020
903.194113,-296.082377,0.000000,-9806.022374
903.194433,666.185348,-370.102971,-9959.241474
903.194753,-296.082377,-814.226536,-10418.898773
903.195073,-1258.350101,-518.144159,-9039.926876
903.195393,-2072.576638,962.267725,-10418.898773
903.195713,0.000000,74.020594,-10035.851024
903.196033,962.267725,-518.144159,-9729.412825
903.196353,-148.041188,-1184.329507,-10189.070123
903.196673,-666.185348,-1110.308913,-9193.145976
903.196993,-1850.514855,74.020594,-9576.193725
903.197313,-296.082377,740.205942,-10189.070123
903.197633,2590.720797,296.082377,-8656.879127
903.197953,2442.679609,592.164754,-10572.117872
903.198273,1702.473667,1406.391290,-10648.727422
903.198593,222.061783,2368.659014,-9193.145976
903.198913,-2146.597232,2590.720797,-10878.556072
903.199233,-666.185348,740.205942,-9499.584175
903.199552,740.205942,-518.144159,-9652.803275
903.199872,592.164754,-1554.432478,-10495.508323
903.200192,-444.123565,-2738.761985,-8427.050478
903.200512,-1332.370696,-1332.370696,-9806.022374
903.200832,0.000000,-740.205942,-10112.460574
903.201152,3552.988522,296.082377,-8810.098227
903.201472,2886.803174,1406.391290,-11951.089769
903.201792,2294.638420,814.226536,-10189.070123
903.202112,1036.288319,962.267725,-10189.070123
903.202432,2368.659014,1776.494261,-11721.261119
903.202752,4071.132681,2368.659014,-9193.145976
903.203072,740.205942,1702.473667,-11184.994271
903.203392,-370.102971,-518.144159,-10878.556072
903.203712,-1480.411884,-1776.494261,-9499.584175
903.204032,-2368.659014,-740.205942,-12104.308868
903.204352,-222.061783,0.000000,-10572.117872
903.204672,1406.391290,-148.041188,-9729.412825
903.204992,2738.761985,222.061783,-11414.822920
903.205312,2442.679609,74.020594,-9882.631924
903.205632,2442.679609,1702.473667,-11644.651570
903.205952,1998.556043,2664.741391,-11108.384721
903.206272,2738.761985,3701.029710,-9959.241474
903.206592,2516.700203,4441.235652,-11261.603821
903.206912,3182.885551,1998.556043,-10189.070123
903.207231,2368.659014,-370.102971,-8886.707777
903.207551,-296.082377,-2886.803174,-9959.241474
903.207871,-962.267725,-4737.318029,-8810.098227
903.208191,518.144159,-3775.050304,-9499.584175
903.208511,148.041188,-814.226536,-10035.851024
903.208831,0.000000,444.123565,-9039.926876
903.209151,-2590.720797,1184.329507,-9729.412825
903.209471,-2072.576638,444.123565,-9576.193725
903.209791,74.020594,74.020594,-8810.098227
903.210111,2664.741391,222.061783,-11031.775171
903.210431,3182.885551,-444.123565,-10035.851024
903.210751,1110.308913,-444.123565,-9806.022374
903.211071,-2146.597232,-814.226536,-10725.336972
903.211391,-1184.329507,-1332.370696,-8963.317327
903.211711,-1998.556043,518.144159,-10265.679673
903.212031,-740.205942,0.000000,-10955.165621
903.212351,-1628.453072,-518.144159,-9652.803275
903.212671,-2368.659014,-518.144159,-10801.946522
903.212991,-1184.329507,-1554.432478,-9729.412825
903.213311,444.123565,0.000000,-9882.631924
903.213631,2368.659014,962.267725,-11568.042020
903.213951,2368.659014,1628.453072,-10189.070123
903.214271,962.267725,2516.700203,-10725.336972
903.214591,-1332.370696,2146.597232,-10955.165621
903.214911,-888.247130,740.205942,-9346.365076
903.215230,-888.247130,148.041188,-10955.165621
903.215550,0.000000,-666.185348,-10265.679673
903.215870,-814.226536,-444.123565,-9269.755526
