#time,accel_x,accel_y,accel_z
836.192439,888.247130,-296.082377,-10342.289223
836.192759,592.164754,222.061783,-9806.022374
836.193080,444.123565,296.082377,-9882.631924
836.193400,296.082377,592.164754,-10265.679673
836.193720,148.041188,666.185348,-10035.851024
836.194040,222.061783,370.102971,-10418.898773
836.194360,518.144159,518.144159,-10265.679673
836.194681,666.185348,0.000000,-10035.851024
836.195001,740.205942,0.000000,-10265.679673
836.195321,518.144159,592.164754,-10112.460574
836.195641,814.226536,666.185348,-9959.241474
836.195961,370.102971,592.164754,-10189.070123
836.196281,222.061783,222.061783,-9959.241474
836.196602,222.061783,0.000000,-9882.631924
836.196922,518.144159,222.061783,-9806.022374
836.197242,814.226536,370.102971,-9806.022374
836.197562,1110.308913,518.144159,-10189.070123
836.197882,888.247130,296.082377,-10265.679673
836.198202,148.041188,148.041188,-10189.070123
836.198523,296.082377,148.041188,-9346.365076
836.198843,444.123565,0.000000,-9806.022374
836.199163,518.144159,-148.041188,-9882.631924
836.199483,0.000000,148.041188,-9882.631924
836.199803,296.082377,518.144159,-10035.851024
836.200124,518.144159,962.267725,-9959.241474
836.200444,888.247130,888.247130,-10189.070123
836.200764,148.041188,0.000000,-9959.241474
836.201084,0.000000,-370.102971,-10342.289223
836.201404,740.205942,-1110.308913,-9806.022374
836.201724,814.226536,0.000000,-9959.241474
836.202045,148.041188,222.061783,-10189.070123
836.202365,-740.205942,222.061783,-9882.631924
836.202685,-666.185348,222.061783,-9806.022374
836.203005,-148.041188,-518.144159,-9729.412825
836.203325,0.000000,-740.205942,-10342.289223
836.203646,-666.185348,-518.144159,-10265.679673
836.203966,-444.123565,-296.082377,-10265.679673
836.204286,0.000000,74.020594,-9959.241474
836.204606,-666.185348,74.020594,-10189.070123
836.204926,-1036.288319,-518.144159,-10112.460574
836.205246,-814.226536,-1258.350101,-10112.460574
836.205567,-444.123565,-1480.411884,-9959.241474
836.205887,-1036.288319,-1184.329507,-9959.241474
836.206207,-1850.514855,-1258.350101,-10112.460574
836.206527,-1850.514855,-888.247130,-9959.241474
836.206847,-888.247130,-666.185348,-9959.241474
836.207168,-592.164754,74.020594,-11108.384721
836.207488,-1776.494261,-740.205942,-10112.460574
836.207808,-1702.473667,-962.267725,-9959.241474
836.208128,-666.185348,-1406.391290,-10035.851024
836.208448,148.041188,-814.226536,-10725.336972
836.208768,-888.247130,-1110.308913,-10189.070123
836.209089,-2886.803174,-1924.535449,-10342.289223
836.209409,-3478.967927,-2220.617826,-9806.022374
836.209729,-2886.803174,-2442.679609,-9652.803275
836.210049,-2220.617826,-2738.761985,-9806.022374
836.210369,-2368.659014,-2812.782580,-9806.022374
836.210689,-2590.720797,-3330.926739,-9576.193725
836.211010,-1406.391290,-3775.050304,-9499.584175
836.211330,740.205942,-3627.009116,-9652.803275
836.211650,1332.370696,-2516.700203,-10112.460574
836.211970,0.000000,-2146.597232,-10035.851024
836.212290,-1554.432478,-2516.700203,-10112.460574
836.212611,-2516.700203,-2516.700203,-9652.803275
836.212931,-3034.844362,-3404.947333,-10189.070123
836.213251,-4737.318029,-3849.070898,-9882.631924
836.213571,-5329.482782,-4885.359217,-9652.803275
836.213891,-3997.112087,-6069.688724,-9499.584175
836.214211,-1184.329507,-6217.729913,-10878.556072
836.214532,962.267725,-5255.462188,-9959.241474
836.214852,1110.308913,-2294.638420,-10342.289223
836.215172,1332.370696,518.144159,-10801.946522
836.215492,1702.473667,1628.453072,-10265.679673
836.215812,1998.556043,1110.308913,-10878.556072
836.216133,1036.288319,-666.185348,-10801.946522
836.216453,-592.164754,-2886.803174,-10648.727422
836.216773,-2368.659014,-4441.235652,-10265.679673
836.217093,-4737.318029,-4293.194464,-10418.898773
836.217413,-5477.523971,-4219.173869,-9806.022374
836.217733,-5551.544565,-4145.153275,-9576.193725
836.218054,-3256.906145,-4811.338623,-9576.193725
836.218374,222.061783,-5033.400406,-9806.022374
836.218694,1776.494261,-3478.967927,-10265.679673
836.219014,2664.741391,-1258.350101,-10189.070123
836.219334,3775.050304,814.226536,-10265.679673
836.219655,4145.153275,2220.617826,-10801.946522
836.219975,2220.617826,1702.473667,-11031.775171
836.220295,-2146.597232,-518.144159,-10342.289223
836.220615,-5921.647536,-3330.926739,-9729.412825
836.220935,-6587.832884,-5699.585753,-9193.145976
836.221255,-5773.606348,-7476.080014,-9193.145976
836.221576,-4663.297435,-7402.059420,-8963.317327
836.221896,-3849.070898,-6069.688724,-9116.536426
836.222216,-1480.411884,-3256.906145,-9269.755526
836.222536,1332.370696,0.000000,-10189.070123
836.222856,2368.659014,2442.679609,-11184.994271
836.223176,1998.556043,2590.720797,-10572.117872
836.223497,2516.700203,1776.494261,-10189.070123
836.223817,2812.782580,888.247130,-10725.336972
836.224137,962.267725,296.082377,-11644.651570
836.224457,-2294.638420,222.061783,-10572.117872
836.224777,-4737.318029,-962.267725,-10112.460574
836.225098,-5847.626942,-2146.597232,-10112.460574
836.225418,-7402.059420,-3478.967927,-9116.536426
836.225738,-7994.224174,-4811.338623,-9729.412825
836.226058,-5477.523971,-4959.379811,-9499.584175
836.226378,-1554.432478,-3627.009116,-10265.679673
836.226698,2590.720797,-222.061783,-10265.679673
836.227019,2960.823768,2590.720797,-10801.946522
836.227339,2294.638420,4145.153275,-10801.946522
836.227659,1554.432478,4737.318029,-10801.946522
836.227979,1776.494261,3627.009116,-11184.994271
836.228299,1036.288319,1036.288319,-10572.117872
836.228620,-1554.432478,-2442.679609,-10572.117872
836.228940,-4885.359217,-5699.585753,-9806.022374
836.229260,-7328.038826,-5033.400406,-9193.145976
836.229580,-8364.327145,-3997.112087,-9346.365076
836.229900,-6883.915261,-2590.720797,-9422.974625
836.230220,-2738.761985,-3478.967927,-8963.317327
836.230541,1702.473667,-2738.761985,-9882.631924
836.230861,3627.009116,-1258.350101,-10265.679673
836.231181,3404.947333,-592.164754,-10572.117872
836.231501,3404.947333,1406.391290,-10035.851024
836.231821,3182.885551,3627.009116,-10189.070123
836.232142,2590.720797,2960.823768,-10725.336972
836.232462,-370.102971,592.164754,-10189.070123
836.232782,-4589.276840,-2368.659014,-9806.022374
836.233102,-6957.935855,-4959.379811,-9576.193725
836.233422,-6587.832884,-6291.750507,-9422.974625
836.233742,-4811.338623,-7550.100608,-9269.755526
836.234063,-4219.173869,-7920.203579,-8963.317327
836.234383,-3849.070898,-6883.915261,-9193.145976
836.234703,-1332.370696,-3627.009116,-9576.193725
836.235023,3108.864956,0.000000,-10342.289223
836.235343,6439.791695,3849.070898,-11721.261119
836.235664,5699.585753,4663.297435,-11874.480219
836.235984,2146.597232,2960.823768,-11491.432470
836.236304,-1406.391290,444.123565,-10495.508323
836.236624,-2812.782580,-2368.659014,-10418.898773
836.236944,-3108.864956,-4663.297435,-10418.898773
836.237264,-5995.668130,-5403.503377,-10112.460574
836.237585,-8290.306550,-7105.977043,-9652.803275
836.237905,-7031.956449,-7031.956449,-9039.926876
836.238225,-3108.864956,-5477.523971,-9882.631924
836.238545,-888.247130,-3478.967927,-10112.460574
836.238865,-1184.329507,-296.082377,-10265.679673
836.239185,-592.164754,888.247130,-10035.851024
836.239506,2960.823768,2146.597232,-10189.070123
836.239826,4885.359217,1924.535449,-10725.336972
836.240146,3997.112087,1628.453072,-11031.775171
836.240466,1184.329507,-962.267725,-10418.898773
836.240786,-1702.473667,-1628.453072,-9882.631924
836.241107,-3404.947333,-2886.803174,-10112.460574
836.241427,-5921.647536,-4071.132681,-9499.584175
836.241747,-7031.956449,-5329.482782,-9039.926876
836.242067,-5477.523971,-5773.606348,-8810.098227
836.242387,-2960.823768,-4441.235652,-9193.145976
836.242707,-444.123565,-1850.514855,-8810.098227
836.243028,2220.617826,740.205942,-9882.631924
836.243348,5255.462188,2220.617826,-10725.336972
836.243668,6143.709319,4441.235652,-11031.775171
836.243988,2516.700203,4367.215058,-11031.775171
836.244308,222.061783,3256.906145,-10342.289223
836.244629,962.267725,740.205942,-10572.117872
836.244949,2294.638420,-2368.659014,-10112.460574
836.245269,-740.205942,-3701.029710,-10342.289223
836.245589,-3552.988522,-5255.462188,-9193.145976
836.245909,-3849.070898,-4145.153275,-9422.974625
836.246229,-1480.411884,-1776.494261,-10418.898773
836.246550,-814.226536,592.164754,-9882.631924
836.246870,-814.226536,1036.288319,-9959.241474
836.247190,1702.473667,-148.041188,-9346.365076
836.247510,5773.606348,1110.308913,-10189.070123
836.247830,7550.100608,3775.050304,-11108.384721
836.248151,4959.379811,4145.153275,-10955.165621
836.248471,2516.700203,2738.761985,-10495.508323
836.248791,518.144159,1776.494261,-10801.946522
836.249111,-2294.638420,0.000000,-10035.851024
836.249431,-3701.029710,-592.164754,-9806.022374
836.249751,-5477.523971,-2294.638420,-9269.755526
836.250033,-3923.091493,-3701.029710,-9729.412825
836.250353,-962.267725,-3182.885551,-8963.317327
836.250673,2294.638420,-518.144159,-9959.241474
836.250993,3849.070898,1850.514855,-10265.679673
836.251313,3182.885551,3923.091493,-10725.336972
836.251633,1406.391290,4219.173869,-10725.336972
836.251953,1702.473667,4663.297435,-10035.851024
836.252273,2294.638420,3701.029710,-10648.727422
836.252594,2590.720797,2738.761985,-10572.117872
836.252914,1332.370696,1554.432478,-10189.070123
836.253234,-296.082377,444.123565,-10342.289223
836.253554,-1406.391290,-1110.308913,-9882.631924
836.253874,-3034.844362,-1776.494261,-9729.412825
836.254194,-3849.070898,-3108.864956,-9116.536426
836.254514,-1776.494261,-3775.050304,-9116.536426
836.254834,518.144159,-1998.556043,-9806.022374
836.255154,1998.556043,0.000000,-10112.460574
836.255474,3108.864956,2812.782580,-9116.536426
836.255794,3034.844362,5255.462188,-10878.556072
836.256114,2886.803174,6217.729913,-11031.775171
836.256434,3108.864956,5329.482782,-11261.603821
836.256755,1998.556043,2590.720797,-10878.556072
836.257075,1036.288319,-1628.453072,-9806.022374
836.257395,-740.205942,-3997.112087,-9806.022374
836.257715,-2960.823768,-4811.338623,-9269.755526
836.258035,-3478.967927,-3997.112087,-8886.707777
836.258355,-1998.556043,-1184.329507,-9729.412825
836.258675,-1850.514855,1258.350101,-10112.460574
836.258995,1776.494261,1628.453072,-10189.070123
836.259315,1332.370696,888.247130,-10342.289223
836.259635,2146.597232,740.205942,-9729.412825
836.259955,3330.926739,0.000000,-10265.679673
836.260275,4885.359217,296.082377,-10342.289223
836.260595,3108.864956,444.123565,-10189.070123
836.260916,-814.226536,148.041188,-10265.679673
836.261236,-3849.070898,518.144159,-10265.679673
836.261556,-3182.885551,-1036.288319,-9576.193725
836.261876,-1702.473667,-2072.576638,-10648.727422
836.262196,-1332.370696,-4145.153275,-9806.022374
836.262516,-1924.535449,-5477.523971,-9422.974625
836.262836,-1702.473667,-2294.638420,-10112.460574
836.263156,-1702.473667,888.247130,-10265.679673
836.263476,222.061783,4293.194464,-10878.556072
836.263796,1998.556043,4145.153275,-10418.898773
836.264116,4811.338623,2738.761985,-11108.384721
836.264436,4367.215058,74.020594,-11261.603821
836.264757,2294.638420,-1628.453072,-11108.384721
836.265077,518.144159,-2886.803174,-10035.851024
836.265397,-666.185348,-2146.597232,-9959.241474
836.265717,-2812.782580,-888.247130,-10342.289223
836.266037,-3923.091493,-370.102971,-9729.412825
836.266357,-3404.947333,-888.247130,-9882.631924
836.266677,-2146.597232,-888.247130,-9346.365076
836.266997,962.267725,-2220.617826,-9499.584175
836.267317,4293.194464,-444.123565,-9806.022374
836.267637,4811.338623,296.082377,-9806.022374
836.267957,3997.112087,518.144159,-10112.460574
836.268277,2812.782580,2812.782580,-9193.145976
836.268597,1036.288319,2442.679609,-9959.241474
836.268918,2220.617826,1628.453072,-9729.412825
836.269238,2368.659014,0.000000,-10189.070123
836.269558,1554.432478,-1776.494261,-9729.412825
836.269878,1184.329507,-2812.782580,-9039.926876
836.270198,888.247130,-2368.659014,-9576.193725
836.270518,296.082377,-592.164754,-10265.679673
836.270838,148.041188,666.185348,-9039.926876
836.271158,-296.082377,1554.432478,-10035.851024
836.271478,2220.617826,814.226536,-9959.241474
836.271798,2738.761985,-222.061783,-10648.727422
836.272118,2368.659014,-518.144159,-10495.508323
836.272438,2146.597232,740.205942,-10572.117872
836.272758,1628.453072,3108.864956,-11031.775171
836.273079,-1110.308913,4071.132681,-10878.556072
836.273399,-2368.659014,2960.823768,-10572.117872
836.273719,-2368.659014,-222.061783,-10189.070123
836.274039,-2442.679609,-2442.679609,-10495.508323
836.274359,-2368.659014,-4737.318029,-9806.022374
836.274679,-2146.597232,-3478.967927,-9882.631924
836.274999,-444.123565,-370.102971,-9806.022374
836.275319,148.041188,2442.679609,-10495.508323
836.275639,1332.370696,4811.338623,-10265.679673
836.275959,370.102971,5773.606348,-10418.898773
836.276279,1258.350101,3775.050304,-11108.384721
836.276599,1554.432478,-1036.288319,-10495.508323
836.276920,1628.453072,-2072.576638,-9729.412825
836.277240,-296.082377,-1480.411884,-9346.365076
836.277560,-1184.329507,-1110.308913,-9882.631924
836.277880,-3404.947333,518.144159,-9576.193725
836.278200,-4367.215058,518.144159,-8886.707777
836.278520,-2738.761985,740.205942,-9576.193725
836.278840,-296.082377,1036.288319,-9882.631924
836.279160,1036.288319,296.082377,-10035.851024
836.279480,1554.432478,-2220.617826,-9652.803275
836.279800,2294.638420,-1406.391290,-9499.584175
836.280120,2886.803174,1184.329507,-10112.460574
836.280440,2664.741391,3330.926739,-10189.070123
836.280760,3330.926739,3182.885551,-10112.460574
836.281081,2368.659014,1998.556043,-10342.289223
836.281401,2072.576638,1036.288319,-11031.775171
836.281721,222.061783,0.000000,-10418.898773
836.282041,-222.061783,-1184.329507,-10418.898773
836.282361,-1184.329507,-1628.453072,-10189.070123
836.282681,-3034.844362,-1628.453072,-9806.022374
836.283001,-2368.659014,-1258.350101,-9652.803275
836.283321,74.020594,-1110.308913,-9422.974625
836.283641,2664.741391,0.000000,-10648.727422
836.283961,3034.844362,666.185348,-10495.508323
836.284281,3478.967927,666.185348,-10801.946522
836.284601,3627.009116,2590.720797,-10725.336972
836.284921,2368.659014,3256.906145,-10878.556072
836.285242,962.267725,3701.029710,-10572.117872
836.285562,0.000000,1480.411884,-9959.241474
836.285882,-1036.288319,-1776.494261,-9882.631924
836.286202,-296.082377,-3627.009116,-9806.022374
836.286522,-296.082377,-3701.029710,-9499.584175
836.286842,-1776.494261,-3108.864956,-8963.317327
836.287162,-888.247130,-1258.350101,-9806.022374
836.287482,-148.041188,1702.473667,-9806.022374
836.287802,-148.041188,3478.967927,-10189.070123
836.288122,888.247130,3256.906145,-9193.145976
836.288442,1184.329507,2220.617826,-10112.460574
836.288762,1258.350101,666.185348,-10495.508323
836.289082,1628.453072,-296.082377,-10189.070123
836.289403,1258.350101,-1850.514855,-9729.412825
836.289723,-1184.329507,-1184.329507,-10189.070123
836.290043,-2738.761985,1036.288319,-9806.022374
836.290363,-3627.009116,1628.453072,-9882.631924
836.290683,-1554.432478,814.226536,-10342.289223
836.291003,222.061783,-888.247130,-10112.460574
836.291323,1628.453072,-2368.659014,-10112.460574
836.291643,2368.659014,-888.247130,-10035.851024
836.291963,2220.617826,370.102971,-10418.898773
836.292283,2516.700203,2516.700203,-10878.556072
836.292603,148.041188,3923.091493,-10265.679673
836.292923,1554.432478,3552.988522,-10265.679673
836.293244,2960.823768,1406.391290,-10801.946522
836.293564,2442.679609,-1332.370696,-10572.117872
836.293884,962.267725,-2812.782580,-9346.365076
836.294204,-1036.288319,-1480.411884,-10189.070123
836.294524,-1184.329507,74.020594,-9806.022374
836.294844,-1110.308913,1332.370696,-9576.193725
836.295164,370.102971,1480.411884,-9806.022374
836.295484,2368.659014,2146.597232,-10265.679673
836.295804,2738.761985,1184.329507,-10342.289223
836.296124,5329.482782,444.123565,-9959.241474
836.296444,6143.709319,518.144159,-9959.241474
836.296764,4145.153275,2072.576638,-11414.822920
836.297084,666.185348,2294.638420,-10112.460574
836.297405,-1480.411884,1702.473667,-9806.022374
836.297725,-1036.288319,370.102971,-9499.584175
836.298045,148.041188,-962.267725,-9959.241474
836.298365,222.061783,-1998.556043,-10265.679673
836.298685,0.000000,-2442.679609,-9499.584175
836.299005,74.020594,-2220.617826,-9882.631924
836.299325,-814.226536,-740.205942,-9652.803275
836.299645,-1110.308913,1406.391290,-9729.412825
836.299965,0.000000,2886.803174,-9882.631924
836.300285,1998.556043,2886.803174,-10495.508323
836.300605,3923.091493,962.267725,-10955.165621
836.300925,3552.988522,-296.082377,-10878.556072
836.301245,2146.597232,-222.061783,-10265.679673
836.301566,0.000000,148.041188,-10878.556072
836.301886,-2294.638420,888.247130,-10342.289223
836.302206,-3627.009116,1258.350101,-10035.851024
836.302526,-3330.926739,1480.411884,-10725.336972
836.302846,-1998.556043,-518.144159,-10572.117872
836.303166,-1110.308913,-1702.473667,-10725.336972
836.303486,222.061783,-1702.473667,-10112.460574
836.303806,1776.494261,-222.061783,-10035.851024
836.304126,2368.659014,2220.617826,-10495.508323
836.304446,1850.514855,3404.947333,-10495.508323
836.304766,444.123565,2590.720797,-10265.679673
836.305086,0.000000,1628.453072,-10725.336972
836.305407,-148.041188,370.102971,-10342.289223
836.305727,296.082377,-814.226536,-9806.022374
836.306047,74.020594,-1332.370696,-10189.070123
836.306367,-1258.350101,-962.267725,-10189.070123
836.306687,-2664.741391,-148.041188,-9422.974625
836.307007,-2072.576638,-222.061783,-9652.803275
836.307327,222.061783,-888.247130,-9882.631924
836.307647,1110.308913,-1998.556043,-9959.241474
836.307967,1110.308913,-1850.514855,-9346.365076
836.308287,1480.411884,-222.061783,-9269.755526
836.308607,1776.494261,2220.617826,-10342.289223
836.308927,2072.576638,2368.659014,-10265.679673
836.309247,592.164754,592.164754,-9959.241474
836.309568,1480.411884,-444.123565,-9116.536426
836.309888,296.082377,-2072.576638,-9499.584175
836.310208,592.164754,-2072.576638,-10189.070123
836.310528,-148.041188,-1998.556043,-9806.022374
836.310848,-1184.329507,-814.226536,-9959.241474
836.311168,-1036.288319,666.185348,-9959.241474
836.311488,-444.123565,1110.308913,-10112.460574
836.311808,-666.185348,814.226536,-10035.851024
836.312128,1110.308913,-296.082377,-10189.070123
836.312448,518.144159,1184.329507,-10265.679673
836.312768,2146.597232,888.247130,-10955.165621
836.313088,2812.782580,370.102971,-9806.022374
836.313408,1628.453072,370.102971,-10342.289223
836.313729,1628.453072,740.205942,-10725.336972
836.314049,0.000000,1628.453072,-10342.289223
836.314369,1036.288319,666.185348,-10725.336972
836.314689,814.226536,-518.144159,-10112.460574
836.315009,1184.329507,666.185348,-10725.336972
836.315329,814.226536,1628.453072,-10801.946522
836.315649,444.123565,592.164754,-10265.679673
836.315969,518.144159,1998.556043,-10189.070123
836.316289,0.000000,1628.453072,-10418.898773
836.316609,1924.535449,2960.823768,-9346.365076
836.316929,2960.823768,1628.453072,-10725.336972
836.317249,2812.782580,1258.350101,-10418.898773
836.317569,962.267725,148.041188,-10189.070123
836.317890,-888.247130,296.082377,-9116.536426
836.318210,-740.205942,1480.411884,-9269.755526
836.318530,-962.267725,2886.803174,-9652.803275
836.318850,-1110.308913,3330.926739,-10189.070123
836.319170,888.247130,888.247130,-10189.070123
836.319490,3404.947333,222.061783,-9576.193725
836.319810,2220.617826,-1554.432478,-10035.851024
836.320130,962.267725,-2220.617826,-9422.974625
836.320450,740.205942,74.020594,-10112.460574
836.320770,1036.288319,2072.576638,-10418.898773
836.321090,814.226536,3775.050304,-9882.631924
836.321410,0.000000,1924.535449,-9882.631924
836.321731,148.041188,296.082377,-9806.022374
836.322051,-296.082377,-2146.597232,-9576.193725
836.322371,-1406.391290,-2516.700203,-9959.241474
836.322691,-1850.514855,-888.247130,-9576.193725
836.323011,-1258.350101,74.020594,-10495.508323
836.323331,-222.061783,296.082377,-10418.898773
836.323651,0.000000,1258.350101,-9882.631924
836.323971,888.247130,1406.391290,-10189.070123
836.324291,2442.679609,1480.411884,-10265.679673
836.324611,2294.638420,1184.329507,-10725.336972
836.324931,1332.370696,666.185348,-10189.070123
836.325251,1850.514855,-518.144159,-9652.803275
836.325571,296.082377,370.102971,-10495.508323
836.325892,-1332.370696,592.164754,-10112.460574
836.326212,-962.267725,-148.041188,-10342.289223
836.326532,0.000000,1258.350101,-10112.460574
836.326852,222.061783,1924.535449,-10801.946522
836.327172,740.205942,1332.370696,-10648.727422
836.327492,1406.391290,74.020594,-9959.241474
836.327812,1406.391290,-666.185348,-9806.022374
836.328132,370.102971,-1036.288319,-10189.070123
836.328452,814.226536,592.164754,-9806.022374
836.328772,1554.432478,962.267725,-9652.803275
836.329092,2368.659014,-222.061783,-10112.460574
836.329412,2368.659014,296.082377,-9806.022374
836.329732,1628.453072,-888.247130,-9806.022374
836.330053,1702.473667,-1258.350101,-10265.679673
836.330373,1110.308913,888.247130,-10265.679673
836.330693,-1850.514855,814.226536,-9806.022374
836.331013,-1776.494261,1332.370696,-10189.070123
836.331333,-1406.391290,-444.123565,-9576.193725
836.331653,1258.350101,-740.205942,-10648.727422
836.331973,370.102971,-1702.473667,-10112.460574
836.332293,1332.370696,-814.226536,-10189.070123
836.332613,2072.576638,1554.432478,-10265.679673
836.332933,1184.329507,3552.988522,-11261.603821
836.333253,666.185348,3330.926739,-10035.851024
836.333573,-1184.329507,2368.659014,-10265.679673
836.333894,-2368.659014,1702.473667,-10955.165621
836.334214,-1554.432478,-740.205942,-9959.241474
836.334534,-370.102971,-1036.288319,-10112.460574
836.334854,-148.041188,0.000000,-10342.289223
836.335174,148.041188,962.267725,-10342.289223
836.335494,-296.082377,1110.308913,-10189.070123
836.335814,-222.061783,1036.288319,-9959.241474
836.336134,1628.453072,962.267725,-10495.508323
836.336454,814.226536,-444.123565,-10035.851024
836.336774,592.164754,-222.061783,-9882.631924
836.337094,1924.535449,1554.432478,-10189.070123
836.337414,1998.556043,3404.947333,-10725.336972
836.337734,-296.082377,4219.173869,-10572.117872
836.338055,-814.226536,1924.535449,-9499.584175
836.338375,518.144159,518.144159,-9806.022374
836.338695,296.082377,-740.205942,-9882.631924
836.339015,2146.597232,-1332.370696,-9499.584175
836.339335,888.247130,-740.205942,-9576.193725
836.339655,1702.473667,-1110.308913,-10189.070123
836.339975,1850.514855,518.144159,-9806.022374
836.340295,-222.061783,814.226536,-9499.584175
836.340615,666.185348,1702.473667,-9576.193725
836.340935,1406.391290,1184.329507,-9882.631924
836.341255,2368.659014,2220.617826,-10112.460574
836.341575,2442.679609,888.247130,-10112.460574
836.341895,2146.597232,-370.102971,-9959.241474
836.342216,-444.123565,-740.205942,-9729.412825
836.342536,-1406.391290,148.041188,-9959.241474
836.342856,-1850.514855,592.164754,-9806.022374
836.343176,-444.123565,518.144159,-9576.193725
836.343496,1554.432478,74.020594,-10265.679673
836.343816,2072.576638,-814.226536,-9882.631924
836.344136,2294.638420,2294.638420,-10189.070123
836.344456,1924.535449,1924.535449,-10801.946522
836.344776,0.000000,740.205942,-10495.508323
836.345096,-370.102971,1850.514855,-10725.336972
836.345416,-1332.370696,148.041188,-9806.022374
836.345736,222.061783,-518.144159,-10878.556072
836.346056,2146.597232,-370.102971,-10418.898773
836.346377,370.102971,-666.185348,-10648.727422
836.346697,-148.041188,222.061783,-10112.460574
836.347017,0.000000,1036.288319,-10801.946522
836.347337,-296.082377,592.164754,-10418.898773
836.347657,-1110.308913,74.020594,-9959.241474
836.347977,222.061783,-740.205942,-9193.145976
836.348297,1480.411884,-1480.411884,-10418.898773
836.348617,370.102971,-1110.308913,-10572.117872
836.348937,296.082377,222.061783,-9806.022374
836.349257,592.164754,1776.494261,-10265.679673
836.349577,888.247130,1406.391290,-9806.022374
836.349897,1036.288319,1258.350101,-10189.070123
836.350217,1036.288319,-592.164754,-9346.365076
836.350537,2442.679609,-1332.370696,-10112.460574
836.350857,962.267725,-1702.473667,-10878.556072
836.351177,-740.205942,-2516.700203,-9652.803275
836.351497,-888.247130,-888.247130,-8886.707777
836.351817,-518.144159,814.226536,-10265.679673
836.352137,592.164754,2146.597232,-9806.022374
836.352457,666.185348,2294.638420,-10342.289223
836.352777,1924.535449,148.041188,-10189.070123
836.353097,3627.009116,0.000000,-10572.117872
836.353417,2220.617826,-1036.288319,-9959.241474
836.353736,592.164754,-296.082377,-10112.460574
836.354056,-888.247130,222.061783,-10189.070123
836.354376,-1332.370696,1998.556043,-10725.336972
836.354696,-1628.453072,1776.494261,-10265.679673
836.355016,-1184.329507,1036.288319,-9422.974625
836.355336,-444.123565,-296.082377,-10342.289223
836.355656,74.020594,-1628.453072,-10418.898773
836.355976,0.000000,-2146.597232,-9959.241474
836.356296,-148.041188,-1406.391290,-10265.679673
836.356616,-1406.391290,888.247130,-10035.851024
836.356936,-222.061783,2294.638420,-11108.384721
836.357256,-962.267725,2590.720797,-10495.508323
836.357576,-296.082377,3256.906145,-11031.775171
836.357896,2072.576638,2960.823768,-10878.556072
836.358216,1480.411884,1776.494261,-11108.384721
836.358536,444.123565,444.123565,-9422.974625
836.358856,370.102971,0.000000,-10342.289223
836.359176,-370.102971,-444.123565,-9576.193725
836.359496,-1332.370696,0.000000,-9729.412825
836.359816,-666.185348,-1554.432478,-9346.365076
836.360135,1332.370696,-1702.473667,-9422.974625
836.360455,2220.617826,-1258.350101,-9959.241474
836.360775,1850.514855,0.000000,-9346.365076
836.361095,370.102971,2146.597232,-9576.193725
836.361415,1036.288319,2368.659014,-10265.679673
836.361735,1110.308913,1480.411884,-9576.193725
836.362055,1110.308913,-444.123565,-9499.584175
836.362375,1110.308913,-1036.288319,-9806.022374
836.362695,888.247130,-2146.597232,-9576.193725
836.363015,222.061783,-1776.494261,-10112.460574
836.363335,-370.102971,296.082377,-9422.974625
836.363655,1258.350101,1998.556043,-9806.022374
836.363975,2442.679609,3997.112087,-10342.289223
836.364295,1998.556043,3404.947333,-10648.727422
836.364615,1850.514855,1998.556043,-10572.117872
836.364935,1628.453072,-740.205942,-10572.117872
836.365255,1924.535449,-1110.308913,-10342.289223
836.365575,962.267725,-370.102971,-10265.679673
836.365895,444.123565,2072.576638,-10878.556072
836.366215,888.247130,3997.112087,-10878.556072
836.366534,-740.205942,4441.235652,-10725.336972
836.366854,-370.102971,2590.720797,-10342.289223
836.367174,518.144159,296.082377,-10112.460574
836.367494,1184.329507,-1998.556043,-10342.289223
836.367814,1406.391290,-2886.803174,-10418.898773
836.368134,1332.370696,-1554.432478,-10189.070123
836.368454,74.020594,1184.329507,-10418.898773
836.368774,-666.185348,2664.741391,-10572.117872
836.369094,-518.144159,2812.782580,-10112.460574
836.369414,518.144159,2886.803174,-9882.631924
836.369734,1480.411884,962.267725,-10342.289223
836.370054,1628.453072,-1554.432478,-10035.851024
836.370374,-740.205942,-2886.803174,-9193.145976
836.370694,-2146.597232,-3701.029710,-8120.612279
836.371014,-1184.329507,-2442.679609,-9576.193725
836.371334,-1184.329507,-1184.329507,-9499.584175
836.371654,-518.144159,0.000000,-9269.755526
836.371974,962.267725,0.000000,-9729.412825
836.372294,2516.700203,-740.205942,-9499.584175
836.372614,2368.659014,-1554.432478,-9806.022374
836.372933,1110.308913,-1332.370696,-9499.584175
836.373253,370.102971,-518.144159,-9959.241474
836.373573,-962.267725,74.020594,-9729.412825
836.373893,-2368.659014,-148.041188,-10265.679673
836.374213,-1628.453072,-666.185348,-9652.803275
836.374533,444.123565,-1110.308913,-10495.508323
836.374853,444.123565,-148.041188,-11108.384721
836.375173,814.226536,0.000000,-10112.460574
836.375493,666.185348,962.267725,-10878.556072
836.375813,814.226536,1628.453072,-10801.946522
836.376133,1036.288319,1036.288319,-10495.508323
836.376453,592.164754,74.020594,-10495.508323
836.376773,1184.329507,-962.267725,-10265.679673
836.377093,2220.617826,-1554.432478,-10878.556072
836.377413,296.082377,-888.247130,-10495.508323
836.377733,296.082377,-518.144159,-10189.070123
836.378053,148.041188,444.123565,-10495.508323
836.378373,-592.164754,740.205942,-10265.679673
836.378693,-814.226536,518.144159,-10342.289223
836.379013,-296.082377,-444.123565,-9729.412825
836.379332,1036.288319,-1258.350101,-9806.022374
836.379652,0.000000,-2590.720797,-10035.851024
836.379972,-222.061783,-2294.638420,-9576.193725
836.380292,-296.082377,-1480.411884,-9346.365076
836.380612,962.267725,1110.308913,-9729.412825
836.380932,1554.432478,2294.638420,-9806.022374
836.381252,1332.370696,1406.391290,-9806.022374
836.381572,1110.308913,1036.288319,-10189.070123
836.381892,370.102971,0.000000,-10189.070123
836.382212,-1332.370696,-1036.288319,-8886.707777
836.382532,-1332.370696,-1036.288319,-9499.584175
836.382852,1036.288319,-1332.370696,-9652.803275
836.383172,814.226536,0.000000,-10265.679673
836.383492,0.000000,2072.576638,-10265.679673
836.383812,-740.205942,2442.679609,-9729.412825
836.384132,-296.082377,2812.782580,-10955.165621
836.384452,1850.514855,1850.514855,-10725.336972
836.384772,1628.453072,592.164754,-10495.508323
836.385092,0.000000,1036.288319,-9729.412825
836.385412,0.000000,1184.329507,-10495.508323
836.385731,0.000000,2442.679609,-10418.898773
836.386051,444.123565,2886.803174,-10572.117872
836.386371,3108.864956,2368.659014,-10648.727422
836.386691,3849.070898,1332.370696,-10955.165621
836.387011,1406.391290,-518.144159,-10342.289223
836.387331,74.020594,0.000000,-10189.070123
836.387651,-370.102971,2294.638420,-10418.898773
836.387971,-1184.329507,4145.153275,-10342.289223
836.388291,518.144159,3849.070898,-10725.336972
836.388611,888.247130,1110.308913,-10265.679673
836.388931,2664.741391,-518.144159,-10725.336972
836.389251,2442.679609,-1702.473667,-10112.460574
836.389571,1332.370696,-1184.329507,-9729.412825
836.389891,444.123565,888.247130,-9806.022374
836.390211,370.102971,1702.473667,-9959.241474
836.390531,370.102971,1924.535449,-9806.022374
836.390851,518.144159,962.267725,-9499.584175
836.391171,1776.494261,-592.164754,-9652.803275
836.391491,2368.659014,-518.144159,-10035.851024
836.391811,2294.638420,-1702.473667,-9806.022374
836.392130,962.267725,-740.205942,-9193.145976
836.392450,-592.164754,518.144159,-9576.193725
836.392770,-1332.370696,740.205942,-9576.193725
836.393090,-1480.411884,740.205942,-9269.755526
836.393410,-296.082377,-222.061783,-9499.584175
836.393730,1702.473667,-592.164754,-10189.070123
836.394050,1184.329507,-1036.288319,-10035.851024
836.394370,444.123565,-888.247130,-9806.022374
836.394690,0.000000,-518.144159,-9959.241474
836.395010,370.102971,888.247130,-11261.603821
836.395330,74.020594,1702.473667,-10648.727422
836.395650,-222.061783,1184.329507,-10189.070123
836.395970,-296.082377,0.000000,-10342.289223
836.396290,0.000000,-1776.494261,-10572.117872
836.396610,-148.041188,-2294.638420,-10035.851024
836.396930,-666.185348,-1554.432478,-9882.631924
836.397250,-296.082377,666.185348,-10495.508323
836.397570,222.061783,2442.679609,-10495.508323
836.397890,0.000000,2738.761985,-10878.556072
836.398210,962.267725,962.267725,-10265.679673
836.398529,2072.576638,-1554.432478,-10418.898773
836.398849,962.267725,-3330.926739,-10418.898773
836.399169,-1184.329507,-2960.823768,-9422.974625
836.399489,-666.185348,-666.185348,-10342.289223
836.399809,-592.164754,444.123565,-9959.241474
836.400129,888.247130,888.247130,-10112.460574
836.400449,740.205942,1480.411884,-10112.460574
836.400769,1702.473667,1036.288319,-10801.946522
836.401089,2368.659014,-888.247130,-10572.117872
836.401409,962.267725,-2368.659014,-9806.022374
836.401729,-148.041188,-2368.659014,-9652.803275
836.402049,518.144159,-1036.288319,-10342.289223
836.402369,1702.473667,74.020594,-9882.631924
836.402689,444.123565,370.102971,-10112.460574
836.403009,222.061783,962.267725,-9806.022374
836.403329,-148.041188,-222.061783,-9959.241474
836.403649,-666.185348,148.041188,-9959.241474
836.403969,-1628.453072,-296.082377,-9729.412825
836.404289,222.061783,-1850.514855,-9806.022374
836.404609,888.247130,-444.123565,-10112.460574
836.404928,148.041188,592.164754,-10801.946522
836.405248,-370.102971,1850.514855,-9806.022374
836.405568,-962.267725,814.226536,-10572.117872
836.405888,74.020594,222.061783,-10878.556072
836.406208,222.061783,444.123565,-10572.117872
836.406528,888.247130,1776.494261,-10648.727422
836.406848,1036.288319,2812.782580,-11338.213370
836.407168,148.041188,4145.153275,-11108.384721
836.407488,74.020594,3034.844362,-10955.165621
836.407808,1184.329507,1702.473667,-10112.460574
836.408128,814.226536,1036.288319,-10265.679673
836.408448,740.205942,-1332.370696,-10189.070123
836.408768,740.205942,-1924.535449,-9652.803275
836.409088,814.226536,-1480.411884,-9652.803275
836.409408,814.226536,666.185348,-10112.460574
836.409728,888.247130,1998.556043,-9959.241474
836.410048,740.205942,1998.556043,-9806.022374
836.410368,592.164754,1480.411884,-9499.584175
836.410688,1110.308913,1406.391290,-9346.365076
836.411008,1036.288319,0.000000,-9882.631924
836.411327,740.205942,-1332.370696,-8886.707777
836.411647,814.226536,-1184.329507,-9422.974625
836.411967,1406.391290,-814.226536,-9729.412825
836.412287,962.267725,0.000000,-9116.536426
836.412607,0.000000,1332.370696,-9422.974625
836.412927,962.267725,2664.741391,-9882.631924
836.413247,2368.659014,2590.720797,-10112.460574
836.413567,3330.926739,1702.473667,-9959.241474
836.413887,2664.741391,518.144159,-10648.727422
836.414207,740.205942,148.041188,-10265.679673
836.414527,-592.164754,814.226536,-10112.460574
836.414847,-296.082377,1184.329507,-10265.679673
836.415167,740.205942,1850.514855,-10572.117872
836.415487,888.247130,1628.453072,-10418.898773
836.415807,592.164754,370.102971,-10955.165621
836.416127,888.247130,-740.205942,-10495.508323
836.416447,0.000000,-518.144159,-10801.946522
836.416767,-444.123565,592.164754,-10801.946522
836.417087,-1258.350101,592.164754,-9882.631924
836.417407,-222.061783,222.061783,-10265.679673
836.417726,1184.329507,296.082377,-10495.508323
836.418046,1036.288319,0.000000,-10648.727422
836.418366,-222.061783,296.082377,-10112.460574
836.418686,222.061783,0.000000,-10265.679673
836.419006,74.020594,222.061783,-10189.070123
836.419326,-962.267725,370.102971,-9576.193725
836.419646,-1332.370696,0.000000,-9422.974625
836.419966,740.205942,-1258.350101,-9959.241474
836.420286,1036.288319,-1998.556043,-10342.289223
836.420606,1036.288319,-2294.638420,-9346.365076
836.420926,740.205942,-2146.597232,-9193.145976
836.421246,370.102971,-740.205942,-9729.412825
836.421566,444.123565,888.247130,-9806.022374
836.421886,-666.185348,1480.411884,-9882.631924
836.422206,518.144159,296.082377,-9576.193725
836.422526,888.247130,-1184.329507,-9882.631924
836.422846,1850.514855,-3849.070898,-9806.022374
836.423166,888.247130,-4663.297435,-9193.145976
836.423486,888.247130,-2220.617826,-9499.584175
836.423806,0.000000,740.205942,-10648.727422
836.424125,-1110.308913,2812.782580,-10418.898773
836.424445,-1184.329507,4145.153275,-10035.851024
836.424765,592.164754,1850.514855,-10418.898773
836.425085,1850.514855,-1332.370696,-10572.117872
836.425405,1480.411884,-3627.009116,-10189.070123
836.425725,1258.350101,-3404.947333,-9959.241474
836.426045,1258.350101,-666.185348,-10648.727422
836.426365,222.061783,1110.308913,-10648.727422
836.426685,74.020594,2886.803174,-10495.508323
836.427005,-296.082377,2812.782580,-10801.946522
836.427325,296.082377,1110.308913,-10801.946522
836.427645,666.185348,-296.082377,-9729.412825
836.427965,148.041188,-1332.370696,-9959.241474
836.428285,0.000000,-1258.350101,-9806.022374
836.428605,-296.082377,-740.205942,-9882.631924
836.428925,-222.061783,296.082377,-9806.022374
836.429245,74.020594,666.185348,-9193.145976
836.429565,1110.308913,740.205942,-10035.851024
836.429885,888.247130,370.102971,-10495.508323
836.430205,-666.185348,-74.020594,-9806.022374
836.430524,-1036.288319,0.000000,-9422.974625
836.430844,-148.041188,666.185348,-9729.412825
836.431164,0.000000,1036.288319,-9729.412825
836.431484,0.000000,148.041188,-9729.412825
836.431804,814.226536,-592.164754,-9576.193725
836.432124,1480.411884,-1036.288319,-10035.851024
836.432444,1110.308913,-1110.308913,-9882.631924
836.432764,148.041188,1184.329507,-9652.803275
836.433084,1110.308913,2516.700203,-10265.679673
836.433404,222.061783,3923.091493,-10418.898773
836.433724,-444.123565,2812.782580,-10648.727422
836.434044,-222.061783,1258.350101,-9806.022374
836.434364,1480.411884,-296.082377,-10418.898773
836.434684,2738.761985,-814.226536,-10572.117872
836.435004,3034.844362,592.164754,-10801.946522
836.435324,1406.391290,2664.741391,-10572.117872
836.435644,370.102971,4663.297435,-11184.994271
836.435964,-962.267725,5477.523971,-11108.384721
836.436284,-814.226536,3182.885551,-10035.851024
836.436604,1628.453072,592.164754,-10189.070123
836.436923,3997.112087,-1628.453072,-10725.336972
836.437243,4737.318029,-1998.556043,-10495.508323
836.437563,2368.659014,-222.061783,-10189.070123
836.437883,1702.473667,2886.803174,-11031.775171
836.438203,1406.391290,5329.482782,-10418.898773
836.438523,148.041188,5403.503377,-10572.117872
836.438843,0.000000,2960.823768,-9576.193725
836.439163,1998.556043,-592.164754,-9959.241474
836.439483,1776.494261,-2664.741391,-9806.022374
836.439803,296.082377,-4219.173869,-9346.365076
836.440123,0.000000,-2146.597232,-9269.755526
836.440443,-962.267725,518.144159,-10189.070123
836.440763,-592.164754,2590.720797,-9806.022374
836.441083,-1554.432478,2516.700203,-9422.974625
836.441403,-1480.411884,1850.514855,-9422.974625
836.441723,0.000000,296.082377,-9729.412825
836.442043,888.247130,-1850.514855,-10418.898773
836.442363,888.247130,-2738.761985,-9193.145976
836.442683,370.102971,-2960.823768,-9193.145976
836.443003,74.020594,-1628.453072,-9422.974625
836.443322,222.061783,148.041188,-9729.412825
836.443642,814.226536,1628.453072,-10035.851024
836.443962,1406.391290,1998.556043,-10495.508323
836.444282,592.164754,1258.350101,-10955.165621
836.444602,-1480.411884,0.000000,-10572.117872
836.444922,-1776.494261,-592.164754,-9882.631924
836.445242,-1702.473667,0.000000,-10878.556072
836.445562,-814.226536,74.020594,-10495.508323
836.445882,518.144159,740.205942,-10878.556072
836.446202,1628.453072,296.082377,-10572.117872
836.446522,1258.350101,296.082377,-10955.165621
836.446842,222.061783,-666.185348,-10955.165621
836.447162,-518.144159,-370.102971,-10342.289223
836.447482,0.000000,148.041188,-10418.898773
836.447802,1480.411884,-296.082377,-10189.070123
836.448122,370.102971,-518.144159,-10418.898773
836.448442,888.247130,-1702.473667,-9882.631924
836.448762,2368.659014,-1850.514855,-10189.070123
836.449082,2886.803174,-1036.288319,-9806.022374
836.449402,1480.411884,-296.082377,-9882.631924
836.449721,0.000000,0.000000,-9806.022374
836.450041,-962.267725,0.000000,-9729.412825
836.450361,-888.247130,-518.144159,-9422.974625
836.450681,0.000000,-1110.308913,-9269.755526
836.451001,296.082377,-1776.494261,-9882.631924
836.451321,370.102971,-2072.576638,-9959.241474
836.451641,740.205942,-1924.535449,-10112.460574
836.451961,-444.123565,-296.082377,-9652.803275
836.452281,-1258.350101,740.205942,-9806.022374
836.452601,-1406.391290,1702.473667,-10112.460574
836.452921,-296.082377,1332.370696,-10112.460574
836.453241,962.267725,0.000000,-9882.631924
836.453561,1258.350101,-1184.329507,-9882.631924
836.453881,888.247130,-2590.720797,-10342.289223
836.454202,148.041188,-1998.556043,-10189.070123
836.454522,-222.061783,-74.020594,-10035.851024
836.454842,0.000000,2960.823768,-10955.165621
836.455162,-814.226536,3701.029710,-11184.994271
836.455482,-1480.411884,2368.659014,-10955.165621
836.455802,0.000000,1110.308913,-11184.994271
836.456122,2146.597232,-370.102971,-11031.775171
836.456442,1776.494261,-222.061783,-10418.898773
836.456762,888.247130,1036.288319,-10725.336972
836.457082,1184.329507,2294.638420,-10189.070123
836.457402,1036.288319,2738.761985,-10495.508323
836.457722,1924.535449,2146.597232,-10265.679673
836.458042,1258.350101,962.267725,-9652.803275
836.458362,1924.535449,0.000000,-10189.070123
836.458682,1776.494261,-666.185348,-9806.022374
836.459002,1480.411884,-740.205942,-9652.803275
836.459322,1184.329507,814.226536,-9576.193725
836.459642,888.247130,2516.700203,-9882.631924
836.459962,296.082377,2886.803174,-9652.803275
836.460282,74.020594,1850.514855,-9499.584175
836.460602,1628.453072,666.185348,-10725.336972
836.460922,1998.556043,-814.226536,-9576.193725
836.461242,1554.432478,-888.247130,-9576.193725
836.461562,1110.308913,148.041188,-9039.926876
836.461882,1184.329507,2146.597232,-9959.241474
836.462202,518.144159,3182.885551,-10035.851024
836.462522,-518.144159,2886.803174,-9729.412825
836.462842,666.185348,1332.370696,-9422.974625
836.463162,1554.432478,-814.226536,-10189.070123
836.463482,2368.659014,-1702.473667,-10112.460574
836.463802,1480.411884,-296.082377,-10112.460574
836.464123,962.267725,1776.494261,-10112.460574
836.464443,0.000000,3182.885551,-10648.727422
836.464763,-518.144159,2368.659014,-10418.898773
836.465083,-1480.411884,1554.432478,-10035.851024
836.465403,-814.226536,74.020594,-10495.508323
836.465723,370.102971,-1184.329507,-10801.946522
836.466043,370.102971,-1258.350101,-10572.117872
836.466363,370.102971,-222.061783,-10035.851024
836.466683,444.123565,2146.597232,-10725.336972
836.467003,222.061783,4515.256246,-10955.165621
836.467323,0.000000,3552.988522,-10878.556072
836.467643,0.000000,1332.370696,-10418.898773
836.467963,962.267725,-1628.453072,-10495.508323
836.468283,1036.288319,-2590.720797,-9806.022374
836.468603,148.041188,-2146.597232,-9882.631924
836.468923,-370.102971,148.041188,-9652.803275
836.469243,1332.370696,1850.514855,-10035.851024
836.469563,740.205942,2220.617826,-10112.460574
836.469883,-740.205942,666.185348,-9269.755526
836.470203,-814.226536,-1110.308913,-9652.803275
836.470523,518.144159,-2516.700203,-9346.365076
836.470843,666.185348,-3552.988522,-9499.584175
836.471163,296.082377,-2812.782580,-9346.365076
836.471483,296.082377,-814.226536,-9576.193725
836.471803,222.061783,1850.514855,-9806.022374
836.472123,518.144159,2146.597232,-9576.193725
836.472443,1258.350101,1702.473667,-10035.851024
836.472763,2516.700203,0.000000,-10572.117872
836.473083,2072.576638,-2294.638420,-10189.070123
836.473403,1406.391290,-4663.297435,-9499.584175
836.473723,-1036.288319,-2664.741391,-9729.412825
836.474043,-1998.556043,-370.102971,-10112.460574
836.474364,-2072.576638,1702.473667,-10801.946522
836.474684,-1332.370696,2960.823768,-9959.241474
836.475004,1332.370696,1480.411884,-10572.117872
836.475324,2590.720797,-148.041188,-10801.946522
836.475644,2442.679609,-1998.556043,-10801.946522
836.475964,1850.514855,-1628.453072,-10035.851024
836.476284,1258.350101,0.000000,-10189.070123
836.476604,-296.082377,1480.411884,-10495.508323
836.476924,-1702.473667,1406.391290,-10878.556072
836.477244,-1924.535449,-222.061783,-10035.851024
836.477564,-1036.288319,-1628.453072,-10342.289223
836.477884,518.144159,-1924.535449,-10189.070123
836.478204,1036.288319,-1036.288319,-10265.679673
836.478524,888.247130,1110.308913,-10418.898773
836.478844,222.061783,2220.617826,-10189.070123
836.479164,-1184.329507,2590.720797,-10112.460574
836.479484,-1702.473667,1480.411884,-9729.412825
836.479804,444.123565,-148.041188,-9806.022374
836.480124,1184.329507,-1924.535449,-9806.022374
836.480444,1850.514855,-2220.617826,-9806.022374
836.480764,1850.514855,-1406.391290,-9422.974625
836.481084,1554.432478,1258.350101,-9882.631924
836.481404,370.102971,3182.885551,-9882.631924
836.481724,-1850.514855,4293.194464,-9882.631924
836.482044,-1110.308913,2516.700203,-9499.584175
836.482364,888.247130,0.000000,-9652.803275
836.482684,1110.308913,-3404.947333,-9882.631924
836.483004,814.226536,-3997.112087,-9576.193725
836.483324,1702.473667,-1850.514855,-9116.536426
836.483644,2220.617826,2146.597232,-10648.727422
836.483964,1332.370696,5329.482782,-10955.165621
836.484285,-74.020594,5699.585753,-10725.336972
836.484605,1258.350101,3849.070898,-10801.946522
836.484925,2368.659014,2220.617826,-10342.289223
836.485245,1258.350101,-222.061783,-10801.946522
836.485565,74.020594,-888.247130,-10112.460574
836.485885,74.020594,-148.041188,-10112.460574
836.486205,0.000000,1776.494261,-10418.898773
836.486525,-444.123565,2442.679609,-9806.022374
836.486845,296.082377,2886.803174,-10035.851024
836.487165,740.205942,2220.617826,-10418.898773
836.487485,1776.494261,296.082377,-10572.117872
836.487805,1406.391290,0.000000,-9806.022374
836.488125,1184.329507,-814.226536,-9499.584175
836.488445,-222.061783,0.000000,-9729.412825
836.488765,-1406.391290,666.185348,-9806.022374
836.489085,-962.267725,888.247130,-9499.584175
836.489405,444.123565,0.000000,-9882.631924
836.489725,1480.411884,518.144159,-10189.070123
836.490045,740.205942,-296.082377,-10112.460574
836.490365,222.061783,74.020594,-9499.584175
836.490685,370.102971,296.082377,-10189.070123
836.491005,740.205942,1850.514855,-9882.631924
836.491325,-148.041188,1184.329507,-9959.241474
836.491645,296.082377,222.061783,-9576.193725
836.491965,2368.659014,-296.082377,-10725.336972
836.492285,3108.864956,-1480.411884,-9882.631924
836.492605,2738.761985,-1480.411884,-10112.460574
836.492925,518.144159,0.000000,-9806.022374
836.493245,-1258.350101,1702.473667,-9193.145976
836.493565,-1258.350101,2516.700203,-10112.460574
836.493885,0.000000,1998.556043,-10265.679673
836.494205,1924.535449,0.000000,-10189.070123
836.494526,1406.391290,-2146.597232,-10572.117872
836.494846,1776.494261,-2960.823768,-10725.336972
836.495166,592.164754,-1406.391290,-9959.241474
836.495486,-370.102971,1184.329507,-10572.117872
836.495806,-814.226536,3330.926739,-10418.898773
836.496126,-1332.370696,3034.844362,-12410.747068
836.496446,0.000000,222.061783,-9806.022374
836.496766,1702.473667,-2738.761985,-10189.070123
836.497086,962.267725,-4589.276840,-9882.631924
836.497406,666.185348,-2812.782580,-9422.974625
836.497726,592.164754,370.102971,-9806.022374
836.498046,0.000000,2960.823768,-10265.679673
836.498366,-1628.453072,3256.906145,-9806.022374
836.498686,-1258.350101,962.267725,-9576.193725
836.499006,-74.020594,-1776.494261,-9729.412825
836.499326,1480.411884,-3997.112087,-9959.241474
836.499646,1702.473667,-4441.235652,-9959.241474
836.499966,0.000000,-2664.741391,-9729.412825
836.500286,-1776.494261,370.102971,-9882.631924
836.500606,-2294.638420,3404.947333,-10035.851024
836.500926,-2146.597232,4441.235652,-10112.460574
836.501246,-1332.370696,3552.988522,-10112.460574
836.501566,814.226536,-296.082377,-10495.508323
836.501886,1258.350101,-3923.091493,-9193.145976
836.502206,592.164754,-5995.668130,-9422.974625
836.502526,-518.144159,-4367.215058,-9729.412825
836.502846,-1110.308913,-1184.329507,-10189.070123
836.503166,-888.247130,3256.906145,-10342.289223
836.503486,-740.205942,5107.421000,-10418.898773
836.503806,74.020594,4367.215058,-11184.994271
836.504126,1554.432478,1850.514855,-11031.775171
836.504447,2146.597232,-1258.350101,-10878.556072
836.504767,2368.659014,-1258.350101,-9806.022374
836.505087,1406.391290,-1184.329507,-10265.679673
836.505407,666.185348,1258.350101,-10342.289223
836.505727,-222.061783,2812.782580,-10342.289223
836.506047,370.102971,3034.844362,-10572.117872
836.506367,740.205942,1406.391290,-10648.727422
836.506687,2664.741391,666.185348,-10189.070123
836.507007,2368.659014,0.000000,-10265.679673
836.507327,1036.288319,740.205942,-10189.070123
836.507647,1036.288319,740.205942,-9882.631924
836.507967,370.102971,1184.329507,-9346.365076
836.508287,740.205942,592.164754,-8963.317327
836.508607,1776.494261,814.226536,-9422.974625
836.508927,3997.112087,0.000000,-9652.803275
836.509247,3478.967927,296.082377,-9806.022374
836.509567,2072.576638,444.123565,-9576.193725
836.509887,1184.329507,518.144159,-9422.974625
836.510207,666.185348,1036.288319,-9193.145976
836.510527,1628.453072,592.164754,-9576.193725
836.510847,2294.638420,444.123565,-9269.755526
836.511167,2294.638420,-296.082377,-10265.679673
836.511487,1184.329507,-518.144159,-10189.070123
836.511807,444.123565,-296.082377,-8350.440928
836.512127,0.000000,1184.329507,-10112.460574
836.512447,370.102971,1702.473667,-10495.508323
836.512767,-370.102971,2220.617826,-10112.460574
836.513087,-1702.473667,1554.432478,-10189.070123
836.513407,-518.144159,444.123565,-10572.117872
836.513727,-444.123565,-962.267725,-10801.946522
836.514047,-1036.288319,-1110.308913,-10112.460574
836.514367,-1110.308913,222.061783,-10878.556072
836.514688,-444.123565,1850.514855,-11184.994271
836.515008,592.164754,2812.782580,-10648.727422
836.515328,74.020594,3108.864956,-10955.165621
836.515648,-444.123565,2442.679609,-10725.336972
836.515968,222.061783,592.164754,-11568.042020
836.516288,2072.576638,-1110.308913,-11338.213370
836.516608,2146.597232,-1850.514855,-10265.679673
836.516928,0.000000,-962.267725,-10265.679673
836.517248,-444.123565,148.041188,-9882.631924
836.517568,-888.247130,1776.494261,-10035.851024
836.517888,-444.123565,2294.638420,-9652.803275
836.518208,-222.061783,1480.411884,-9422.974625
836.518528,1554.432478,-740.205942,-9882.631924
836.518848,1480.411884,-2812.782580,-9806.022374
836.519168,666.185348,-3182.885551,-9039.926876
836.519488,222.061783,-2294.638420,-9422.974625
836.519808,0.000000,-740.205942,-9422.974625
836.520128,518.144159,518.144159,-9499.584175
836.520448,1258.350101,740.205942,-9882.631924
836.520768,2664.741391,74.020594,-10265.679673
836.521088,3108.864956,-1258.350101,-10265.679673
836.521408,1850.514855,-1628.453072,-10342.289223
836.521728,1184.329507,-370.102971,-9882.631924
836.522048,370.102971,444.123565,-10342.289223
836.522368,-222.061783,1258.350101,-10035.851024
836.522688,0.000000,1480.411884,-9806.022374
836.523008,2516.700203,296.082377,-10572.117872
836.523328,3330.926739,0.000000,-10801.946522
836.523648,2294.638420,-1628.453072,-11031.775171
836.523968,-148.041188,-962.267725,-10418.898773
836.524288,-1258.350101,296.082377,-11108.384721
836.524608,-666.185348,1850.514855,-12257.527968
836.524929,-666.185348,3108.864956,-11108.384721
836.525249,-1184.329507,2368.659014,-10648.727422
836.525569,-74.020594,222.061783,-10648.727422
836.525889,518.144159,-1998.556043,-10648.727422
836.526209,148.041188,-3108.864956,-10342.289223
836.526529,-2072.576638,-1850.514855,-10342.289223
836.526849,-2294.638420,814.226536,-9806.022374
836.527169,-2368.659014,3330.926739,-10495.508323
836.527489,-962.267725,2886.803174,-10265.679673
836.527809,-666.185348,2294.638420,-9806.022374
836.528129,-1110.308913,0.000000,-10112.460574
836.528449,74.020594,-2294.638420,-9269.755526
836.528769,814.226536,-2590.720797,-9116.536426
836.529089,1110.308913,-2146.597232,-9652.803275
836.529409,0.000000,148.041188,-9422.974625
836.529729,370.102971,1406.391290,-9499.584175
836.530049,1406.391290,1776.494261,-9269.755526
836.530369,1480.411884,1406.391290,-9652.803275
836.530689,1258.350101,222.061783,-9806.022374
836.531009,1258.350101,-222.061783,-9422.974625
836.531329,1702.473667,-518.144159,-9806.022374
836.531649,1406.391290,592.164754,-9806.022374
836.531969,148.041188,1332.370696,-10035.851024
836.532289,148.041188,1110.308913,-10035.851024
836.532609,1850.514855,1110.308913,-10035.851024
836.532929,2368.659014,592.164754,-10495.508323
836.533249,1332.370696,74.020594,-10572.117872
836.533569,666.185348,222.061783,-10495.508323
836.533889,518.144159,1184.329507,-11031.775171
836.534209,518.144159,1776.494261,-10801.946522
836.534529,0.000000,2072.576638,-10955.165621
836.534850,-1406.391290,1406.391290,-10648.727422
836.535170,1184.329507,1036.288319,-11261.603821
836.535490,1480.411884,148.041188,-11414.822920
836.535810,1924.535449,74.020594,-10801.946522
836.536130,1036.288319,740.205942,-10878.556072
836.536450,518.144159,1332.370696,-11108.384721
836.536770,222.061783,1776.494261,-10418.898773
836.537090,-1258.350101,1554.432478,-10035.851024
836.537410,0.000000,518.144159,-9499.584175
836.537730,740.205942,-1036.288319,-10265.679673
836.538050,1850.514855,-2664.741391,-9499.584175
836.538370,1036.288319,-3108.864956,-9116.536426
836.538690,296.082377,-2072.576638,-9422.974625
836.539010,-518.144159,518.144159,-8886.707777
836.539330,-1406.391290,2294.638420,-9576.193725
836.539650,-444.123565,3330.926739,-9346.365076
836.539970,296.082377,1406.391290,-9499.584175
836.540290,222.061783,-1036.288319,-9422.974625
836.540610,0.000000,-3552.988522,-8886.707777
836.540930,0.000000,-3849.070898,-8963.317327
836.541250,518.144159,-2220.617826,-9269.755526
836.541570,74.020594,444.123565,-9729.412825
836.541890,-370.102971,2442.679609,-9652.803275
836.542210,666.185348,2368.659014,-10648.727422
836.542530,1480.411884,1406.391290,-10342.289223
836.542850,1480.411884,74.020594,-10648.727422
836.543170,1480.411884,-518.144159,-10265.679673
836.543490,1628.453072,370.102971,-10725.336972
836.543810,888.247130,888.247130,-10955.165621
836.544130,518.144159,666.185348,-10495.508323
836.544450,518.144159,-444.123565,-10418.898773
836.544770,1406.391290,-740.205942,-11261.603821
836.545091,1406.391290,-1036.288319,-11031.775171
836.545411,1184.329507,0.000000,-10495.508323
836.545731,888.247130,1702.473667,-10801.946522
836.546051,1258.350101,2812.782580,-10112.460574
836.546371,592.164754,2072.576638,-10648.727422
836.546691,814.226536,666.185348,-9806.022374
836.547011,1998.556043,-740.205942,-10189.070123
836.547331,2442.679609,-1924.535449,-9499.584175
836.547651,1924.535449,-2368.659014,-9346.365076
836.547971,962.267725,-1628.453072,-9576.193725
836.548291,-148.041188,222.061783,-9806.022374
836.548611,-1406.391290,1628.453072,-9806.022374
836.548931,-2368.659014,1776.494261,-9806.022374
836.549251,-962.267725,1332.370696,-9269.755526
836.549571,666.185348,814.226536,-10112.460574
836.549891,740.205942,-1184.329507,-10035.851024
836.550211,-370.102971,-1554.432478,-9422.974625
836.550531,74.020594,-1628.453072,-9806.022374
836.550851,-518.144159,296.082377,-9652.803275
836.551171,-1184.329507,1480.411884,-10189.070123
836.551491,-962.267725,2072.576638,-9882.631924
836.551811,-592.164754,2294.638420,-10265.679673
836.552131,1332.370696,888.247130,-10801.946522
836.552451,1702.473667,-814.226536,-10725.336972
836.552771,1480.411884,-1776.494261,-10189.070123
836.553091,74.020594,-1332.370696,-10418.898773
836.553411,-1258.350101,370.102971,-10418.898773
836.553731,-1480.411884,1776.494261,-10418.898773
836.554051,-370.102971,2220.617826,-10648.727422
836.554371,1480.411884,1924.535449,-10648.727422
836.554691,2664.741391,444.123565,-10801.946522
836.555011,2886.803174,222.061783,-10035.851024
836.555331,1924.535449,296.082377,-10418.898773
836.555651,592.164754,1332.370696,-10342.289223
836.555971,-740.205942,1702.473667,-9806.022374
836.556291,148.041188,1184.329507,-9652.803275
836.556611,1776.494261,1184.329507,-9959.241474
836.556931,1924.535449,74.020594,-10342.289223
836.557251,222.061783,-222.061783,-9422.974625
836.557570,-296.082377,0.000000,-8733.488677
836.557890,740.205942,1480.411884,-9806.022374
836.558210,1332.370696,1628.453072,-9806.022374
836.558530,1036.288319,2146.597232,-9499.584175
836.558850,740.205942,888.247130,-9269.755526
836.559170,2220.617826,0.000000,-9806.022374
836.559490,2516.700203,-962.267725,-10112.460574
836.559810,1184.329507,-592.164754,-9652.803275
836.560130,444.123565,-296.082377,-9652.803275
836.560450,370.102971,518.144159,-10189.070123
836.560770,962.267725,888.247130,-10342.289223
836.561090,888.247130,518.144159,-10112.460574
836.561410,0.000000,222.061783,-10878.556072
836.561730,-296.082377,-296.082377,-10648.727422
836.562050,-296.082377,-962.267725,-10342.289223
836.562370,74.020594,0.000000,-10189.070123
836.562690,666.185348,518.144159,-10572.117872
836.563010,1110.308913,518.144159,-10801.946522
836.563330,1258.350101,1258.350101,-10878.556072
836.563650,962.267725,1036.288319,-10418.898773
836.563970,148.041188,1110.308913,-11108.384721
836.564290,666.185348,518.144159,-10495.508323
836.564610,2442.679609,-1036.288319,-10342.289223
836.564930,518.144159,-296.082377,-10418.898773
836.565250,0.000000,-444.123565,-10189.070123
836.565570,-148.041188,74.020594,-10035.851024
836.565890,814.226536,296.082377,-9576.193725
836.566210,2072.576638,740.205942,-10418.898773
836.566530,1258.350101,296.082377,-10342.289223
836.566850,444.123565,-1332.370696,-9806.022374
836.567170,0.000000,-1628.453072,-9499.584175
836.567490,592.164754,-740.205942,-9882.631924
836.567810,148.041188,592.164754,-9729.412825
836.568130,-518.144159,740.205942,-9499.584175
836.568450,-888.247130,296.082377,-9729.412825
836.568770,148.041188,-962.267725,-9882.631924
836.569090,740.205942,-2072.576638,-10189.070123
836.569409,-814.226536,-1702.473667,-9652.803275
836.569729,-1702.473667,0.000000,-10035.851024
836.570049,-1406.391290,1628.453072,-9882.631924
836.570369,-814.226536,1776.494261,-10189.070123
836.570689,148.041188,888.247130,-9806.022374
836.571009,74.020594,-592.164754,-10418.898773
836.571329,0.000000,-888.247130,-10572.117872
836.571649,-222.061783,0.000000,-10265.679673
836.571969,222.061783,1554.432478,-10418.898773
836.572289,222.061783,2886.803174,-11184.994271
836.572609,-444.123565,3478.967927,-10801.946522
836.572929,-1554.432478,2812.782580,-9882.631924
836.573249,-1184.329507,518.144159,-10035.851024
836.573569,148.041188,-962.267725,-10342.289223
836.573889,1110.308913,-2072.576638,-9882.631924
836.574209,1258.350101,-1036.288319,-9422.974625
836.574529,1036.288319,888.247130,-9959.241474
836.574849,1554.432478,3552.988522,-10112.460574
836.575169,2146.597232,3256.906145,-10265.679673
836.575489,2294.638420,2368.659014,-9652.803275
836.575809,3182.885551,74.020594,-9576.193725
836.576129,1702.473667,-1406.391290,-9576.193725
836.576449,1036.288319,-1998.556043,-9346.365076
836.576769,1924.535449,-814.226536,-9269.755526
836.577089,3182.885551,592.164754,-9499.584175
836.577409,2960.823768,1110.308913,-9729.412825
836.577729,1850.514855,1036.288319,-9422.974625
836.578049,740.205942,222.061783,-9499.584175
836.578369,814.226536,74.020594,-9959.241474
836.578689,2664.741391,0.000000,-9806.022374
836.579009,2738.761985,444.123565,-9882.631924
836.579329,2146.597232,444.123565,-10265.679673
836.579649,592.164754,222.061783,-10112.460574
836.579969,-370.102971,370.102971,-9882.631924
836.580289,-296.082377,740.205942,-9729.412825
836.580609,74.020594,518.144159,-10801.946522
836.580929,296.082377,0.000000,-10418.898773
836.581249,-296.082377,-814.226536,-10418.898773
836.581568,-888.247130,0.000000,-11338.213370
836.581888,-2220.617826,592.164754,-10878.556072
836.582208,-1554.432478,592.164754,-10725.336972
836.582528,-222.061783,222.061783,-10418.898773
836.582848,0.000000,-888.247130,-10648.727422
836.583168,0.000000,-1036.288319,-11108.384721
836.583488,-740.205942,-1554.432478,-11184.994271
836.583808,-888.247130,-74.020594,-10189.070123
836.584128,-1628.453072,1332.370696,-10725.336972
836.584448,-1480.411884,2960.823768,-10418.898773
836.584768,-1184.329507,1184.329507,-10342.289223
836.585088,-1480.411884,-370.102971,-9806.022374
836.585408,-1554.432478,-1776.494261,-10342.289223
836.585728,-814.226536,-2516.700203,-10342.289223
836.586048,-444.123565,-2368.659014,-9806.022374
836.586368,296.082377,-1406.391290,-9729.412825
836.586688,740.205942,666.185348,-9882.631924
836.587008,0.000000,1998.556043,-10189.070123
836.587328,0.000000,2294.638420,-10955.165621
836.587648,444.123565,1036.288319,-9882.631924
836.587968,740.205942,148.041188,-9806.022374
836.588288,814.226536,-1850.514855,-9806.022374
836.588608,1332.370696,-2294.638420,-9269.755526
836.588928,296.082377,-1258.350101,-9806.022374
836.589248,1332.370696,370.102971,-9652.803275
836.589568,888.247130,2368.659014,-10112.460574
836.589888,1406.391290,1998.556043,-10189.070123
836.590208,3775.050304,1480.411884,-10265.679673
836.590528,4293.194464,370.102971,-10725.336972
836.590848,3108.864956,-370.102971,-9806.022374
836.591168,2368.659014,1258.350101,-9959.241474
836.591488,1776.494261,2442.679609,-10189.070123
836.591808,1332.370696,2294.638420,-10648.727422
836.592128,2368.659014,740.205942,-9806.022374
836.592448,2590.720797,-1110.308913,-10189.070123
836.592768,2072.576638,-2146.597232,-10342.289223
836.593088,0.000000,-1480.411884,-9729.412825
836.593407,-1998.556043,444.123565,-10189.070123
836.593727,-2294.638420,2442.679609,-10418.898773
836.594047,-1850.514855,4071.132681,-10495.508323
836.594367,-1628.453072,2812.782580,-10342.289223
836.594687,-296.082377,-222.061783,-9806.022374
836.595007,1480.411884,-1406.391290,-10342.289223
836.595327,1332.370696,-1184.329507,-10189.070123
836.595647,518.144159,222.061783,-10265.679673
836.595967,-740.205942,1110.308913,-9729.412825
836.596287,-1184.329507,2516.700203,-10189.070123
836.596607,-962.267725,2294.638420,-10189.070123
836.596927,-1258.350101,1702.473667,-9806.022374
836.597247,-1258.350101,148.041188,-9806.022374
836.597567,0.000000,-666.185348,-9652.803275
836.597887,222.061783,-666.185348,-10112.460574
836.598207,-444.123565,-148.041188,-9806.022374
836.598527,-1184.329507,814.226536,-9729.412825
836.598847,-1332.370696,1702.473667,-9959.241474
836.599167,222.061783,2146.597232,-10112.460574
836.599487,518.144159,1702.473667,-10035.851024
836.599807,1776.494261,592.164754,-10112.460574
836.600127,2368.659014,-444.123565,-10418.898773
836.600447,2368.659014,74.020594,-10418.898773
836.600767,1480.411884,74.020594,-10418.898773
836.601087,2368.659014,1184.329507,-10265.679673
836.601407,1998.556043,1406.391290,-10189.070123
836.601727,666.185348,888.247130,-10189.070123
836.602047,-222.061783,0.000000,-10035.851024
836.602367,888.247130,-444.123565,-10189.070123
836.602687,2072.576638,-296.082377,-10342.289223
836.603007,1554.432478,1036.288319,-9269.755526
836.603327,814.226536,1332.370696,-10648.727422
836.603647,1036.288319,1998.556043,-10189.070123
836.603967,518.144159,1850.514855,-10495.508323
836.604287,0.000000,592.164754,-10035.851024
836.604607,888.247130,-888.247130,-10035.851024
836.604927,888.247130,-1924.535449,-9959.241474
836.605247,296.082377,-1554.432478,-9652.803275
836.605566,370.102971,-148.041188,-9882.631924
836.605886,1184.329507,1554.432478,-9806.022374
836.606206,1036.288319,2072.576638,-10112.460574
836.606526,1184.329507,740.205942,-9806.022374
836.606846,1110.308913,-666.185348,-9576.193725
836.607166,740.205942,-2368.659014,-9806.022374
836.607486,-148.041188,-2960.823768,-9576.193725
836.607806,-592.164754,-1628.453072,-9576.193725
836.608126,222.061783,0.000000,-10112.460574
836.608446,814.226536,1036.288319,-9729.412825
836.608766,888.247130,1776.494261,-10112.460574
836.609086,740.205942,592.164754,-10112.460574
836.609406,518.144159,-740.205942,-10112.460574
836.609726,518.144159,-2146.597232,-10342.289223
836.610046,-592.164754,-2886.803174,-9729.412825
836.610366,-1554.432478,-1776.494261,-9959.241474
836.610686,-1184.329507,222.061783,-10495.508323
836.611006,-518.144159,1480.411884,-10495.508323
836.611326,0.000000,1776.494261,-10572.117872
836.611646,1554.432478,888.247130,-10265.679673
836.611966,1998.556043,0.000000,-10801.946522
836.612286,1332.370696,-1850.514855,-11108.384721
836.612606,0.000000,-1776.494261,-9652.803275
836.612926,-148.041188,-740.205942,-10189.070123
836.613246,222.061783,1258.350101,-10572.117872
836.613566,1036.288319,1406.391290,-10495.508323
836.613886,814.226536,1406.391290,-10265.679673
836.614206,1110.308913,666.185348,-10035.851024
836.614526,740.205942,0.000000,-10342.289223
836.614846,1406.391290,-370.102971,-9959.241474
836.615166,1554.432478,222.061783,-9959.241474
836.615486,1480.411884,1036.288319,-10418.898773
836.615806,0.000000,1184.329507,-9959.241474
836.616126,-962.267725,222.061783,-9882.631924
836.616446,222.061783,-444.123565,-9959.241474
836.616766,1110.308913,-444.123565,-9882.631924
836.617086,888.247130,666.185348,-10878.556072
836.617405,296.082377,1628.453072,-9806.022374
836.617725,592.164754,1776.494261,-10112.460574
836.618045,-444.123565,2146.597232,-10265.679673
836.618365,-1480.411884,740.205942,-9652.803275
836.618685,-1184.329507,-296.082377,-10112.460574
836.619005,666.185348,-962.267725,-10112.460574
836.619325,1406.391290,-814.226536,-10035.851024
836.619645,1110.308913,-222.061783,-10035.851024
836.619965,962.267725,962.267725,-10189.070123
836.620285,296.082377,2368.659014,-10495.508323
836.620605,-370.102971,3256.906145,-10572.117872
836.620925,-740.205942,2516.700203,-10265.679673
836.621245,0.000000,1332.370696,-10265.679673
836.621565,666.185348,-296.082377,-10418.898773
836.621885,222.061783,-962.267725,-10112.460574
836.622205,296.082377,-814.226536,-9882.631924
836.622525,592.164754,814.226536,-10495.508323
836.622845,222.061783,2886.803174,-10342.289223
836.623165,370.102971,3034.844362,-10725.336972
836.623485,222.061783,2738.761985,-10035.851024
836.623805,296.082377,1332.370696,-10342.289223
836.624125,1924.535449,0.000000,-10035.851024
836.624445,1110.308913,-222.061783,-9806.022374
836.624765,518.144159,148.041188,-9806.022374
836.625085,296.082377,1184.329507,-9882.631924
836.625405,1184.329507,1998.556043,-9806.022374
836.625725,1924.535449,1258.350101,-9806.022374
836.626045,1480.411884,0.000000,-9806.022374
836.626365,1776.494261,-888.247130,-9729.412825
836.626685,1036.288319,-1332.370696,-9729.412825
836.627005,1406.391290,-1110.308913,-9269.755526
836.627325,1628.453072,-296.082377,-10495.508323
836.627645,592.164754,0.000000,-9882.631924
836.627965,-740.205942,296.082377,-9729.412825
836.628285,222.061783,888.247130,-9576.193725
836.628605,1480.411884,370.102971,-9806.022374
836.628925,2368.659014,-592.164754,-10342.289223
836.629245,1554.432478,-1110.308913,-9959.241474
836.629564,370.102971,-1258.350101,-10189.070123
836.629884,444.123565,-666.185348,-10495.508323
836.630204,296.082377,444.123565,-10418.898773
836.630524,296.082377,740.205942,-10189.070123
836.630844,1036.288319,370.102971,-10648.727422
836.631164,1702.473667,-148.041188,-10955.165621
836.631484,1036.288319,-518.144159,-10878.556072
836.631804,0.000000,0.000000,-10648.727422
836.632124,-518.144159,962.267725,-10955.165621
836.632444,0.000000,1554.432478,-10572.117872
836.632764,-370.102971,1110.308913,-10189.070123
836.633084,-888.247130,-1036.288319,-9882.631924
836.633404,-666.185348,-2516.700203,-10189.070123
836.633724,-444.123565,-2960.823768,-10342.289223
836.634044,-666.185348,-1628.453072,-9806.022374
836.634364,74.020594,0.000000,-9269.755526
836.634684,666.185348,962.267725,-10112.460574
836.635004,222.061783,518.144159,-10112.460574
836.635324,-740.205942,-666.185348,-9346.365076
836.635644,-370.102971,-1776.494261,-10495.508323
836.635964,1110.308913,-2738.761985,-10035.851024
836.636284,2146.597232,-2664.741391,-9882.631924
836.636604,1480.411884,-1332.370696,-9576.193725
836.636924,444.123565,444.123565,-10342.289223
836.637244,-666.185348,2368.659014,-10495.508323
836.637564,-1924.535449,3034.844362,-10189.070123
836.637884,-296.082377,2738.761985,-10265.679673
836.638204,2368.659014,2072.576638,-10418.898773
836.638524,1776.494261,296.082377,-9652.803275
836.638844,592.164754,-1184.329507,-9806.022374
836.639164,-370.102971,-592.164754,-9959.241474
836.639484,-888.247130,0.000000,-10265.679673
836.639804,-444.123565,814.226536,-9882.631924
836.640124,0.000000,1184.329507,-9882.631924
836.640444,814.226536,740.205942,-10648.727422
836.640764,1406.391290,0.000000,-10572.117872
836.641084,740.205942,-222.061783,-10725.336972
836.641403,370.102971,222.061783,-10035.851024
836.641723,0.000000,740.205942,-10418.898773
836.642043,0.000000,1184.329507,-10418.898773
836.642363,-1036.288319,74.020594,-9959.241474
836.642683,0.000000,-370.102971,-9959.241474
836.643003,1036.288319,-666.185348,-10342.289223
836.643323,1850.514855,222.061783,-10418.898773
836.643643,666.185348,888.247130,-9959.241474
836.643963,0.000000,1036.288319,-9959.241474
836.644283,-740.205942,1924.535449,-9269.755526
836.644603,-1110.308913,1776.494261,-9576.193725
836.644923,-1110.308913,1702.473667,-9269.755526
836.645243,518.144159,1258.350101,-9806.022374
836.645563,1850.514855,74.020594,-9882.631924
836.645883,1332.370696,-592.164754,-9806.022374
836.646203,-444.123565,-148.041188,-9499.584175
836.646523,-370.102971,1480.411884,-9729.412825
836.646843,518.144159,2738.761985,-10112.460574
836.647163,-444.123565,3701.029710,-9959.241474
836.647483,-222.061783,3108.864956,-9806.022374
836.647803,666.185348,1628.453072,-10342.289223
836.648123,1628.453072,-370.102971,-10572.117872
836.648443,2146.597232,-1258.350101,-10035.851024
836.648763,1850.514855,-592.164754,-10418.898773
836.649083,814.226536,1110.308913,-10418.898773
836.649403,592.164754,2738.761985,-10418.898773
836.649723,0.000000,2738.761985,-10265.679673
836.650043,962.267725,1776.494261,-10572.117872
836.650363,1628.453072,148.041188,-10878.556072
836.650683,1480.411884,-1036.288319,-10265.679673
836.651003,740.205942,-1406.391290,-10112.460574
836.651323,1480.411884,0.000000,-10265.679673
836.651643,1406.391290,814.226536,-10342.289223
836.651963,518.144159,1924.535449,-10725.336972
836.652283,222.061783,1406.391290,-10265.679673
836.652603,148.041188,222.061783,-9959.241474
836.652923,2368.659014,-740.205942,-10112.460574
836.653242,2220.617826,222.061783,-9959.241474
836.653562,1406.391290,1110.308913,-10035.851024
836.653882,1258.350101,2220.617826,-10265.679673
836.654202,962.267725,2220.617826,-9346.365076
836.654522,1332.370696,296.082377,-9422.974625
836.654842,1776.494261,-1332.370696,-9806.022374
836.655162,666.185348,-1776.494261,-9576.193725
836.655482,370.102971,-2072.576638,-9346.365076
836.655802,814.226536,-740.205942,-10495.508323
836.656122,1332.370696,74.020594,-10342.289223
836.656442,0.000000,666.185348,-10035.851024
836.656761,-1702.473667,1036.288319,-9806.022374
836.657081,-1628.453072,296.082377,-9346.365076
836.657401,296.082377,-888.247130,-10112.460574
836.657721,740.205942,-2516.700203,-10112.460574
836.658041,592.164754,-3478.967927,-9806.022374
836.658361,666.185348,-2368.659014,-10342.289223
836.658681,1036.288319,-666.185348,-10418.898773
836.659001,0.000000,2368.659014,-10725.336972
836.659321,-370.102971,2960.823768,-10342.289223
836.659641,1258.350101,1554.432478,-11108.384721
836.659961,2442.679609,-222.061783,-10342.289223
836.660281,1184.329507,-2294.638420,-10265.679673
836.660600,-518.144159,-3330.926739,-9959.241474
836.660920,-888.247130,-2294.638420,-10189.070123
836.661240,-962.267725,222.061783,-10495.508323
836.661560,-1110.308913,1776.494261,-10265.679673
836.661880,-148.041188,2146.597232,-10189.070123
836.662200,518.144159,1702.473667,-10801.946522
836.662520,1406.391290,148.041188,-10572.117872
836.662840,74.020594,-296.082377,-10495.508323
836.663160,0.000000,-888.247130,-9959.241474
836.663480,-222.061783,-740.205942,-10265.679673
836.663800,-296.082377,-814.226536,-10112.460574
836.664120,0.000000,-666.185348,-9729.412825
836.664439,814.226536,-666.185348,-9882.631924
836.664759,1628.453072,296.082377,-9959.241474
836.665079,1258.350101,962.267725,-10189.070123
836.665399,518.144159,1258.350101,-10112.460574
836.665719,148.041188,1702.473667,-10572.117872
836.666039,-1036.288319,814.226536,-9806.022374
836.666359,-1998.556043,-666.185348,-9806.022374
836.666679,0.000000,-2072.576638,-9422.974625
836.666999,2220.617826,-2072.576638,-9806.022374
836.667319,1850.514855,-1850.514855,-10112.460574
836.667639,-592.164754,-148.041188,-10035.851024
836.667958,-888.247130,2146.597232,-10189.070123
836.668278,-1036.288319,3478.967927,-10342.289223
836.668598,-666.185348,3034.844362,-10572.117872
836.668918,-888.247130,1406.391290,-10418.898773
836.669238,1036.288319,-888.247130,-10035.851024
836.669558,2146.597232,-2368.659014,-10189.070123
836.669878,2812.782580,-2590.720797,-10189.070123
836.670198,2146.597232,-444.123565,-9959.241474
836.670518,1776.494261,2146.597232,-10342.289223
836.670838,1480.411884,3775.050304,-10495.508323
836.671158,-814.226536,3552.988522,-10495.508323
836.671478,-1110.308913,1628.453072,-9729.412825
836.671797,-148.041188,0.000000,-9806.022374
836.672117,592.164754,-296.082377,-10035.851024
836.672437,1480.411884,222.061783,-9959.241474
836.672757,1258.350101,1406.391290,-9806.022374
836.673077,1110.308913,1776.494261,-9806.022374
836.673397,-444.123565,1332.370696,-9882.631924
836.673717,74.020594,740.205942,-9269.755526
836.674037,1036.288319,0.000000,-9652.803275
836.674357,1850.514855,148.041188,-10265.679673
836.674677,1406.391290,-666.185348,-9882.631924
836.674997,1036.288319,-370.102971,-9806.022374
836.675316,1036.288319,666.185348,-9806.022374
836.675636,740.205942,2072.576638,-11568.042020
836.675956,666.185348,2368.659014,-10572.117872
836.676276,1924.535449,2146.597232,-9882.631924
836.676596,2960.823768,888.247130,-10725.336972
836.676916,1998.556043,-592.164754,-10342.289223
836.677236,814.226536,-2294.638420,-9806.022374
836.677556,444.123565,-1702.473667,-10189.070123
836.677876,74.020594,296.082377,-10265.679673
836.678196,-1332.370696,1850.514855,-10418.898773
836.678516,-1480.411884,2960.823768,-9729.412825
836.678836,296.082377,2146.597232,-10495.508323
836.679155,1184.329507,148.041188,-10418.898773
836.679475,888.247130,-1110.308913,-10265.679673
836.679795,-444.123565,-740.205942,-10495.508323
836.680115,-592.164754,0.000000,-10189.070123
836.680435,-296.082377,592.164754,-10418.898773
836.680755,296.082377,1406.391290,-9806.022374
836.681075,1480.411884,592.164754,-10189.070123
836.681395,2368.659014,-444.123565,-9882.631924
836.681715,2072.576638,-740.205942,-10342.289223
836.682035,1480.411884,-370.102971,-9806.022374
836.682355,666.185348,592.164754,-10342.289223
836.682674,-222.061783,1406.391290,-9882.631924
836.682994,-1036.288319,1332.370696,-10189.070123
836.683314,-296.082377,0.000000,-9652.803275
836.683634,1776.494261,-1554.432478,-9959.241474
836.683954,2368.659014,-2368.659014,-10112.460574
836.684274,1702.473667,-2220.617826,-10801.946522
836.684594,0.000000,-1258.350101,-9806.022374
836.684914,-666.185348,888.247130,-10418.898773
836.685234,-1110.308913,1554.432478,-10572.117872
836.685554,-666.185348,2368.659014,-10572.117872
836.685874,1184.329507,1554.432478,-10572.117872
836.686194,2294.638420,1258.350101,-10955.165621
836.686513,1480.411884,814.226536,-10725.336972
836.686833,74.020594,592.164754,-9959.241474
836.687153,740.205942,148.041188,-10189.070123
836.687473,1036.288319,666.185348,-10112.460574
836.687793,1110.308913,370.102971,-9806.022374
836.688113,296.082377,-370.102971,-9806.022374
836.688433,518.144159,-2590.720797,-9806.022374
836.688753,148.041188,-2072.576638,-9959.241474
836.689073,-814.226536,-1554.432478,-10189.070123
836.689393,-814.226536,74.020594,-10035.851024
836.689713,-1110.308913,1628.453072,-9882.631924
836.690033,-1702.473667,2590.720797,-10035.851024
836.690352,-592.164754,1258.350101,-9882.631924
836.690672,1332.370696,-962.267725,-9959.241474
836.690992,3404.947333,-2664.741391,-9959.241474
836.691312,2220.617826,-2664.741391,-9806.022374
836.691632,1406.391290,-962.267725,-9806.022374
836.691952,-148.041188,1480.411884,-10189.070123
836.692272,-1776.494261,3552.988522,-9806.022374
836.692592,-2812.782580,3256.906145,-10265.679673
836.692912,-1998.556043,2146.597232,-9882.631924
836.693232,0.000000,-148.041188,-10418.898773
836.693552,1184.329507,-2664.741391,-10112.460574
836.693871,740.205942,-2960.823768,-9806.022374
836.694191,0.000000,-1184.329507,-9499.584175
836.694511,74.020594,1850.514855,-9959.241474
836.694831,0.000000,3775.050304,-10725.336972
836.695151,148.041188,4071.132681,-10418.898773
836.695471,1184.329507,2664.741391,-10342.289223
836.695791,2590.720797,518.144159,-10725.336972
836.696111,1480.411884,-740.205942,-10495.508323
836.696431,444.123565,-814.226536,-10112.460574
836.696751,222.061783,0.000000,-10495.508323
836.697071,1258.350101,1036.288319,-9499.584175
836.697391,962.267725,2146.597232,-10265.679673
836.697710,1110.308913,1924.535449,-10265.679673
836.698030,1480.411884,1110.308913,-10342.289223
836.698350,1998.556043,-296.082377,-9039.926876
836.698670,2072.576638,-1480.411884,-9652.803275
836.698990,1406.391290,-1554.432478,-9806.022374
836.699310,1776.494261,-592.164754,-10112.460574
836.699630,666.185348,666.185348,-10265.679673
836.699950,740.205942,1554.432478,-9499.584175
836.700270,-222.061783,1628.453072,-9806.022374
836.700590,0.000000,518.144159,-9959.241474
836.700910,-296.082377,0.000000,-10189.070123
836.701229,-814.226536,518.144159,-9652.803275
836.701549,74.020594,74.020594,-10035.851024
836.701869,1036.288319,222.061783,-9806.022374
836.702189,148.041188,444.123565,-9806.022374
836.702509,0.000000,-222.061783,-9729.412825
836.702829,1184.329507,-592.164754,-10265.679673
836.703149,888.247130,-222.061783,-9806.022374
836.703469,-888.247130,222.061783,-10112.460574
836.703789,-814.226536,1406.391290,-9729.412825
836.704109,0.000000,740.205942,-10265.679673
836.704429,-888.247130,1110.308913,-10265.679673
836.704749,-1776.494261,-1332.370696,-9729.412825
836.705068,-1628.453072,-2590.720797,-9806.022374
836.705388,-666.185348,-1702.473667,-10035.851024
836.705708,370.102971,-1776.494261,-10265.679673
836.706028,1332.370696,-592.164754,-10112.460574
836.706348,1850.514855,592.164754,-10189.070123
836.706668,1406.391290,1184.329507,-9959.241474
836.706988,2072.576638,962.267725,-10112.460574
836.707308,2146.597232,1332.370696,-10035.851024
836.707628,3404.947333,1036.288319,-10725.336972
836.707948,2590.720797,-1036.288319,-11031.775171
836.708268,222.061783,-2072.576638,-9959.241474
836.708588,-296.082377,-1776.494261,-9576.193725
836.708907,-148.041188,-222.061783,-9882.631924
836.709227,0.000000,2738.761985,-10265.679673
836.709547,-666.185348,2960.823768,-10189.070123
836.709867,962.267725,1480.411884,-9806.022374
836.710187,1702.473667,-962.267725,-9959.241474
836.710507,1554.432478,-3330.926739,-9959.241474
836.710827,888.247130,-3627.009116,-9499.584175
836.711147,1184.329507,-666.185348,-10035.851024
836.711467,1406.391290,2812.782580,-10342.289223
836.711787,814.226536,4663.297435,-10418.898773
836.712107,444.123565,3330.926739,-10189.070123
836.712426,888.247130,814.226536,-10418.898773
836.712746,1628.453072,-888.247130,-10955.165621
836.713066,814.226536,-2664.741391,-10265.679673
836.713386,666.185348,-1924.535449,-9499.584175
836.713706,518.144159,-592.164754,-10265.679673
836.714026,-444.123565,814.226536,-10801.946522
836.714346,-2516.700203,1554.432478,-10342.289223
836.714666,-2886.803174,1480.411884,-10495.508323
836.714986,-814.226536,74.020594,-10342.289223
836.715306,74.020594,-888.247130,-10265.679673
836.715626,888.247130,-296.082377,-10342.289223
836.715946,148.041188,296.082377,-10648.727422
836.716265,-296.082377,2146.597232,-10648.727422
836.716585,0.000000,2368.659014,-10265.679673
836.716905,148.041188,2368.659014,-9576.193725
836.717225,666.185348,666.185348,-10342.289223
836.717545,592.164754,-1110.308913,-10112.460574
836.717865,0.000000,-2368.659014,-9729.412825
836.718185,-1258.350101,-1258.350101,-11031.775171
836.718505,-740.205942,592.164754,-9959.241474
836.718825,-1332.370696,2442.679609,-10035.851024
836.719145,-962.267725,3404.947333,-10112.460574
836.719465,296.082377,2738.761985,-9806.022374
836.719784,1850.514855,1406.391290,-10572.117872
836.720104,1998.556043,0.000000,-9882.631924
836.720424,1850.514855,-962.267725,-9729.412825
836.720744,2146.597232,0.000000,-9959.241474
836.721064,0.000000,1702.473667,-9576.193725
836.721384,-1332.370696,2368.659014,-9806.022374
836.721704,-1036.288319,2368.659014,-9729.412825
836.722024,296.082377,888.247130,-9959.241474
836.722344,2664.741391,-740.205942,-9882.631924
836.722664,3701.029710,-1924.535449,-10801.946522
836.722984,2368.659014,-740.205942,-9652.803275
836.723304,1110.308913,1258.350101,-10418.898773
836.723623,0.000000,3478.967927,-9806.022374
836.723943,-148.041188,2886.803174,-9806.022374
836.724263,1554.432478,814.226536,-10495.508323
836.724583,3182.885551,-666.185348,-10572.117872
836.724903,3701.029710,-1776.494261,-10418.898773
836.725223,2738.761985,-1036.288319,-10265.679673
836.725543,2516.700203,-296.082377,-10801.946522
836.725863,666.185348,2442.679609,-10648.727422
836.726183,-592.164754,3404.947333,-10418.898773
836.726503,-1258.350101,3182.885551,-10265.679673
836.726823,1406.391290,1036.288319,-10648.727422
836.727142,2812.782580,-518.144159,-10725.336972
836.727462,2812.782580,-1924.535449,-10648.727422
836.727782,2368.659014,-1480.411884,-10112.460574
836.728102,1036.288319,592.164754,-10495.508323
836.728422,-1110.308913,2220.617826,-10035.851024
836.728742,-1258.350101,2738.761985,-10189.070123
836.729062,-370.102971,1998.556043,-10265.679673
836.729382,592.164754,0.000000,-10495.508323
836.729702,0.000000,-1850.514855,-10648.727422
836.730022,-148.041188,-3108.864956,-9499.584175
836.730342,-370.102971,-1628.453072,-10035.851024
836.730662,296.082377,1480.411884,-10112.460574
836.730981,-444.123565,2220.617826,-10342.289223
836.731301,-1480.411884,1554.432478,-10035.851024
836.731621,666.185348,-962.267725,-10265.679673
836.731941,962.267725,-3034.844362,-9882.631924
836.732261,0.000000,-3997.112087,-9422.974625
836.732581,-1332.370696,-1776.494261,-10648.727422
836.732901,-592.164754,592.164754,-9806.022374
836.733221,-814.226536,2294.638420,-10189.070123
836.733541,-1332.370696,1850.514855,-9806.022374
836.733861,-1628.453072,888.247130,-8733.488677
836.734181,-888.247130,-2294.638420,-10035.851024
836.734501,296.082377,-3330.926739,-9576.193725
836.734820,592.164754,-2590.720797,-9422.974625
836.735140,1628.453072,-148.041188,-9959.241474
836.735460,1776.494261,1924.535449,-10265.679673
836.735780,-518.144159,3552.988522,-10418.898773
836.736100,0.000000,2516.700203,-10418.898773
836.736420,1776.494261,0.000000,-10878.556072
836.736740,3404.947333,-2294.638420,-9652.803275
836.737060,3330.926739,-3997.112087,-9882.631924
836.737380,1332.370696,-3034.844362,-9729.412825
836.737700,518.144159,0.000000,-10495.508323
836.738020,296.082377,2516.700203,-10418.898773
836.738339,444.123565,2886.803174,-10418.898773
836.738659,814.226536,1702.473667,-10112.460574
836.738979,1332.370696,148.041188,-10648.727422
836.739299,1332.370696,-1850.514855,-10725.336972
836.739619,1110.308913,-2072.576638,-9882.631924
836.739939,740.205942,-1110.308913,-10648.727422
836.740259,-592.164754,518.144159,-10112.460574
836.740579,-1110.308913,2146.597232,-10035.851024
836.740899,-962.267725,3182.885551,-10112.460574
836.741219,0.000000,2220.617826,-10342.289223
836.741539,74.020594,666.185348,-10112.460574
836.741859,0.000000,-1184.329507,-9729.412825
836.742178,0.000000,-1776.494261,-9499.584175
836.742498,74.020594,-962.267725,-9576.193725
836.742818,-1924.535449,592.164754,-9806.022374
836.743138,-1924.535449,2664.741391,-9882.631924
836.743458,-666.185348,2146.597232,-9346.365076
836.743778,1850.514855,1850.514855,-10112.460574
836.744098,1924.535449,-740.205942,-9729.412825
836.744418,1110.308913,-1184.329507,-9729.412825
836.744738,1184.329507,-370.102971,-9806.022374
836.745058,592.164754,1776.494261,-10265.679673
836.745378,-666.185348,2590.720797,-9729.412825
836.745697,-1480.411884,1702.473667,-9806.022374
836.746017,296.082377,296.082377,-10189.070123
836.746337,1776.494261,-740.205942,-10189.070123
836.746657,1480.411884,-814.226536,-9576.193725
836.746977,1036.288319,814.226536,-10265.679673
836.747297,296.082377,2442.679609,-10648.727422
836.747617,0.000000,2960.823768,-10878.556072
836.747937,0.000000,2368.659014,-10035.851024
836.748257,-666.185348,1924.535449,-10112.460574
836.748577,888.247130,444.123565,-10572.117872
836.748897,1924.535449,-370.102971,-10572.117872
836.749217,1998.556043,148.041188,-10189.070123
836.749536,2220.617826,1406.391290,-10572.117872
836.749856,888.247130,2220.617826,-10189.070123
836.750176,-296.082377,1998.556043,-10112.460574
836.750496,-370.102971,2146.597232,-10265.679673
836.750816,888.247130,666.185348,-9882.631924
836.751136,1850.514855,-1184.329507,-9959.241474
836.751456,1554.432478,-2516.700203,-9576.193725
836.751776,1998.556043,-1776.494261,-9806.022374
836.752096,1554.432478,592.164754,-9882.631924
836.752416,1628.453072,1554.432478,-9806.022374
836.752736,1184.329507,2812.782580,-9729.412825
836.753056,-296.082377,962.267725,-9959.241474
836.753376,1184.329507,-1184.329507,-9959.241474
836.753696,370.102971,-3256.906145,-9576.193725
836.754016,740.205942,-3775.050304,-8810.098227
836.754336,888.247130,-1924.535449,-9499.584175
836.754656,0.000000,0.000000,-9882.631924
836.754976,-370.102971,1332.370696,-9806.022374
836.755296,0.000000,1776.494261,-9039.926876
836.755616,1332.370696,1702.473667,-10801.946522
836.755936,1480.411884,-296.082377,-10418.898773
836.756256,1258.350101,-1332.370696,-10495.508323
836.756576,0.000000,-1850.514855,-9806.022374
836.756896,-518.144159,-444.123565,-9806.022374
836.757216,-1702.473667,666.185348,-10112.460574
836.757536,-1628.453072,1628.453072,-9882.631924
836.757856,-444.123565,1184.329507,-10495.508323
836.758176,1776.494261,-666.185348,-10572.117872
836.758496,666.185348,-1554.432478,-10418.898773
836.758816,-370.102971,-2368.659014,-9959.241474
836.759136,0.000000,-1184.329507,-10342.289223
836.759456,1110.308913,962.267725,-10572.117872
836.759776,888.247130,2442.679609,-10418.898773
836.760096,666.185348,2220.617826,-9959.241474
836.760416,2442.679609,1258.350101,-10648.727422
836.760736,2812.782580,-962.267725,-10342.289223
836.761056,1406.391290,-3034.844362,-9959.241474
836.761376,-962.267725,-2146.597232,-9806.022374
836.761696,-1924.535449,-296.082377,-9652.803275
836.762016,370.102971,1776.494261,-10648.727422
836.762336,370.102971,2590.720797,-9959.241474
836.762656,-222.061783,1036.288319,-10112.460574
836.762976,148.041188,-740.205942,-9806.022374
836.763296,74.020594,-2220.617826,-9806.022374
836.763616,888.247130,-2442.679609,-9806.022374
836.763936,592.164754,-666.185348,-9806.022374
836.764256,0.000000,666.185348,-9806.022374
836.764576,-444.123565,1850.514855,-9806.022374
836.764896,148.041188,2072.576638,-9882.631924
836.765216,2072.576638,1554.432478,-10189.070123
836.765536,2072.576638,0.000000,-10495.508323
836.765856,1184.329507,-888.247130,-10035.851024
836.766176,0.000000,-1110.308913,-10418.898773
836.766496,222.061783,148.041188,-10342.289223
836.766816,-666.185348,740.205942,-9422.974625
836.767136,-740.205942,1184.329507,-9959.241474
836.767456,1554.432478,2294.638420,-10342.289223
836.767776,2738.761985,1998.556043,-10878.556072
836.768096,1406.391290,1480.411884,-9422.974625
836.768416,-296.082377,740.205942,-10189.070123
836.768736,-888.247130,444.123565,-10418.898773
836.769056,-814.226536,1184.329507,-10342.289223
836.769376,-814.226536,1924.535449,-9652.803275
836.769696,666.185348,1924.535449,-9959.241474
836.770016,1480.411884,1184.329507,-10265.679673
836.770336,2368.659014,0.000000,-10418.898773
836.770656,2220.617826,-1332.370696,-9806.022374
836.770976,666.185348,148.041188,-9806.022374
836.771296,1332.370696,1998.556043,-10189.070123
836.771616,814.226536,3552.988522,-10418.898773
836.771936,74.020594,3627.009116,-9806.022374
836.772256,518.144159,1480.411884,-9806.022374
836.772576,444.123565,-444.123565,-9806.022374
836.772896,962.267725,-2368.659014,-9806.022374
836.773216,1554.432478,-1628.453072,-9729.412825
836.773537,1406.391290,148.041188,-10265.679673
836.773857,518.144159,1554.432478,-10189.070123
836.774177,-296.082377,2516.700203,-10112.460574
836.774497,-444.123565,2072.576638,-9806.022374
836.774817,148.041188,814.226536,-10342.289223
836.775137,1110.308913,-296.082377,-10342.289223
836.775457,1110.308913,-1184.329507,-10112.460574
836.775777,1924.535449,-1110.308913,-10112.460574
836.776097,3034.844362,-518.144159,-10572.117872
836.776417,1110.308913,370.102971,-10112.460574
836.776737,-518.144159,2072.576638,-10955.165621
836.777057,-518.144159,2146.597232,-10265.679673
836.777377,296.082377,962.267725,-10342.289223
836.777697,296.082377,-814.226536,-10418.898773
836.778017,-1554.432478,-1776.494261,-9576.193725
836.778337,-1702.473667,-1998.556043,-10189.070123
836.778657,-296.082377,-1850.514855,-10265.679673
836.778977,592.164754,-222.061783,-10112.460574
836.779297,1332.370696,1332.370696,-10495.508323
836.779617,444.123565,1850.514855,-10572.117872
836.779937,222.061783,592.164754,-10265.679673
836.780257,-222.061783,-740.205942,-10648.727422
836.780577,-962.267725,-1406.391290,-9806.022374
836.780897,1184.329507,-1480.411884,-11721.261119
836.781217,1258.350101,-296.082377,-9882.631924
836.781537,-666.185348,444.123565,-9806.022374
836.781857,-666.185348,592.164754,-10112.460574
836.782177,-444.123565,-592.164754,-9882.631924
836.782497,-296.082377,-1702.473667,-10572.117872
836.782817,-222.061783,-1776.494261,-9576.193725
836.783137,1628.453072,-888.247130,-10112.460574
836.783457,1184.329507,148.041188,-9652.803275
836.783777,-148.041188,0.000000,-9499.584175
836.784097,0.000000,74.020594,-9499.584175
836.784417,592.164754,-148.041188,-9806.022374
836.784737,1998.556043,-666.185348,-10342.289223
836.785057,888.247130,-1184.329507,-9346.365076
836.785377,148.041188,-666.185348,-10189.070123
836.785697,0.000000,0.000000,-10189.070123
836.786017,-518.144159,296.082377,-10342.289223
836.786337,0.000000,0.000000,-9882.631924
836.786657,1850.514855,-148.041188,-9959.241474
836.786977,2072.576638,518.144159,-10725.336972
836.787297,148.041188,296.082377,-10342.289223
836.787617,-962.267725,370.102971,-9959.241474
836.787937,-592.164754,666.185348,-10265.679673
836.788257,74.020594,962.267725,-9959.241474
836.788577,296.082377,814.226536,-10189.070123
836.788897,444.123565,666.185348,-9882.631924
836.789217,1480.411884,592.164754,-10725.336972
836.789537,1258.350101,-148.041188,-9882.631924
836.789857,518.144159,-740.205942,-10189.070123
836.790177,74.020594,444.123565,-10342.289223
836.790497,518.144159,1258.350101,-10342.289223
836.790817,1184.329507,2220.617826,-9959.241474
836.791137,-370.102971,1480.411884,-9806.022374
836.791457,-1332.370696,222.061783,-9806.022374
836.791777,-370.102971,-1480.411884,-9806.022374
836.792097,444.123565,-2072.576638,-9652.803275
836.792417,1332.370696,296.082377,-9806.022374
836.792737,2146.597232,3034.844362,-10495.508323
836.793057,814.226536,3775.050304,-10418.898773
836.793377,0.000000,2220.617826,-9806.022374
836.793697,444.123565,0.000000,-9652.803275
836.794017,518.144159,-1184.329507,-9882.631924
836.794337,1776.494261,-1406.391290,-9959.241474
836.794657,2146.597232,-370.102971,-10265.679673
836.794977,1258.350101,1184.329507,-10495.508323
836.795297,2220.617826,2960.823768,-10878.556072
836.795617,888.247130,3330.926739,-10648.727422
836.795937,148.041188,2960.823768,-9882.631924
836.796257,962.267725,1998.556043,-10725.336972
836.796577,1850.514855,1406.391290,-9422.974625
836.796897,2072.576638,-814.226536,-10189.070123
836.797217,1702.473667,-1406.391290,-9806.022374
836.797537,1924.535449,222.061783,-10189.070123
836.797857,1332.370696,2220.617826,-10189.070123
836.798177,888.247130,2738.761985,-9346.365076
836.798497,592.164754,2442.679609,-9652.803275
836.798817,-222.061783,1110.308913,-9882.631924
836.799137,-370.102971,518.144159,-9806.022374
836.799457,-518.144159,222.061783,-9116.536426
836.799777,148.041188,814.226536,-9882.631924
836.800097,1628.453072,1776.494261,-10112.460574
836.800417,2146.597232,666.185348,-9806.022374
836.800737,1036.288319,74.020594,-9346.365076
836.801057,592.164754,0.000000,-9346.365076
836.801377,518.144159,-1184.329507,-9729.412825
836.801697,518.144159,-2294.638420,-9269.755526
836.802017,592.164754,-1776.494261,-9499.584175
836.802338,-962.267725,-592.164754,-9882.631924
836.802658,-962.267725,0.000000,-9959.241474
836.802978,-1554.432478,814.226536,-10189.070123
836.803298,-1184.329507,370.102971,-9959.241474
836.803618,148.041188,-444.123565,-10495.508323
836.803938,-148.041188,-1776.494261,-9959.241474
836.804258,-962.267725,-1998.556043,-10112.460574
836.804578,-1036.288319,-814.226536,-10265.679673
836.804898,-1184.329507,370.102971,-10495.508323
836.805218,-1628.453072,1110.308913,-10572.117872
836.805538,-518.144159,444.123565,-10418.898773
836.805858,1702.473667,0.000000,-10725.336972
836.806178,2146.597232,-888.247130,-10955.165621
836.806498,1924.535449,-1110.308913,-10801.946522
836.806818,0.000000,-370.102971,-9959.241474
836.807138,0.000000,370.102971,-10878.556072
836.807458,666.185348,222.061783,-10265.679673
836.807778,370.102971,222.061783,-10189.070123
836.808098,592.164754,-666.185348,-10112.460574
836.808418,2368.659014,-888.247130,-10495.508323
836.808738,2960.823768,-666.185348,-10265.679673
836.809058,1998.556043,-666.185348,-9959.241474
836.809378,1554.432478,-296.082377,-9346.365076
836.809698,1184.329507,-1110.308913,-9806.022374
836.810018,-814.226536,-740.205942,-9806.022374
836.810338,-2146.597232,-296.082377,-9806.022374
836.810658,-1406.391290,-148.041188,-9576.193725
836.810978,-370.102971,222.061783,-9576.193725
836.811298,444.123565,-1332.370696,-9959.241474
836.811618,962.267725,-1628.453072,-9499.584175
836.811938,1332.370696,-1480.411884,-9959.241474
836.812258,74.020594,-222.061783,-9729.412825
836.812578,0.000000,444.123565,-9806.022374
836.812898,74.020594,1036.288319,-10112.460574
836.813218,962.267725,518.144159,-10265.679673
836.813538,1332.370696,-592.164754,-10342.289223
836.813858,1184.329507,-814.226536,-9806.022374
836.814178,740.205942,370.102971,-10648.727422
836.814498,148.041188,1406.391290,-10725.336972
836.814818,-888.247130,1924.535449,-10495.508323
836.815138,-2146.597232,1480.411884,-10112.460574
836.815458,-1850.514855,1332.370696,-10648.727422
836.815778,-814.226536,-666.185348,-10265.679673
836.816098,-222.061783,222.061783,-10955.165621
836.816418,-296.082377,888.247130,-9882.631924
836.816738,1332.370696,2442.679609,-11108.384721
836.817058,296.082377,2812.782580,-9959.241474
836.817378,-370.102971,3182.885551,-10265.679673
836.817698,0.000000,1776.494261,-9959.241474
836.818018,2072.576638,888.247130,-9729.412825
836.818338,2368.659014,-1036.288319,-9806.022374
836.818658,1776.494261,-444.123565,-9806.022374
836.818978,2072.576638,148.041188,-9652.803275
836.819298,2072.576638,2442.679609,-9959.241474
836.819618,592.164754,3849.070898,-9882.631924
836.819938,888.247130,3701.029710,-9576.193725
836.820258,2294.638420,1702.473667,-9806.022374
836.820578,2812.782580,-518.144159,-9729.412825
836.820898,2072.576638,-1702.473667,-9576.193725
836.821218,962.267725,-888.247130,-9039.926876
836.821538,1258.350101,814.226536,-9652.803275
836.821858,370.102971,1998.556043,-9806.022374
836.822178,444.123565,2738.761985,-9422.974625
836.822498,1110.308913,1258.350101,-9806.022374
836.822818,1998.556043,0.000000,-10189.070123
836.823138,1702.473667,-296.082377,-10342.289223
836.823458,1110.308913,-148.041188,-9806.022374
836.823778,1628.453072,1036.288319,-10342.289223
836.824098,1036.288319,1184.329507,-10189.070123
836.824418,-222.061783,1184.329507,-10265.679673
836.824738,-1628.453072,296.082377,-9729.412825
836.825058,370.102971,1036.288319,-11031.775171
836.825378,888.247130,74.020594,-10648.727422
836.825698,1332.370696,222.061783,-11108.384721
836.826018,444.123565,-444.123565,-10418.898773
836.826338,-666.185348,-370.102971,-10801.946522
836.826658,-1628.453072,666.185348,-10418.898773
836.826978,-2072.576638,370.102971,-10418.898773
836.827298,-296.082377,444.123565,-10725.336972
836.827618,148.041188,0.000000,-10265.679673
836.827938,1332.370696,-370.102971,-10112.460574
836.828258,1258.350101,-518.144159,-10342.289223
836.828578,814.226536,-74.020594,-10265.679673
836.828898,-444.123565,0.000000,-10342.289223
836.829218,-2072.576638,74.020594,-9576.193725
836.829538,-1924.535449,0.000000,-9806.022374
836.829858,148.041188,-814.226536,-9882.631924
836.830178,1480.411884,-962.267725,-10035.851024
836.830498,222.061783,-2442.679609,-9422.974625
836.830818,666.185348,-296.082377,-9729.412825
836.831139,1036.288319,444.123565,-9806.022374
836.831459,1258.350101,0.000000,-9652.803275
836.831779,592.164754,-222.061783,-9576.193725
836.832099,296.082377,-1480.411884,-10035.851024
836.832419,1628.453072,-2590.720797,-10189.070123
836.832739,1332.370696,-1924.535449,-9652.803275
836.833059,962.267725,0.000000,-9882.631924
836.833379,296.082377,1554.432478,-10189.070123
836.833699,296.082377,1554.432478,-10189.070123
836.834019,0.000000,1110.308913,-10189.070123
836.834339,0.000000,-740.205942,-9806.022374
836.834659,296.082377,-740.205942,-10342.289223
836.834979,0.000000,-1332.370696,-10189.070123
836.835299,518.144159,-1184.329507,-10112.460574
836.835619,444.123565,74.020594,-9806.022374
836.835939,518.144159,740.205942,-10801.946522
836.836259,0.000000,1850.514855,-10495.508323
836.836579,-148.041188,1924.535449,-10495.508323
836.836899,1258.350101,1258.350101,-10418.898773
836.837219,1776.494261,0.000000,-10495.508323
836.837539,814.226536,-888.247130,-10648.727422
836.837859,-296.082377,-148.041188,-8733.488677
836.838179,1406.391290,518.144159,-10648.727422
836.838499,592.164754,1406.391290,-10495.508323
836.838819,-666.185348,1702.473667,-10112.460574
836.839139,-962.267725,1406.391290,-9806.022374
836.839459,74.020594,148.041188,-9422.974625
836.839779,74.020594,-370.102971,-10265.679673
836.840099,-888.247130,0.000000,-9959.241474
836.840419,-1258.350101,592.164754,-9346.365076
836.840739,592.164754,1184.329507,-9806.022374
836.841059,1924.535449,1480.411884,-9959.241474
836.841379,962.267725,1628.453072,-9882.631924
836.841699,296.082377,814.226536,-10342.289223
836.842019,1480.411884,0.000000,-9806.022374
836.842339,1258.350101,0.000000,-9882.631924
836.842659,1036.288319,222.061783,-9576.193725
836.842979,1554.432478,222.061783,-9806.022374
836.843299,1036.288319,1406.391290,-9882.631924
836.843619,1406.391290,222.061783,-9806.022374
836.843939,1406.391290,888.247130,-9729.412825
836.844259,2146.597232,0.000000,-10342.289223
836.844579,1332.370696,592.164754,-10112.460574
836.844899,148.041188,296.082377,-9806.022374
836.845219,888.247130,888.247130,-10035.851024
836.845539,148.041188,1850.514855,-10648.727422
836.845859,-592.164754,1258.350101,-10265.679673
836.846179,0.000000,2368.659014,-10035.851024
836.846499,592.164754,1924.535449,-9346.365076
836.846819,2516.700203,222.061783,-10495.508323
836.847139,1554.432478,-740.205942,-9959.241474
836.847459,0.000000,-1480.411884,-9959.241474
836.847779,370.102971,592.164754,-10189.070123
836.848099,148.041188,2294.638420,-10035.851024
836.848419,-222.061783,2812.782580,-10572.117872
836.848739,-148.041188,2072.576638,-9882.631924
836.849059,1110.308913,74.020594,-10418.898773
836.849379,1702.473667,74.020594,-10035.851024
836.849699,592.164754,-222.061783,-9959.241474
836.850019,666.185348,0.000000,-9882.631924
836.850339,666.185348,518.144159,-10035.851024
836.850659,-296.082377,74.020594,-10035.851024
836.850979,-1036.288319,1110.308913,-9652.803275
836.851299,-1110.308913,-444.123565,-9729.412825
836.851619,740.205942,-1628.453072,-10342.289223
836.851939,740.205942,-2664.741391,-9959.241474
836.852259,222.061783,-2368.659014,-9576.193725
836.852579,-148.041188,-1258.350101,-9959.241474
836.852899,-1258.350101,592.164754,-9959.241474
836.853219,-2220.617826,1998.556043,-10265.679673
836.853539,-1628.453072,1184.329507,-9959.241474
836.853859,370.102971,-222.061783,-10495.508323
836.854179,1702.473667,-1480.411884,-10648.727422
836.854499,1998.556043,-2368.659014,-10265.679673
836.854819,2368.659014,-1184.329507,-10648.727422
836.855139,740.205942,296.082377,-10725.336972
836.855459,296.082377,1258.350101,-10495.508323
836.855780,-1258.350101,1702.473667,-9806.022374
836.856100,740.205942,888.247130,-10572.117872
836.856420,2146.597232,-370.102971,-10955.165621
836.856740,1480.411884,-1480.411884,-10648.727422
836.857060,888.247130,-1184.329507,-9882.631924
836.857380,1036.288319,444.123565,-10878.556072
836.857700,814.226536,2812.782580,-10495.508323
836.858020,-370.102971,3182.885551,-10418.898773
836.858340,-1702.473667,1628.453072,-9729.412825
836.858660,-592.164754,-296.082377,-9959.241474
836.858980,888.247130,-2146.597232,-10418.898773
836.859300,1332.370696,-2146.597232,-9806.022374
836.859620,814.226536,-1332.370696,-9806.022374
836.859940,0.000000,518.144159,-10035.851024
836.860260,-148.041188,2072.576638,-10189.070123
836.860580,-962.267725,1998.556043,-10035.851024
836.860900,518.144159,1110.308913,-9806.022374
836.861220,296.082377,518.144159,-10035.851024
836.861541,518.144159,-740.205942,-9959.241474
836.861861,888.247130,-814.226536,-9576.193725
836.862181,740.205942,370.102971,-9652.803275
836.862501,296.082377,1110.308913,-9806.022374
836.862821,-1332.370696,1850.514855,-9729.412825
836.863141,-1110.308913,1628.453072,-9806.022374
836.863461,0.000000,740.205942,-10035.851024
836.863781,-222.061783,-222.061783,-9806.022374
836.864101,-444.123565,-740.205942,-9882.631924
836.864421,-370.102971,444.123565,-9882.631924
836.864741,0.000000,1702.473667,-10112.460574
836.865061,518.144159,2516.700203,-10112.460574
836.865381,74.020594,1924.535449,-9576.193725
836.865701,962.267725,1628.453072,-10495.508323
836.866021,1480.411884,0.000000,-10112.460574
836.866341,1406.391290,0.000000,-10495.508323
836.866661,1554.432478,0.000000,-9729.412825
836.866981,2442.679609,1554.432478,-10495.508323
836.867302,1702.473667,2368.659014,-10112.460574
836.867622,2146.597232,3256.906145,-10572.117872
836.867942,2590.720797,2516.700203,-10112.460574
836.868262,4145.153275,1776.494261,-10878.556072
836.868582,2294.638420,74.020594,-10418.898773
836.868902,74.020594,-1924.535449,-9882.631924
836.869222,444.123565,-962.267725,-9576.193725
836.869542,0.000000,444.123565,-10035.851024
836.869862,1036.288319,1406.391290,-9882.631924
836.870182,1258.350101,1628.453072,-9959.241474
836.870502,1406.391290,444.123565,-10265.679673
836.870822,2146.597232,222.061783,-10189.070123
836.871142,1998.556043,-222.061783,-10418.898773
836.871462,962.267725,-962.267725,-9959.241474
836.871782,-1258.350101,-592.164754,-9652.803275
836.872102,-1332.370696,148.041188,-9806.022374
836.872422,-222.061783,-1332.370696,-9729.412825
836.872742,1332.370696,-1258.350101,-9729.412825
836.873063,2442.679609,-1036.288319,-10265.679673
836.873383,1998.556043,0.000000,-10035.851024
836.873703,814.226536,592.164754,-10035.851024
836.874023,0.000000,1110.308913,-9882.631924
836.874343,-1480.411884,1332.370696,-10495.508323
836.874663,-3552.988522,-296.082377,-10189.070123
836.874983,-3330.926739,-1702.473667,-9499.584175
836.875303,-814.226536,-1998.556043,-9806.022374
836.875623,1480.411884,-1998.556043,-10342.289223
836.875943,888.247130,-2368.659014,-10342.289223
836.876263,1480.411884,-1332.370696,-10112.460574
836.876583,740.205942,814.226536,-10572.117872
836.876903,-444.123565,1850.514855,-10342.289223
836.877223,0.000000,2294.638420,-10801.946522
836.877543,-1628.453072,888.247130,-10189.070123
836.877863,-1554.432478,296.082377,-10418.898773
836.878183,74.020594,-2368.659014,-10265.679673
836.878503,1184.329507,-3182.885551,-10035.851024
836.878823,222.061783,-2294.638420,-9652.803275
836.879144,-370.102971,814.226536,-10725.336972
836.879464,-1036.288319,2368.659014,-9959.241474
836.879784,-814.226536,2812.782580,-10342.289223
836.880104,148.041188,370.102971,-9882.631924
836.880424,666.185348,-2294.638420,-9806.022374
836.880744,0.000000,-3478.967927,-9346.365076
836.881064,962.267725,-2886.803174,-9422.974625
836.881384,1850.514855,370.102971,-10035.851024
836.881704,1776.494261,1776.494261,-10342.289223
836.882024,0.000000,2442.679609,-10035.851024
836.882344,-1110.308913,1332.370696,-9806.022374
836.882664,0.000000,1776.494261,-10342.289223
836.882984,-592.164754,518.144159,-9806.022374
836.883304,0.000000,-1036.288319,-10035.851024
836.883624,-222.061783,-1406.391290,-9806.022374
836.883944,222.061783,-1036.288319,-10265.679673
836.884264,0.000000,0.000000,-10035.851024
836.884584,888.247130,1184.329507,-10112.460574
836.884905,1554.432478,2960.823768,-10418.898773
836.885225,1258.350101,2886.803174,-10648.727422
836.885545,518.144159,1332.370696,-10495.508323
836.885865,222.061783,962.267725,-9882.631924
836.886185,1258.350101,148.041188,-10878.556072
836.886505,1184.329507,-74.020594,-10342.289223
836.886825,1554.432478,296.082377,-10265.679673
836.887145,444.123565,962.267725,-10112.460574
836.887465,222.061783,1776.494261,-10342.289223
836.887785,74.020594,592.164754,-10342.289223
836.888105,0.000000,1406.391290,-9806.022374
836.888425,0.000000,962.267725,-9729.412825
836.888745,296.082377,296.082377,-10035.851024
836.889065,1036.288319,888.247130,-10035.851024
836.889385,1258.350101,1258.350101,-10265.679673
836.889705,3108.864956,814.226536,-10495.508323
836.890025,2812.782580,0.000000,-10035.851024
836.890345,2072.576638,370.102971,-9806.022374
836.890666,1036.288319,1554.432478,-9576.193725
836.890986,740.205942,2294.638420,-9806.022374
836.891306,1036.288319,2220.617826,-9806.022374
836.891626,1480.411884,2146.597232,-9729.412825
836.891946,888.247130,0.000000,-9652.803275
836.892266,2886.803174,-3034.844362,-9806.022374
836.892586,2072.576638,-2146.597232,-9729.412825
836.892906,666.185348,-1554.432478,-9422.974625
836.893226,2220.617826,1406.391290,-10189.070123
836.893546,1332.370696,2738.761985,-10035.851024
836.893866,-1036.288319,3256.906145,-10572.117872
836.894186,-1332.370696,1998.556043,-9576.193725
836.894506,1036.288319,888.247130,-10418.898773
836.894826,1628.453072,-370.102971,-10342.289223
836.895146,814.226536,-1628.453072,-10418.898773
836.895466,-1110.308913,-888.247130,-9882.631924
836.895786,-814.226536,0.000000,-10878.556072
836.896106,-740.205942,518.144159,-10342.289223
836.896427,-1480.411884,1628.453072,-10572.117872
836.896747,-1554.432478,1480.411884,-10265.679673
836.897067,74.020594,666.185348,-10801.946522
836.897387,-222.061783,74.020594,-10725.336972
836.897707,1332.370696,-1480.411884,-10418.898773
836.898027,1406.391290,-1332.370696,-10342.289223
836.898347,962.267725,-370.102971,-10342.289223
836.898667,-222.061783,888.247130,-10189.070123
836.898987,-1702.473667,592.164754,-9576.193725
836.899307,-1036.288319,-370.102971,-10265.679673
836.899627,148.041188,-1850.514855,-9806.022374
836.899947,0.000000,-1332.370696,-10112.460574
836.900267,-222.061783,-1258.350101,-9652.803275
836.900587,148.041188,666.185348,-9652.803275
836.900907,-222.061783,666.185348,-10112.460574
836.901227,296.082377,370.102971,-10035.851024
836.901547,962.267725,-296.082377,-9269.755526
836.901867,2368.659014,-1406.391290,-9959.241474
836.902187,1924.535449,-1702.473667,-9882.631924
836.902508,370.102971,-888.247130,-9729.412825
836.902828,0.000000,518.144159,-9806.022374
836.903148,1406.391290,1480.411884,-10342.289223
836.903468,1776.494261,2072.576638,-9499.584175
836.903788,962.267725,1628.453072,-9959.241474
836.904108,1628.453072,222.061783,-10418.898773
836.904428,1332.370696,-592.164754,-10189.070123
836.904748,666.185348,-962.267725,-10189.070123
836.905068,444.123565,-592.164754,-9729.412825
836.905388,814.226536,-518.144159,-10572.117872
836.905708,-222.061783,518.144159,-10112.460574
836.906028,-1480.411884,1258.350101,-10189.070123
836.906348,-592.164754,1480.411884,-10342.289223
836.906668,1258.350101,888.247130,-10878.556072
836.906988,1258.350101,740.205942,-11261.603821
836.907308,148.041188,370.102971,-10495.508323
836.907628,-148.041188,222.061783,-9576.193725
836.907948,-222.061783,1110.308913,-10418.898773
836.908269,-2072.576638,1702.473667,-10189.070123
836.908589,-1332.370696,962.267725,-10265.679673
836.908909,1184.329507,370.102971,-10418.898773
836.909229,2738.761985,222.061783,-10035.851024
836.909549,1480.411884,0.000000,-9959.241474
836.909869,814.226536,74.020594,-9652.803275
836.910189,222.061783,370.102971,-10572.117872
836.910509,296.082377,1332.370696,-9806.022374
836.910829,-740.205942,1628.453072,-9729.412825
836.911149,-148.041188,518.144159,-9652.803275
836.911469,962.267725,296.082377,-10112.460574
836.911789,962.267725,-148.041188,-10112.460574
836.912109,0.000000,-148.041188,-9652.803275
836.912429,296.082377,222.061783,-9499.584175
836.912749,888.247130,1258.350101,-9959.241474
836.913069,740.205942,888.247130,-9806.022374
836.913389,296.082377,518.144159,-9576.193725
836.913709,1036.288319,-740.205942,-9806.022374
836.914030,2072.576638,-814.226536,-10189.070123
836.914350,2220.617826,0.000000,-10112.460574
836.914670,1776.494261,1036.288319,-10342.289223
836.914990,2368.659014,2516.700203,-10342.289223
836.915310,1184.329507,2368.659014,-10112.460574
836.915630,0.000000,1036.288319,-10265.679673
836.915950,962.267725,-888.247130,-9959.241474
836.916270,1998.556043,-1036.288319,-11261.603821
836.916590,1406.391290,-1702.473667,-10418.898773
836.916910,-740.205942,-814.226536,-9806.022374
836.917230,-1184.329507,518.144159,-10265.679673
836.917550,-1258.350101,1110.308913,-10418.898773
836.917870,-370.102971,1850.514855,-10189.070123
836.918190,1036.288319,962.267725,-10572.117872
836.918510,2812.782580,222.061783,-10648.727422
836.918830,2294.638420,444.123565,-10725.336972
836.919150,1036.288319,-814.226536,-10495.508323
836.919470,-370.102971,222.061783,-10112.460574
836.919791,-1406.391290,222.061783,-10112.460574
836.920111,-2368.659014,592.164754,-9806.022374
836.920431,-2664.741391,-370.102971,-9576.193725
836.920751,-814.226536,-888.247130,-10112.460574
836.921071,518.144159,-1628.453072,-10342.289223
836.921391,296.082377,-814.226536,-9959.241474
836.921711,-296.082377,0.000000,-9806.022374
836.922031,962.267725,1110.308913,-9729.412825
836.922351,962.267725,1480.411884,-10035.851024
836.922671,444.123565,1258.350101,-10112.460574
836.922991,814.226536,0.000000,-9346.365076
836.923311,1776.494261,-1406.391290,-9882.631924
836.923631,2368.659014,-2146.597232,-9806.022374
836.923951,888.247130,-2294.638420,-9269.755526
836.924271,-222.061783,-888.247130,-9422.974625
836.924591,222.061783,962.267725,-9729.412825
836.924911,148.041188,2146.597232,-10189.070123
836.925231,-740.205942,1258.350101,-10265.679673
836.925551,444.123565,-1036.288319,-9652.803275
836.925872,1702.473667,-2442.679609,-10112.460574
836.926192,2442.679609,-2590.720797,-10035.851024
836.926512,1258.350101,-814.226536,-9959.241474
836.926832,666.185348,1702.473667,-10572.117872
836.927152,518.144159,3849.070898,-10725.336972
836.927472,74.020594,4219.173869,-10955.165621
836.927792,444.123565,2368.659014,-10725.336972
836.928112,1628.453072,-592.164754,-10648.727422
836.928432,1480.411884,-2516.700203,-10495.508323
836.928752,222.061783,-2294.638420,-10112.460574
836.929072,296.082377,-296.082377,-9882.631924
836.929392,1184.329507,2442.679609,-10495.508323
836.929712,592.164754,3849.070898,-10572.117872
836.930032,0.000000,2664.741391,-9806.022374
836.930352,-148.041188,1184.329507,-9806.022374
836.930672,0.000000,-592.164754,-10035.851024
836.930992,-1184.329507,-1998.556043,-9882.631924
836.931312,-1406.391290,-1850.514855,-9499.584175
836.931633,-962.267725,-962.267725,-9652.803275
836.931953,-296.082377,666.185348,-9806.022374
836.932273,-1184.329507,1628.453072,-9806.022374
836.932593,-444.123565,1850.514855,-9652.803275
836.932913,1628.453072,1406.391290,-10035.851024
836.933233,2886.803174,296.082377,-10035.851024
836.933553,1480.411884,-740.205942,-8963.317327
836.933873,592.164754,-1184.329507,-9193.145976
836.934193,0.000000,0.000000,-9882.631924
836.934513,-888.247130,814.226536,-10342.289223
836.934833,-1776.494261,2294.638420,-9346.365076
836.935153,-1110.308913,1628.453072,-9806.022374
836.935473,740.205942,1258.350101,-10112.460574
836.935793,814.226536,296.082377,-10878.556072
836.936113,0.000000,444.123565,-10495.508323
836.936433,-888.247130,370.102971,-10648.727422
836.936753,-296.082377,1332.370696,-10265.679673
836.937073,222.061783,1258.350101,-10342.289223
836.937394,1110.308913,1110.308913,-10418.898773
836.937714,2220.617826,962.267725,-11721.261119
836.938034,3256.906145,740.205942,-10572.117872
836.938354,3775.050304,1480.411884,-10878.556072
836.938674,2664.741391,1924.535449,-10801.946522
836.938994,1406.391290,2516.700203,-9959.241474
836.939314,1184.329507,1998.556043,-10265.679673
836.939634,666.185348,592.164754,-9882.631924
836.939954,1332.370696,-740.205942,-10189.070123
836.940274,2812.782580,-1258.350101,-10035.851024
836.940594,1924.535449,-1406.391290,-10112.460574
836.940914,0.000000,0.000000,-9729.412825
836.941234,74.020594,1258.350101,-10035.851024
836.941554,888.247130,1480.411884,-9806.022374
836.941874,444.123565,1480.411884,-9729.412825
836.942194,592.164754,148.041188,-9652.803275
836.942514,1406.391290,-1184.329507,-10112.460574
836.942834,1480.411884,-2072.576638,-9882.631924
836.943155,444.123565,-2294.638420,-9422.974625
836.943475,0.000000,-1406.391290,-8580.269578
836.943795,222.061783,148.041188,-9806.022374
836.944115,592.164754,1554.432478,-9806.022374
836.944435,592.164754,1480.411884,-9959.241474
836.944755,962.267725,962.267725,-9959.241474
836.945075,1406.391290,-1110.308913,-9806.022374
836.945395,888.247130,-1998.556043,-10189.070123
836.945715,-444.123565,-1554.432478,-9729.412825
836.946035,-1110.308913,-444.123565,-9959.241474
836.946355,-814.226536,1776.494261,-10035.851024
836.946675,-740.205942,1480.411884,-10189.070123
836.946995,-1184.329507,1924.535449,-9959.241474
836.947315,-1110.308913,0.000000,-10878.556072
836.947635,-222.061783,-1110.308913,-11031.775171
836.947955,74.020594,-2294.638420,-10265.679673
836.948275,-962.267725,-1554.432478,-9959.241474
836.948595,-1036.288319,814.226536,-10418.898773
836.948915,-222.061783,1480.411884,-10189.070123
836.949236,1036.288319,814.226536,-10342.289223
836.949556,2442.679609,814.226536,-10801.946522
836.949876,2960.823768,0.000000,-10725.336972
836.950196,2146.597232,-518.144159,-10495.508323
836.950516,222.061783,-666.185348,-9729.412825
836.950836,-370.102971,444.123565,-10418.898773
836.951156,-444.123565,518.144159,-10418.898773
836.951476,-888.247130,148.041188,-10112.460574
836.951796,-1628.453072,-666.185348,-9499.584175
836.952116,148.041188,-1258.350101,-10112.460574
836.952436,444.123565,-1258.350101,-10189.070123
836.952756,1110.308913,-222.061783,-10112.460574
836.953076,296.082377,888.247130,-9806.022374
836.953396,592.164754,2590.720797,-10572.117872
836.953716,-740.205942,2368.659014,-10112.460574
836.954036,-370.102971,1184.329507,-10189.070123
836.954356,370.102971,-74.020594,-10495.508323
836.954676,2442.679609,-1776.494261,-10265.679673
836.954996,1554.432478,-1776.494261,-10189.070123
836.955317,888.247130,0.000000,-10189.070123
836.955637,222.061783,666.185348,-10342.289223
836.955957,-1480.411884,2886.803174,-10495.508323
836.956277,-2220.617826,4441.235652,-9882.631924
836.956597,-1110.308913,1850.514855,-9806.022374
836.956917,1258.350101,-148.041188,-9806.022374
836.957237,1776.494261,-3108.864956,-10418.898773
836.957557,222.061783,-1406.391290,-10035.851024
836.957877,-814.226536,-962.267725,-10035.851024
836.958197,-222.061783,3552.988522,-10035.851024
836.958517,592.164754,4663.297435,-10418.898773
836.958837,-74.020594,3478.967927,-9882.631924
836.959157,370.102971,2146.597232,-9729.412825
836.959477,1554.432478,-1850.514855,-9882.631924
836.959797,3775.050304,-3256.906145,-9652.803275
836.960117,2072.576638,-2812.782580,-9346.365076
836.960437,2368.659014,-518.144159,-9882.631924
836.960757,1258.350101,2072.576638,-10035.851024
836.961077,-148.041188,3034.844362,-9576.193725
836.961397,-888.247130,2590.720797,-10265.679673
836.961717,-666.185348,-370.102971,-9959.241474
836.962037,2072.576638,-740.205942,-9806.022374
836.962357,2516.700203,-2220.617826,-10035.851024
836.962677,2738.761985,-1036.288319,-9959.241474
836.962998,2368.659014,74.020594,-10342.289223
836.963318,666.185348,2072.576638,-10648.727422
836.963638,-518.144159,3108.864956,-9959.241474
836.963958,-222.061783,2442.679609,-10648.727422
836.964278,814.226536,592.164754,-10495.508323
836.964598,1332.370696,-2072.576638,-10572.117872
836.964918,1480.411884,-2516.700203,-9806.022374
836.965238,814.226536,-518.144159,-10725.336972
836.965558,148.041188,2220.617826,-10878.556072
836.965878,-962.267725,2368.659014,-11261.603821
836.966198,-1628.453072,1554.432478,-10342.289223
836.966518,666.185348,444.123565,-10725.336972
836.966838,1850.514855,-1036.288319,-10418.898773
836.967158,1184.329507,-2146.597232,-9959.241474
836.967478,1110.308913,-2442.679609,-9652.803275
836.967798,740.205942,-1110.308913,-10342.289223
836.968118,1184.329507,592.164754,-9806.022374
836.968438,74.020594,814.226536,-9346.365076
836.968758,370.102971,296.082377,-9806.022374
836.969078,2368.659014,-1480.411884,-10035.851024
836.969398,1184.329507,-3108.864956,-9959.241474
836.969718,-740.205942,-3256.906145,-9269.755526
836.970038,-2072.576638,-1480.411884,-9422.974625
836.970359,-2590.720797,592.164754,-9499.584175
836.970679,-2590.720797,1628.453072,-9959.241474
836.970999,-1850.514855,1554.432478,-9346.365076
836.971319,0.000000,0.000000,-10265.679673
836.971639,1702.473667,-1998.556043,-10189.070123
836.971959,2220.617826,-3034.844362,-9806.022374
836.972279,1332.370696,-2442.679609,-9806.022374
836.972599,814.226536,444.123565,-10035.851024
836.972919,444.123565,2960.823768,-10572.117872
836.973239,222.061783,2812.782580,-9729.412825
836.973559,-740.205942,1332.370696,-10572.117872
836.973879,148.041188,-148.041188,-10725.336972
836.974199,962.267725,-1036.288319,-10725.336972
836.974519,1998.556043,-1480.411884,-10801.946522
836.974839,1850.514855,-222.061783,-11338.213370
836.975159,-1258.350101,1406.391290,-10572.117872
836.975479,-2368.659014,1406.391290,-10495.508323
836.975799,-444.123565,296.082377,-9882.631924
836.976119,1776.494261,-1110.308913,-12104.308868
836.976439,3034.844362,-740.205942,-10495.508323
836.976759,3256.906145,-740.205942,-10189.070123
836.977079,2960.823768,1036.288319,-10648.727422
836.977399,1998.556043,2368.659014,-9499.584175
836.977719,0.000000,2294.638420,-10112.460574
836.978040,-2664.741391,2812.782580,-9652.803275
836.978360,-1332.370696,1258.350101,-9882.631924
836.978680,148.041188,-296.082377,-9806.022374
836.979000,518.144159,-2072.576638,-9882.631924
836.979320,370.102971,-1850.514855,-9422.974625
836.979640,592.164754,0.000000,-9959.241474
836.979960,814.226536,3404.947333,-10189.070123
836.980280,-1258.350101,4737.318029,-9959.241474
836.980600,-1480.411884,2738.761985,-9652.803275
836.980920,-592.164754,962.267725,-10035.851024
836.981240,1628.453072,-444.123565,-10112.460574
836.981560,1258.350101,-962.267725,-10112.460574
836.981880,1332.370696,-296.082377,-8810.098227
836.982200,1406.391290,1184.329507,-10189.070123
836.982520,0.000000,3108.864956,-9882.631924
836.982840,-518.144159,3330.926739,-9806.022374
836.983160,148.041188,1776.494261,-9882.631924
836.983480,1110.308913,-222.061783,-10035.851024
836.983800,1702.473667,-1554.432478,-10112.460574
836.984120,1110.308913,-740.205942,-9882.631924
836.984440,-148.041188,296.082377,-10112.460574
836.984760,74.020594,2812.782580,-9729.412825
836.985080,-1702.473667,2812.782580,-10189.070123
836.985401,-1258.350101,3108.864956,-10112.460574
836.985721,74.020594,3034.844362,-10572.117872
836.986041,1850.514855,1184.329507,-10801.946522
836.986361,2664.741391,-518.144159,-10265.679673
836.986681,2294.638420,-888.247130,-9729.412825
836.987001,1924.535449,-888.247130,-9882.631924
836.987321,518.144159,666.185348,-9882.631924
836.987641,-370.102971,1850.514855,-9959.241474
836.987961,370.102971,2664.741391,-10112.460574
836.988281,2590.720797,1258.350101,-9959.241474
836.988601,3256.906145,-740.205942,-9882.631924
836.988921,2738.761985,-1924.535449,-9499.584175
836.989241,740.205942,-444.123565,-10189.070123
836.989561,-296.082377,444.123565,-9959.241474
836.989881,-1110.308913,1258.350101,-9882.631924
836.990201,-1036.288319,1702.473667,-9652.803275
836.990521,592.164754,-444.123565,-9882.631924
836.990841,666.185348,-2146.597232,-10189.070123
