#time,accel_x,accel_y,accel_z
1536.246890,-153.178311,-153.178311,10722.481770
1536.247193,-153.178311,76.589155,10722.481770
1536.247496,0.000000,-153.178311,10952.249236
1536.247799,76.589155,76.589155,10722.481770
1536.248101,-153.178311,0.000000,10952.249236
1536.248417,0.000000,229.767466,10952.249236
1536.248718,76.589155,76.589155,10799.070925
1536.249020,76.589155,0.000000,10799.070925
1536.249322,76.589155,76.589155,10799.070925
1536.249623,-153.178311,76.589155,10952.249236
1536.249925,229.767466,0.000000,10799.070925
1536.250227,-153.178311,76.589155,11105.427547
1536.250529,0.000000,76.589155,11105.427547
1536.250832,76.589155,76.589155,10952.249236
1536.251136,0.000000,76.589155,10952.249236
1536.251439,-153.178311,76.589155,11105.427547
1536.251742,-153.178311,382.945777,10799.070925
1536.252046,0.000000,-153.178311,10799.070925
1536.252349,0.000000,76.589155,10952.249236
1536.252653,-306.356622,76.589155,10722.481770
1536.252956,0.000000,76.589155,10952.249236
1536.253272,76.589155,76.589155,10952.249236
1536.253574,0.000000,229.767466,10952.249236
1536.253875,-459.534933,76.589155,10952.249236
1536.254177,0.000000,229.767466,10952.249236
1536.254479,76.589155,-153.178311,10952.249236
1536.254780,-306.356622,-153.178311,10799.070925
1536.255082,-306.356622,76.589155,10952.249236
1536.255384,0.000000,229.767466,10952.249236
1536.255699,229.767466,229.767466,10952.249236
1536.256001,-153.178311,76.589155,10799.070925
1536.256303,0.000000,229.767466,10799.070925
1536.256604,76.589155,-153.178311,11105.427547
1536.256906,76.589155,76.589155,10952.249236
1536.257208,-306.356622,76.589155,10952.249236
1536.257510,-153.178311,229.767466,10722.481770
1536.257812,76.589155,76.589155,10799.070925
1536.258115,76.589155,76.589155,10952.249236
1536.258418,-153.178311,0.000000,10952.249236
1536.258722,-306.356622,229.767466,10722.481770
1536.259026,-153.178311,-153.178311,11105.427547
1536.259329,0.000000,76.589155,10952.249236
1536.259633,-306.356622,0.000000,10799.070925
1536.259936,0.000000,0.000000,10952.249236
1536.260240,0.000000,0.000000,10722.481770
1536.260556,76.589155,76.589155,10952.249236
1536.260857,76.589155,229.767466,10722.481770
1536.261159,-153.178311,0.000000,10799.070925
1536.261461,-153.178311,76.589155,10799.070925
1536.261763,229.767466,76.589155,10952.249236
1536.262064,0.000000,-153.178311,10799.070925
1536.262366,-153.178311,76.589155,10799.070925
1536.262668,76.589155,76.589155,11105.427547
1536.262971,0.000000,382.945777,10952.249236
1536.263274,-306.356622,229.767466,10722.481770
1536.263578,0.000000,382.945777,10799.070925
1536.263881,0.000000,0.000000,10952.249236
1536.264185,-153.178311,-153.178311,11105.427547
1536.264488,-306.356622,-153.178311,10952.249236
1536.264792,-153.178311,-153.178311,10952.249236
1536.265095,-153.178311,76.589155,10952.249236
1536.265415,-153.178311,0.000000,10799.070925
1536.265716,-306.356622,0.000000,10952.249236
1536.266017,-306.356622,229.767466,10952.249236
1536.266319,-153.178311,0.000000,10799.070925
1536.266620,76.589155,0.000000,11105.427547
1536.266921,-153.178311,-153.178311,11105.427547
1536.267222,-306.356622,0.000000,10952.249236
1536.267523,229.767466,0.000000,10952.249236
1536.267826,0.000000,-153.178311,10952.249236
1536.268130,-153.178311,229.767466,10799.070925
1536.268433,-153.178311,229.767466,10722.481770
1536.268737,76.589155,229.767466,10799.070925
1536.269040,0.000000,76.589155,10722.481770
1536.269344,0.000000,229.767466,10952.249236
1536.269647,0.000000,0.000000,10952.249236
1536.269951,229.767466,0.000000,10952.249236
1536.270254,0.000000,0.000000,10569.303459
1536.270557,-153.178311,76.589155,10799.070925
1536.270861,-306.356622,0.000000,10952.249236
1536.271164,76.589155,76.589155,10952.249236
1536.271468,-153.178311,-153.178311,10722.481770
1536.271771,0.000000,-306.356622,10952.249236
1536.272075,0.000000,-153.178311,10952.249236
1536.272378,0.000000,0.000000,10799.070925
1536.272695,-153.178311,76.589155,10799.070925
1536.272997,-306.356622,76.589155,10799.070925
1536.273298,-153.178311,229.767466,10799.070925
1536.273600,0.000000,0.000000,10722.481770
1536.273902,76.589155,229.767466,10952.249236
1536.274203,-306.356622,-153.178311,10952.249236
1536.274505,76.589155,229.767466,10952.249236
1536.274807,76.589155,-153.178311,10952.249236
1536.275109,-153.178311,76.589155,10952.249236
1536.275413,-306.356622,0.000000,11105.427547
1536.275717,76.589155,229.767466,10952.249236
1536.276020,76.589155,0.000000,10952.249236
1536.276324,0.000000,76.589155,10952.249236
1536.276627,-306.356622,-153.178311,10799.070925
1536.276931,0.000000,-153.178311,10952.249236
1536.277234,0.000000,76.589155,10952.249236
1536.277537,-153.178311,0.000000,10799.070925
1536.277841,-306.356622,382.945777,10722.481770
1536.278145,-153.178311,76.589155,10799.070925
1536.278448,76.589155,0.000000,10799.070925
1536.278752,-153.178311,229.767466,10799.070925
1536.279055,-153.178311,0.000000,10952.249236
1536.279359,0.000000,76.589155,10799.070925
1536.279662,0.000000,0.000000,10952.249236
1536.279966,-306.356622,-153.178311,10799.070925
1536.280269,0.000000,229.767466,10799.070925
1536.280573,76.589155,0.000000,10952.249236
1536.280876,76.589155,76.589155,11105.427547
1536.281180,-153.178311,76.589155,10799.070925
1536.281483,0.000000,-153.178311,10952.249236
1536.281787,76.589155,0.000000,10952.249236
1536.282090,229.767466,76.589155,10722.481770
1536.282401,-306.356622,-153.178311,11105.427547
1536.282703,0.000000,229.767466,10799.070925
1536.283006,0.000000,76.589155,10722.481770
1536.283308,76.589155,76.589155,10799.070925
1536.283610,-153.178311,76.589155,10799.070925
1536.283913,-153.178311,76.589155,10799.070925
1536.284215,0.000000,-153.178311,11258.605858
1536.284518,-153.178311,229.767466,10799.070925
1536.284821,-306.356622,-153.178311,11105.427547
1536.285125,-153.178311,76.589155,10952.249236
1536.285428,76.589155,76.589155,10722.481770
1536.285731,0.000000,76.589155,10952.249236
1536.286035,0.000000,-153.178311,10952.249236
1536.286338,0.000000,76.589155,10952.249236
1536.286641,-306.356622,-153.178311,10952.249236
1536.286945,0.000000,76.589155,10799.070925
1536.287249,-153.178311,0.000000,10722.481770
1536.287552,76.589155,0.000000,10799.070925
1536.287855,-153.178311,382.945777,10799.070925
1536.288159,0.000000,76.589155,10952.249236
1536.288462,-153.178311,229.767466,10799.070925
1536.288766,0.000000,0.000000,10952.249236
1536.289069,0.000000,76.589155,10799.070925
1536.289373,0.000000,229.767466,11105.427547
1536.289685,76.589155,76.589155,10799.070925
1536.289987,-153.178311,76.589155,10952.249236
1536.290289,0.000000,76.589155,10799.070925
1536.290592,-153.178311,0.000000,10952.249236
1536.290894,76.589155,0.000000,10722.481770
1536.291196,0.000000,0.000000,10799.070925
1536.291499,76.589155,0.000000,10952.249236
1536.291801,-153.178311,0.000000,10722.481770
1536.292104,76.589155,76.589155,11105.427547
1536.292407,0.000000,76.589155,11105.427547
1536.292711,-153.178311,229.767466,10952.249236
1536.293015,-153.178311,-306.356622,10952.249236
1536.293318,0.000000,536.124088,10799.070925
1536.293622,0.000000,76.589155,10952.249236
1536.293925,0.000000,229.767466,11105.427547
1536.294229,-153.178311,229.767466,10722.481770
1536.294532,76.589155,76.589155,10722.481770
1536.294835,0.000000,0.000000,10799.070925
1536.295139,-153.178311,0.000000,10799.070925
1536.295442,-306.356622,0.000000,10799.070925
1536.295746,0.000000,76.589155,10722.481770
1536.296049,76.589155,0.000000,10799.070925
1536.296353,-306.356622,-306.356622,10799.070925
1536.296656,-306.356622,76.589155,10952.249236
1536.296959,229.767466,229.767466,10952.249236
1536.297263,-153.178311,-153.178311,10799.070925
1536.297566,-306.356622,0.000000,10799.070925
1536.297870,76.589155,0.000000,10799.070925
1536.298173,229.767466,-153.178311,10799.070925
1536.298477,76.589155,382.945777,10722.481770
1536.298780,-153.178311,-153.178311,10952.249236
1536.299083,229.767466,76.589155,10799.070925
1536.299394,76.589155,76.589155,10722.481770
1536.299696,-153.178311,76.589155,10799.070925
1536.299999,-306.356622,76.589155,10799.070925
1536.300302,76.589155,229.767466,11105.427547
1536.300604,-306.356622,-153.178311,11105.427547
1536.300907,0.000000,76.589155,10952.249236
1536.301209,-153.178311,-153.178311,10952.249236
1536.301512,76.589155,0.000000,10952.249236
1536.301815,0.000000,76.589155,10799.070925
1536.302118,-153.178311,-153.178311,10799.070925
1536.302422,-153.178311,76.589155,10952.249236
1536.302725,0.000000,229.767466,10799.070925
1536.303029,0.000000,229.767466,10722.481770
1536.303332,-153.178311,0.000000,11105.427547
1536.303636,0.000000,76.589155,10952.249236
1536.303940,0.000000,0.000000,10952.249236
1536.304244,0.000000,229.767466,11105.427547
1536.304547,76.589155,0.000000,11105.427547
1536.304850,76.589155,76.589155,10799.070925
1536.305153,-153.178311,76.589155,10799.070925
1536.305457,-153.178311,76.589155,10799.070925
1536.305760,0.000000,0.000000,10722.481770
1536.306063,76.589155,76.589155,10952.249236
1536.306367,229.767466,0.000000,11105.427547
1536.306673,0.000000,0.000000,10799.070925
1536.306976,-153.178311,-306.356622,10722.481770
1536.307279,76.589155,229.767466,10799.070925
1536.307582,0.000000,76.589155,10952.249236
1536.307885,0.000000,76.589155,10952.249236
1536.308189,0.000000,76.589155,10952.249236
1536.308492,-153.178311,229.767466,10722.481770
1536.308795,-153.178311,0.000000,10799.070925
1536.309098,0.000000,0.000000,10952.249236
1536.309402,-153.178311,-153.178311,10799.070925
1536.309705,-153.178311,-153.178311,11105.427547
1536.310009,0.000000,229.767466,10799.070925
1536.310312,-306.356622,0.000000,10952.249236
1536.310616,0.000000,0.000000,10952.249236
1536.310919,76.589155,229.767466,10799.070925
1536.311223,76.589155,76.589155,10952.249236
1536.311526,-153.178311,229.767466,11105.427547
1536.311829,-153.178311,76.589155,10952.249236
1536.312133,-153.178311,76.589155,11105.427547
1536.312437,0.000000,382.945777,10799.070925
1536.312740,0.000000,229.767466,10952.249236
1536.313044,76.589155,76.589155,10799.070925
1536.313347,0.000000,76.589155,10722.481770
1536.313651,0.000000,-153.178311,10799.070925
1536.313954,-153.178311,76.589155,11105.427547
1536.314258,76.589155,0.000000,10722.481770
1536.314561,-153.178311,0.000000,10952.249236
1536.314865,0.000000,76.589155,11105.427547
1536.315168,-153.178311,0.000000,10952.249236
1536.315472,-153.178311,-153.178311,11105.427547
1536.315775,-153.178311,76.589155,10799.070925
1536.316079,-153.178311,-153.178311,10952.249236
1536.316381,0.000000,-153.178311,10722.481770
1536.316685,-153.178311,0.000000,10952.249236
1536.316989,-153.178311,0.000000,10952.249236
1536.317292,-153.178311,-153.178311,10952.249236
1536.317596,0.000000,0.000000,10952.249236
1536.317899,-153.178311,0.000000,10952.249236
1536.318203,-153.178311,229.767466,10799.070925
1536.318506,0.000000,76.589155,10722.481770
1536.318809,76.589155,76.589155,11105.427547
1536.319113,0.000000,76.589155,10799.070925
1536.319416,0.000000,76.589155,10952.249236
1536.319720,0.000000,0.000000,10799.070925
1536.320023,229.767466,76.589155,10952.249236
1536.320327,-306.356622,0.000000,10952.249236
1536.320630,-153.178311,0.000000,10952.249236
1536.320934,0.000000,76.589155,10799.070925
1536.321238,0.000000,76.589155,10799.070925
1536.321541,-153.178311,229.767466,10799.070925
1536.321845,-153.178311,0.000000,10722.481770
1536.322148,-153.178311,0.000000,10952.249236
1536.322451,76.589155,76.589155,10799.070925
1536.322755,-153.178311,76.589155,10569.303459
1536.323058,-612.713244,76.589155,10799.070925
1536.323361,229.767466,76.589155,10799.070925
1536.323672,76.589155,0.000000,10799.070925
1536.323975,-153.178311,76.589155,10952.249236
1536.324277,-306.356622,0.000000,10952.249236
1536.324580,76.589155,76.589155,10952.249236
1536.324882,0.000000,0.000000,10799.070925
1536.325185,-153.178311,229.767466,10799.070925
1536.325487,-153.178311,0.000000,10799.070925
1536.325790,76.589155,382.945777,10952.249236
1536.326104,229.767466,-153.178311,10952.249236
1536.326406,229.767466,76.589155,10799.070925
1536.326708,0.000000,-153.178311,10952.249236
1536.327010,0.000000,76.589155,11105.427547
1536.327312,0.000000,0.000000,10952.249236
1536.327614,0.000000,76.589155,10722.481770
1536.327916,-153.178311,76.589155,10722.481770
1536.328218,-153.178311,382.945777,11105.427547
1536.328527,229.767466,229.767466,10799.070925
1536.328829,-306.356622,-153.178311,10799.070925
1536.329132,0.000000,0.000000,10799.070925
1536.329435,76.589155,0.000000,10799.070925
1536.329738,-153.178311,76.589155,10799.070925
1536.330040,-153.178311,229.767466,10799.070925
1536.330343,-153.178311,76.589155,10952.249236
1536.330646,0.000000,76.589155,10799.070925
1536.330948,0.000000,76.589155,10952.249236
1536.331252,0.000000,0.000000,10952.249236
1536.331556,-153.178311,229.767466,10952.249236
1536.331859,0.000000,0.000000,10799.070925
1536.332163,76.589155,0.000000,10952.249236
1536.332466,-153.178311,229.767466,10799.070925
1536.332770,229.767466,76.589155,10952.249236
1536.333073,-153.178311,0.000000,10952.249236
1536.333378,229.767466,0.000000,11105.427547
1536.333681,-306.356622,-153.178311,10952.249236
1536.333984,-153.178311,0.000000,11105.427547
1536.334288,0.000000,-153.178311,10952.249236
1536.334591,76.589155,76.589155,10952.249236
1536.334895,-153.178311,-153.178311,11105.427547
1536.335198,-153.178311,76.589155,10952.249236
1536.335501,-153.178311,-153.178311,10952.249236
1536.335805,76.589155,229.767466,10952.249236
1536.336108,-306.356622,0.000000,11105.427547
1536.336412,-153.178311,76.589155,10799.070925
1536.336715,76.589155,229.767466,10799.070925
1536.337018,0.000000,0.000000,11105.427547
1536.337322,-153.178311,76.589155,10799.070925
1536.337625,-153.178311,0.000000,10722.481770
1536.337929,0.000000,76.589155,10799.070925
1536.338235,76.589155,76.589155,10799.070925
1536.338538,-153.178311,76.589155,10952.249236
1536.338841,0.000000,-153.178311,10952.249236
1536.339144,0.000000,229.767466,10952.249236
1536.339447,0.000000,-153.178311,10799.070925
1536.339750,76.589155,76.589155,10799.070925
1536.340053,0.000000,-153.178311,10799.070925
1536.340356,-153.178311,76.589155,10799.070925
1536.340675,-153.178311,-153.178311,10952.249236
1536.340976,76.589155,0.000000,10952.249236
1536.341277,-153.178311,0.000000,10799.070925
1536.341579,0.000000,229.767466,10799.070925
1536.341880,0.000000,76.589155,10722.481770
1536.342182,-153.178311,76.589155,10952.249236
1536.342483,-153.178311,76.589155,10952.249236
1536.342785,229.767466,382.945777,10799.070925
1536.343099,0.000000,76.589155,10952.249236
1536.343401,0.000000,0.000000,10799.070925
1536.343703,-153.178311,0.000000,11105.427547
1536.344005,76.589155,229.767466,10799.070925
1536.344307,-153.178311,76.589155,10952.249236
1536.344609,-153.178311,76.589155,10799.070925
1536.344911,-153.178311,76.589155,10952.249236
1536.345213,0.000000,229.767466,10799.070925
1536.345522,-153.178311,0.000000,10952.249236
1536.345824,-153.178311,76.589155,10952.249236
1536.346127,0.000000,76.589155,10799.070925
1536.346430,-306.356622,-153.178311,10569.303459
1536.346732,229.767466,229.767466,10799.070925
1536.347035,-153.178311,76.589155,10799.070925
1536.347338,-153.178311,76.589155,10952.249236
1536.347640,0.000000,-153.178311,10722.481770
1536.347943,229.767466,229.767466,10799.070925
1536.348247,0.000000,0.000000,10799.070925
1536.348550,0.000000,76.589155,10952.249236
1536.348854,0.000000,-153.178311,10799.070925
1536.349157,76.589155,229.767466,11105.427547
1536.349461,-153.178311,0.000000,10799.070925
1536.349764,-153.178311,0.000000,10799.070925
1536.350068,-153.178311,0.000000,10952.249236
1536.350372,76.589155,-153.178311,10799.070925
1536.350675,-153.178311,0.000000,10952.249236
1536.350979,-153.178311,76.589155,10952.249236
1536.351282,0.000000,-153.178311,11105.427547
1536.351586,76.589155,76.589155,11105.427547
1536.351889,-153.178311,0.000000,10799.070925
1536.352193,-459.534933,76.589155,10952.249236
1536.352496,-153.178311,0.000000,10722.481770
1536.352799,76.589155,-153.178311,10952.249236
1536.353103,-153.178311,76.589155,10799.070925
1536.353406,-153.178311,0.000000,10722.481770
1536.353710,0.000000,76.589155,10722.481770
1536.354013,0.000000,76.589155,10952.249236
1536.354317,-153.178311,0.000000,10722.481770
1536.354620,-153.178311,76.589155,10799.070925
1536.354924,0.000000,76.589155,10569.303459
1536.355230,0.000000,-306.356622,10952.249236
1536.355533,0.000000,229.767466,10722.481770
1536.355836,0.000000,0.000000,10722.481770
1536.356139,76.589155,76.589155,10952.249236
1536.356442,0.000000,0.000000,10799.070925
1536.356746,-306.356622,76.589155,11105.427547
1536.357049,0.000000,229.767466,10799.070925
1536.357352,0.000000,229.767466,10952.249236
1536.357669,-153.178311,-306.356622,10952.249236
1536.357970,-153.178311,0.000000,10952.249236
1536.358272,-153.178311,-153.178311,10722.481770
1536.358573,76.589155,76.589155,10952.249236
1536.358875,-306.356622,76.589155,10722.481770
1536.359176,-306.356622,76.589155,10952.249236
1536.359478,-306.356622,0.000000,10799.070925
1536.359780,76.589155,76.589155,10952.249236
1536.360099,-153.178311,0.000000,10799.070925
1536.360400,-153.178311,0.000000,10952.249236
1536.360701,0.000000,-153.178311,10952.249236
1536.361002,0.000000,76.589155,11105.427547
1536.361304,0.000000,76.589155,11105.427547
1536.361605,-153.178311,0.000000,10722.481770
1536.361906,76.589155,229.767466,10952.249236
1536.362207,0.000000,229.767466,10952.249236
1536.362511,76.589155,76.589155,10722.481770
1536.362814,-153.178311,76.589155,10799.070925
1536.363118,76.589155,76.589155,10799.070925
1536.363421,-153.178311,229.767466,10952.249236
1536.363725,-306.356622,-153.178311,10799.070925
1536.364028,0.000000,229.767466,10799.070925
1536.364332,-306.356622,76.589155,10799.070925
1536.364635,-306.356622,229.767466,10799.070925
1536.364938,-153.178311,76.589155,10722.481770
1536.365241,0.000000,76.589155,10799.070925
1536.365545,0.000000,0.000000,10952.249236
1536.365848,-306.356622,-153.178311,10799.070925
1536.366152,-612.713244,0.000000,11105.427547
1536.366455,-153.178311,-153.178311,10799.070925
1536.366759,0.000000,0.000000,10952.249236
1536.367062,-153.178311,76.589155,11105.427547
1536.367373,229.767466,382.945777,10799.070925
1536.367675,76.589155,76.589155,10952.249236
1536.367978,0.000000,229.767466,10799.070925
1536.368280,-153.178311,536.124088,10952.249236
1536.368583,76.589155,0.000000,10952.249236
1536.368886,0.000000,0.000000,10799.070925
1536.369188,-306.356622,76.589155,10952.249236
1536.369491,-306.356622,229.767466,10952.249236
1536.369794,382.945777,0.000000,10799.070925
1536.370097,0.000000,76.589155,10952.249236
1536.370401,-306.356622,-153.178311,10799.070925
1536.370704,76.589155,0.000000,11105.427547
1536.371008,76.589155,-153.178311,10799.070925
1536.371311,-153.178311,0.000000,10799.070925
1536.371615,-459.534933,-153.178311,10722.481770
1536.371918,0.000000,0.000000,10799.070925
1536.372221,0.000000,0.000000,10569.303459
1536.372525,76.589155,229.767466,10799.070925
1536.372828,-153.178311,-153.178311,10799.070925
1536.373132,-153.178311,0.000000,10952.249236
1536.373435,-153.178311,0.000000,11105.427547
1536.373739,0.000000,-153.178311,10952.249236
1536.374043,-459.534933,76.589155,10799.070925
1536.374346,0.000000,76.589155,10722.481770
1536.374663,229.767466,76.589155,10799.070925
1536.374965,-306.356622,229.767466,10952.249236
1536.375266,76.589155,76.589155,10722.481770
1536.375568,-153.178311,-153.178311,11105.427547
1536.375869,76.589155,76.589155,10799.070925
1536.376171,-459.534933,-153.178311,10952.249236
1536.376472,0.000000,-306.356622,10952.249236
1536.376774,0.000000,76.589155,10799.070925
1536.377092,229.767466,229.767466,10952.249236
1536.377394,-306.356622,76.589155,10952.249236
1536.377695,-306.356622,76.589155,10952.249236
1536.377996,0.000000,0.000000,10799.070925
1536.378298,-153.178311,0.000000,10799.070925
1536.378599,-153.178311,0.000000,10952.249236
1536.378900,-153.178311,0.000000,10722.481770
1536.379202,76.589155,0.000000,10799.070925
1536.379505,-306.356622,76.589155,10799.070925
1536.379808,-153.178311,-153.178311,10952.249236
1536.380112,0.000000,76.589155,10799.070925
1536.380415,229.767466,76.589155,10952.249236
1536.380719,-306.356622,-153.178311,11105.427547
1536.381022,76.589155,229.767466,10722.481770
1536.381326,-153.178311,76.589155,10799.070925
1536.381629,-153.178311,76.589155,10722.481770
1536.381932,-153.178311,76.589155,10799.070925
1536.382236,0.000000,0.000000,10799.070925
1536.382539,0.000000,0.000000,11105.427547
1536.382843,76.589155,229.767466,11105.427547
1536.383147,0.000000,-306.356622,10952.249236
1536.383450,-306.356622,76.589155,10952.249236
1536.383754,-153.178311,76.589155,10799.070925
1536.384057,0.000000,0.000000,11105.427547
1536.384363,0.000000,76.589155,10799.070925
1536.384666,-153.178311,229.767466,10722.481770
1536.384969,0.000000,0.000000,10799.070925
1536.385272,76.589155,-153.178311,11105.427547
1536.385576,0.000000,0.000000,10952.249236
1536.385879,0.000000,-153.178311,10952.249236
1536.386182,-153.178311,0.000000,10952.249236
1536.386485,0.000000,0.000000,11105.427547
1536.386788,0.000000,382.945777,11105.427547
1536.387092,-153.178311,76.589155,10722.481770
1536.387395,0.000000,76.589155,10799.070925
1536.387699,-153.178311,76.589155,10952.249236
1536.388002,229.767466,0.000000,10799.070925
1536.388306,-153.178311,229.767466,10952.249236
1536.388609,-306.356622,76.589155,10722.481770
1536.388913,0.000000,0.000000,10952.249236
1536.389216,-153.178311,229.767466,10799.070925
1536.389519,-306.356622,0.000000,10952.249236
1536.389823,0.000000,229.767466,11105.427547
1536.390127,0.000000,0.000000,10952.249236
1536.390430,76.589155,0.000000,10952.249236
1536.390734,-459.534933,-153.178311,10799.070925
1536.391037,-153.178311,-306.356622,11105.427547
1536.391341,229.767466,76.589155,11105.427547
1536.391663,-153.178311,76.589155,10799.070925
1536.391964,-459.534933,76.589155,10952.249236
1536.392265,0.000000,229.767466,10799.070925
1536.392565,229.767466,0.000000,10952.249236
1536.392866,76.589155,0.000000,10799.070925
1536.393167,-153.178311,76.589155,10952.249236
1536.393468,0.000000,0.000000,11105.427547
1536.393768,0.000000,0.000000,10799.070925
1536.394087,-306.356622,229.767466,10952.249236
1536.394388,-459.534933,0.000000,10799.070925
1536.394690,0.000000,76.589155,10722.481770
1536.394991,-153.178311,0.000000,10952.249236
1536.395292,76.589155,0.000000,10952.249236
1536.395594,0.000000,76.589155,10799.070925
1536.395895,-306.356622,-306.356622,10799.070925
1536.396196,-153.178311,0.000000,10952.249236
1536.396506,-306.356622,229.767466,10799.070925
1536.396808,0.000000,0.000000,10952.249236
1536.397111,-153.178311,0.000000,10722.481770
1536.397414,229.767466,76.589155,10722.481770
1536.397716,76.589155,-153.178311,10799.070925
1536.398019,0.000000,0.000000,10952.249236
1536.398321,-153.178311,-153.178311,10952.249236
1536.398624,0.000000,76.589155,11105.427547
1536.398927,0.000000,76.589155,10722.481770
1536.399231,-306.356622,382.945777,10799.070925
1536.399534,76.589155,76.589155,10799.070925
1536.399838,76.589155,76.589155,10722.481770
1536.400141,-153.178311,-153.178311,11105.427547
1536.400444,-306.356622,0.000000,10952.249236
1536.400748,0.000000,-153.178311,11105.427547
1536.401051,-153.178311,76.589155,10952.249236
1536.401357,0.000000,76.589155,10799.070925
1536.401660,-459.534933,76.589155,10952.249236
1536.401963,0.000000,382.945777,10799.070925
1536.402266,229.767466,0.000000,10722.481770
1536.402570,0.000000,0.000000,10799.070925
1536.402873,-153.178311,76.589155,10799.070925
1536.403176,0.000000,-153.178311,11105.427547
1536.403480,76.589155,0.000000,10799.070925
1536.403783,0.000000,0.000000,10952.249236
1536.404086,-306.356622,76.589155,10722.481770
1536.404390,76.589155,76.589155,10722.481770
1536.404693,0.000000,-153.178311,10952.249236
1536.404997,0.000000,76.589155,10952.249236
1536.405300,-153.178311,76.589155,10799.070925
1536.405604,76.589155,0.000000,10952.249236
1536.405907,76.589155,229.767466,10799.070925
1536.406214,-306.356622,0.000000,10722.481770
1536.406517,0.000000,0.000000,10799.070925
1536.406820,0.000000,229.767466,10799.070925
1536.407123,0.000000,76.589155,10799.070925
1536.407426,0.000000,0.000000,10799.070925
1536.407729,76.589155,0.000000,10952.249236
1536.408032,0.000000,-153.178311,11105.427547
1536.408335,76.589155,76.589155,10722.481770
1536.408646,-306.356622,0.000000,10799.070925
1536.408949,-153.178311,229.767466,11105.427547
1536.409251,0.000000,76.589155,10799.070925
1536.409553,-153.178311,0.000000,10952.249236
1536.409856,76.589155,76.589155,10952.249236
1536.410158,76.589155,-153.178311,11105.427547
1536.410461,0.000000,0.000000,10952.249236
1536.410763,0.000000,0.000000,10799.070925
1536.411082,0.000000,76.589155,10952.249236
1536.411383,-306.356622,0.000000,10952.249236
1536.411684,0.000000,229.767466,10799.070925
1536.411986,-153.178311,0.000000,11105.427547
1536.412287,0.000000,229.767466,10952.249236
1536.412588,0.000000,0.000000,10799.070925
1536.412890,229.767466,76.589155,11105.427547
1536.413191,-153.178311,0.000000,10722.481770
1536.413501,-306.356622,76.589155,10799.070925
1536.413803,-306.356622,0.000000,10952.249236
1536.414106,0.000000,229.767466,10799.070925
1536.414409,0.000000,76.589155,10799.070925
1536.414711,0.000000,76.589155,10952.249236
1536.415014,-153.178311,229.767466,11105.427547
1536.415316,0.000000,0.000000,10799.070925
1536.415619,-153.178311,0.000000,10952.249236
1536.415922,0.000000,-153.178311,10952.249236
1536.416225,0.000000,0.000000,10722.481770
1536.416529,0.000000,-153.178311,10799.070925
1536.416832,-153.178311,76.589155,10722.481770
1536.417136,0.000000,76.589155,10799.070925
1536.417440,76.589155,229.767466,10952.249236
1536.417743,-612.713244,-153.178311,10952.249236
1536.418047,0.000000,-153.178311,10952.249236
1536.418351,76.589155,0.000000,10952.249236
1536.418655,76.589155,76.589155,10722.481770
1536.418958,-153.178311,76.589155,10799.070925
1536.419261,0.000000,229.767466,10799.070925
1536.419565,229.767466,-153.178311,10952.249236
1536.419868,0.000000,76.589155,11105.427547
1536.420171,0.000000,229.767466,11105.427547
1536.420475,0.000000,76.589155,10799.070925
1536.420778,76.589155,76.589155,10952.249236
1536.421081,-153.178311,76.589155,10952.249236
1536.421385,-153.178311,229.767466,10722.481770
1536.421688,-153.178311,229.767466,10799.070925
1536.421992,76.589155,0.000000,10952.249236
1536.422295,76.589155,76.589155,10952.249236
1536.422599,229.767466,0.000000,10799.070925
1536.422902,0.000000,76.589155,10952.249236
1536.423209,-153.178311,-153.178311,10799.070925
1536.423512,0.000000,0.000000,10952.249236
1536.423815,-153.178311,76.589155,10722.481770
1536.424118,-153.178311,229.767466,10722.481770
1536.424421,-153.178311,76.589155,10722.481770
1536.424724,-153.178311,0.000000,10952.249236
1536.425027,0.000000,-153.178311,10799.070925
1536.425330,-306.356622,76.589155,10952.249236
1536.425653,-306.356622,0.000000,10952.249236
1536.425953,-153.178311,76.589155,10799.070925
1536.426254,76.589155,0.000000,10569.303459
1536.426555,-153.178311,229.767466,10952.249236
1536.426856,76.589155,229.767466,11105.427547
1536.427157,229.767466,0.000000,10952.249236
1536.427457,0.000000,-153.178311,11105.427547
1536.427758,76.589155,0.000000,10952.249236
1536.428061,-306.356622,-306.356622,10952.249236
1536.428365,0.000000,0.000000,10952.249236
1536.428668,0.000000,76.589155,10569.303459
1536.428972,-306.356622,0.000000,10952.249236
1536.429275,-153.178311,76.589155,10952.249236
1536.429579,-153.178311,229.767466,10952.249236
1536.429882,0.000000,0.000000,11105.427547
1536.430186,0.000000,229.767466,10952.249236
1536.430501,-153.178311,-153.178311,10799.070925
1536.430803,-153.178311,0.000000,10952.249236
1536.431105,76.589155,76.589155,10799.070925
1536.431406,-153.178311,0.000000,10799.070925
1536.431708,-306.356622,382.945777,10952.249236
1536.432010,-306.356622,0.000000,10952.249236
1536.432312,229.767466,76.589155,10952.249236
1536.432614,-153.178311,0.000000,10799.070925
1536.432917,0.000000,76.589155,11105.427547
1536.433220,-153.178311,-153.178311,10952.249236
1536.433524,229.767466,229.767466,10722.481770
1536.433827,-459.534933,0.000000,11105.427547
1536.434131,76.589155,229.767466,10722.481770
1536.434435,229.767466,0.000000,10799.070925
1536.434738,0.000000,-153.178311,10952.249236
1536.435042,-306.356622,0.000000,10799.070925
1536.435353,-153.178311,-306.356622,11258.605858
1536.435655,-153.178311,-306.356622,11105.427547
1536.435958,0.000000,76.589155,10799.070925
1536.436260,-306.356622,0.000000,10952.249236
1536.436562,-153.178311,229.767466,10722.481770
1536.436865,0.000000,0.000000,10799.070925
1536.437167,76.589155,-153.178311,11258.605858
1536.437470,-153.178311,76.589155,10952.249236
1536.437773,-153.178311,0.000000,10952.249236
1536.438077,229.767466,-153.178311,11105.427547
1536.438380,0.000000,76.589155,10799.070925
1536.438683,0.000000,76.589155,11105.427547
1536.438987,0.000000,229.767466,10952.249236
1536.439290,76.589155,229.767466,10952.249236
1536.439594,0.000000,0.000000,11105.427547
1536.439897,76.589155,76.589155,10799.070925
1536.440204,-153.178311,-306.356622,11105.427547
1536.440507,229.767466,76.589155,10799.070925
1536.440810,0.000000,-153.178311,10799.070925
1536.441113,0.000000,76.589155,10952.249236
1536.441416,76.589155,-153.178311,10952.249236
1536.441719,0.000000,76.589155,10569.303459
1536.442022,0.000000,-306.356622,10799.070925
1536.442325,76.589155,0.000000,10799.070925
1536.442631,0.000000,0.000000,10569.303459
1536.442934,-153.178311,229.767466,10799.070925
1536.443237,0.000000,76.589155,10799.070925
1536.443540,-153.178311,76.589155,10722.481770
1536.443843,0.000000,229.767466,10722.481770
1536.444147,76.589155,229.767466,10799.070925
1536.444450,-153.178311,-153.178311,10799.070925
1536.444753,0.000000,-153.178311,10952.249236
1536.445056,0.000000,0.000000,10722.481770
1536.445359,0.000000,-153.178311,10952.249236
1536.445663,0.000000,0.000000,10799.070925
1536.445966,0.000000,-153.178311,10952.249236
1536.446270,76.589155,76.589155,10799.070925
1536.446573,-153.178311,76.589155,10952.249236
1536.446877,-153.178311,-306.356622,10952.249236
1536.447181,-306.356622,0.000000,10952.249236
1536.447496,0.000000,0.000000,10952.249236
1536.447798,0.000000,-153.178311,10799.070925
1536.448099,0.000000,382.945777,10799.070925
1536.448401,-306.356622,229.767466,10952.249236
1536.448703,0.000000,382.945777,10952.249236
1536.449005,0.000000,76.589155,10569.303459
1536.449307,-153.178311,0.000000,10952.249236
1536.449608,0.000000,76.589155,10799.070925
1536.449911,0.000000,76.589155,10799.070925
1536.450215,-153.178311,0.000000,10799.070925
1536.450518,0.000000,76.589155,10722.481770
1536.450822,-153.178311,-153.178311,10722.481770
1536.451126,0.000000,76.589155,10952.249236
1536.451429,0.000000,0.000000,10722.481770
1536.451733,0.000000,0.000000,10952.249236
1536.452036,-306.356622,-306.356622,10952.249236
1536.452347,0.000000,0.000000,10799.070925
1536.452650,0.000000,-153.178311,10952.249236
1536.452952,-153.178311,229.767466,10799.070925
1536.453254,0.000000,229.767466,10799.070925
1536.453557,-306.356622,76.589155,11105.427547
1536.453859,0.000000,382.945777,10722.481770
1536.454162,0.000000,76.589155,11105.427547
1536.454464,-153.178311,76.589155,10952.249236
1536.454767,-306.356622,-306.356622,10799.070925
1536.455071,0.000000,0.000000,11105.427547
1536.455374,0.000000,-153.178311,11105.427547
1536.455678,0.000000,76.589155,10952.249236
1536.455981,-153.178311,0.000000,10799.070925
1536.456285,76.589155,229.767466,10952.249236
1536.456588,0.000000,76.589155,10952.249236
1536.456892,229.767466,76.589155,10952.249236
1536.457198,0.000000,0.000000,10952.249236
1536.457501,76.589155,0.000000,11258.605858
1536.457804,0.000000,-153.178311,11105.427547
1536.458107,76.589155,0.000000,10799.070925
1536.458410,-306.356622,76.589155,10799.070925
1536.458713,0.000000,76.589155,10952.249236
1536.459016,229.767466,229.767466,10722.481770
1536.459319,76.589155,-153.178311,10799.070925
1536.459642,0.000000,76.589155,10799.070925
1536.459943,0.000000,0.000000,10722.481770
1536.460243,76.589155,76.589155,10952.249236
1536.460544,0.000000,76.589155,10952.249236
1536.460845,-306.356622,76.589155,10799.070925
1536.461146,0.000000,0.000000,10799.070925
1536.461447,0.000000,0.000000,10799.070925
1536.461747,-153.178311,-153.178311,10799.070925
1536.462060,0.000000,-306.356622,10952.249236
1536.462362,76.589155,-306.356622,11105.427547
1536.462664,0.000000,0.000000,10952.249236
1536.462966,-153.178311,76.589155,10952.249236
1536.463269,-153.178311,382.945777,10722.481770
1536.463571,76.589155,76.589155,10799.070925
1536.463873,0.000000,0.000000,10799.070925
1536.464175,0.000000,0.000000,11105.427547
1536.464485,0.000000,76.589155,10722.481770
1536.464787,76.589155,0.000000,10799.070925
1536.465090,-153.178311,0.000000,10952.249236
1536.465392,-306.356622,76.589155,10722.481770
1536.465695,-153.178311,0.000000,10722.481770
1536.465998,-153.178311,76.589155,10722.481770
1536.466300,-153.178311,-153.178311,10952.249236
1536.466603,76.589155,229.767466,10952.249236
1536.466906,-153.178311,0.000000,10799.070925
1536.467209,0.000000,0.000000,10799.070925
1536.467513,-306.356622,0.000000,10952.249236
1536.467817,76.589155,0.000000,10799.070925
1536.468120,-306.356622,76.589155,10799.070925
1536.468424,-306.356622,0.000000,10952.249236
1536.468727,0.000000,76.589155,10799.070925
1536.469031,76.589155,229.767466,11105.427547
1536.469342,-306.356622,-153.178311,10799.070925
1536.469644,76.589155,0.000000,11258.605858
1536.469947,0.000000,0.000000,11105.427547
1536.470249,-306.356622,76.589155,11105.427547
1536.470551,-153.178311,0.000000,10799.070925
1536.470854,-153.178311,-306.356622,10952.249236
1536.471156,76.589155,229.767466,10799.070925
1536.471459,-153.178311,-153.178311,10952.249236
1536.471762,76.589155,76.589155,10799.070925
1536.472065,-153.178311,0.000000,10799.070925
1536.472369,0.000000,229.767466,10799.070925
1536.472672,0.000000,-153.178311,10799.070925
1536.472976,-306.356622,76.589155,10722.481770
1536.473279,-306.356622,229.767466,10952.249236
1536.473583,0.000000,229.767466,10799.070925
1536.473886,0.000000,0.000000,10952.249236
1536.474190,76.589155,-306.356622,10952.249236
1536.474493,76.589155,0.000000,10722.481770
1536.474797,0.000000,76.589155,10952.249236
1536.475100,-306.356622,-153.178311,10799.070925
1536.475404,-153.178311,229.767466,10799.070925
1536.475707,-153.178311,76.589155,10952.249236
1536.476011,382.945777,76.589155,10799.070925
1536.476314,76.589155,-153.178311,10799.070925
1536.476617,0.000000,0.000000,11105.427547
1536.476921,0.000000,0.000000,10799.070925
1536.477224,-153.178311,0.000000,10952.249236
1536.477528,-153.178311,229.767466,10799.070925
1536.477831,-153.178311,76.589155,11105.427547
1536.478135,-153.178311,229.767466,10799.070925
1536.478438,0.000000,0.000000,10799.070925
1536.478742,76.589155,0.000000,10952.249236
1536.479045,-153.178311,-306.356622,10952.249236
1536.479348,-153.178311,76.589155,10952.249236
1536.479652,0.000000,0.000000,10952.249236
1536.479956,76.589155,76.589155,10799.070925
1536.480259,-612.713244,76.589155,10952.249236
1536.480563,76.589155,76.589155,10952.249236
1536.480866,0.000000,0.000000,10952.249236
1536.481170,-153.178311,76.589155,10952.249236
1536.481479,76.589155,-153.178311,11105.427547
1536.481782,76.589155,0.000000,10952.249236
1536.482085,0.000000,76.589155,11105.427547
1536.482387,-153.178311,76.589155,10722.481770
1536.482690,76.589155,229.767466,10952.249236
1536.482993,76.589155,229.767466,10722.481770
1536.483295,-153.178311,382.945777,10799.070925
1536.483598,-153.178311,0.000000,10952.249236
1536.483901,229.767466,76.589155,10799.070925
1536.484204,-153.178311,76.589155,10799.070925
1536.484508,-306.356622,-153.178311,10799.070925
1536.484811,-306.356622,0.000000,10799.070925
1536.485115,0.000000,-306.356622,10799.070925
1536.485418,76.589155,0.000000,10799.070925
1536.485722,-459.534933,229.767466,10799.070925
1536.486025,-306.356622,0.000000,11105.427547
1536.486336,229.767466,76.589155,11105.427547
1536.486639,76.589155,-153.178311,10952.249236
1536.486941,-153.178311,0.000000,11105.427547
1536.487243,-153.178311,0.000000,10799.070925
1536.487546,382.945777,76.589155,11105.427547
1536.487848,0.000000,76.589155,11105.427547
1536.488150,-306.356622,76.589155,10952.249236
1536.488453,0.000000,0.000000,11105.427547
1536.488768,382.945777,0.000000,10952.249236
1536.489070,0.000000,382.945777,10952.249236
1536.489372,0.000000,229.767466,10722.481770
1536.489674,76.589155,76.589155,10952.249236
1536.489976,76.589155,229.767466,10722.481770
1536.490278,0.000000,76.589155,10952.249236
1536.490579,0.000000,76.589155,10952.249236
1536.490881,0.000000,0.000000,10952.249236
1536.491185,-153.178311,-153.178311,10952.249236
1536.491488,-153.178311,-153.178311,10799.070925
1536.491792,-153.178311,0.000000,10799.070925
1536.492095,76.589155,229.767466,10952.249236
1536.492399,-306.356622,76.589155,10722.481770
1536.492702,-153.178311,76.589155,10799.070925
1536.493006,0.000000,76.589155,10722.481770
1536.493309,0.000000,229.767466,10799.070925
1536.493612,-306.356622,0.000000,10952.249236
1536.493916,0.000000,229.767466,10722.481770
1536.494219,-153.178311,0.000000,10799.070925
1536.494523,0.000000,76.589155,10722.481770
1536.494826,0.000000,229.767466,10799.070925
1536.495130,0.000000,76.589155,10952.249236
1536.495433,0.000000,76.589155,10952.249236
1536.495737,76.589155,0.000000,10799.070925
1536.496045,0.000000,0.000000,10952.249236
1536.496348,0.000000,76.589155,10952.249236
1536.496651,0.000000,0.000000,10952.249236
1536.496954,0.000000,76.589155,11105.427547
1536.497257,-153.178311,382.945777,10952.249236
1536.497560,-306.356622,76.589155,10952.249236
1536.497862,0.000000,229.767466,10799.070925
1536.498165,-153.178311,0.000000,10799.070925
1536.498481,76.589155,0.000000,11105.427547
1536.498782,-153.178311,0.000000,10799.070925
1536.499084,-306.356622,229.767466,10722.481770
1536.499386,-306.356622,0.000000,10799.070925
1536.499687,0.000000,382.945777,10952.249236
1536.499989,-153.178311,76.589155,10799.070925
1536.500291,0.000000,76.589155,10952.249236
1536.500593,-153.178311,0.000000,10952.249236
1536.500896,229.767466,0.000000,10952.249236
1536.501200,76.589155,0.000000,10952.249236
1536.501503,-153.178311,76.589155,10799.070925
1536.501807,-153.178311,382.945777,10722.481770
1536.502110,229.767466,76.589155,10799.070925
1536.502414,-306.356622,-153.178311,10952.249236
1536.502717,-153.178311,0.000000,10799.070925
1536.503021,76.589155,0.000000,10952.249236
1536.503336,76.589155,0.000000,11105.427547
1536.503638,-306.356622,229.767466,10722.481770
1536.503940,-153.178311,76.589155,10722.481770
1536.504241,0.000000,-153.178311,10952.249236
1536.504543,-153.178311,0.000000,10722.481770
1536.504845,-153.178311,76.589155,10952.249236
1536.505146,0.000000,0.000000,10952.249236
1536.505448,76.589155,-153.178311,10952.249236
1536.505763,76.589155,-153.178311,10952.249236
1536.506065,76.589155,76.589155,10799.070925
1536.506367,0.000000,0.000000,10952.249236
1536.506669,0.000000,382.945777,10799.070925
1536.506971,76.589155,229.767466,10952.249236
1536.507272,0.000000,76.589155,10799.070925
1536.507574,0.000000,229.767466,10952.249236
1536.507876,0.000000,0.000000,10799.070925
1536.508179,229.767466,76.589155,11105.427547
1536.508483,-306.356622,76.589155,10952.249236
1536.508786,-153.178311,0.000000,10952.249236
1536.509090,0.000000,0.000000,10799.070925
1536.509393,0.000000,382.945777,10799.070925
1536.509697,-153.178311,0.000000,11105.427547
1536.510000,-153.178311,229.767466,10799.070925
1536.510304,-153.178311,76.589155,10799.070925
1536.510620,76.589155,229.767466,10952.249236
1536.510922,-306.356622,-153.178311,10952.249236
1536.511223,-306.356622,-153.178311,10952.249236
1536.511525,0.000000,0.000000,10952.249236
1536.511827,76.589155,76.589155,10722.481770
1536.512128,-306.356622,-153.178311,10799.070925
1536.512430,-153.178311,382.945777,10799.070925
1536.512732,76.589155,76.589155,10799.070925
1536.513035,229.767466,0.000000,10952.249236
1536.513339,0.000000,229.767466,10722.481770
1536.513642,229.767466,76.589155,10799.070925
1536.513946,76.589155,76.589155,10799.070925
1536.514249,0.000000,76.589155,10799.070925
1536.514553,-306.356622,0.000000,10799.070925
1536.514856,-153.178311,-153.178311,10799.070925
1536.515160,76.589155,-306.356622,10799.070925
1536.515479,0.000000,76.589155,11105.427547
1536.515781,0.000000,382.945777,10722.481770
1536.516082,-153.178311,0.000000,10722.481770
1536.516383,0.000000,229.767466,10799.070925
1536.516684,-153.178311,76.589155,10952.249236
1536.516985,-153.178311,229.767466,10952.249236
1536.517286,-153.178311,76.589155,10952.249236
1536.517588,229.767466,76.589155,10722.481770
1536.517890,-306.356622,-459.534933,10952.249236
1536.518194,-153.178311,229.767466,10799.070925
1536.518498,0.000000,0.000000,10799.070925
1536.518801,-459.534933,0.000000,10799.070925
1536.519105,76.589155,229.767466,10799.070925
1536.519408,0.000000,229.767466,10952.249236
1536.519712,0.000000,76.589155,10799.070925
1536.520015,0.000000,0.000000,10952.249236
1536.520318,-306.356622,-153.178311,11105.427547
1536.520622,0.000000,0.000000,10799.070925
1536.520925,76.589155,76.589155,10952.249236
1536.521228,-306.356622,-306.356622,10799.070925
1536.521532,-153.178311,229.767466,10722.481770
1536.521835,76.589155,0.000000,10952.249236
1536.522139,0.000000,0.000000,11105.427547
1536.522442,0.000000,-306.356622,10799.070925
1536.522759,-153.178311,0.000000,10952.249236
1536.523061,0.000000,76.589155,10799.070925
1536.523362,-153.178311,-153.178311,10952.249236
1536.523664,-153.178311,76.589155,10952.249236
1536.523966,0.000000,382.945777,10799.070925
1536.524267,-153.178311,0.000000,10952.249236
1536.524569,0.000000,0.000000,10952.249236
1536.524871,-306.356622,-306.356622,10952.249236
1536.525174,0.000000,-153.178311,11258.605858
1536.525477,229.767466,0.000000,10952.249236
1536.525781,0.000000,229.767466,10799.070925
1536.526084,-306.356622,536.124088,10952.249236
1536.526388,76.589155,229.767466,10952.249236
1536.526691,229.767466,229.767466,10799.070925
1536.526995,0.000000,0.000000,10799.070925
1536.527299,-153.178311,-306.356622,10952.249236
1536.527602,-153.178311,-306.356622,10799.070925
1536.527905,0.000000,0.000000,10799.070925
1536.528209,-153.178311,76.589155,10722.481770
1536.528512,-306.356622,229.767466,10722.481770
1536.528816,-153.178311,0.000000,10799.070925
1536.529119,76.589155,76.589155,10569.303459
1536.529423,0.000000,0.000000,10952.249236
1536.529727,0.000000,0.000000,10952.249236
1536.530029,-459.534933,-306.356622,11258.605858
1536.530333,76.589155,76.589155,10799.070925
1536.530637,-153.178311,-306.356622,10952.249236
1536.530940,0.000000,0.000000,10952.249236
1536.531244,0.000000,0.000000,10952.249236
1536.531547,0.000000,76.589155,10952.249236
1536.531851,-153.178311,0.000000,10722.481770
1536.532154,0.000000,-153.178311,10952.249236
1536.532465,76.589155,76.589155,10799.070925
1536.532767,0.000000,76.589155,10722.481770
1536.533070,-153.178311,76.589155,10952.249236
1536.533372,229.767466,382.945777,10952.249236
1536.533675,76.589155,229.767466,10722.481770
1536.533977,76.589155,76.589155,10799.070925
1536.534280,-306.356622,76.589155,10722.481770
1536.534582,0.000000,0.000000,10952.249236
1536.534885,0.000000,-306.356622,10952.249236
1536.535189,76.589155,-153.178311,10952.249236
1536.535492,0.000000,-153.178311,10799.070925
1536.535796,0.000000,76.589155,10952.249236
1536.536099,76.589155,76.589155,10952.249236
1536.536402,-153.178311,76.589155,10799.070925
1536.536706,0.000000,229.767466,10952.249236
1536.537009,0.000000,-153.178311,10799.070925
1536.537315,0.000000,76.589155,10952.249236
1536.537619,76.589155,-153.178311,11105.427547
1536.537922,-153.178311,76.589155,11105.427547
1536.538225,76.589155,0.000000,10952.249236
1536.538528,-153.178311,229.767466,10952.249236
1536.538831,0.000000,229.767466,10799.070925
1536.539134,76.589155,229.767466,10952.249236
1536.539437,0.000000,76.589155,10952.249236
1536.539743,0.000000,229.767466,11105.427547
1536.540046,0.000000,-153.178311,10799.070925
1536.540350,0.000000,0.000000,10799.070925
1536.540653,0.000000,76.589155,10722.481770
1536.540956,-153.178311,-153.178311,10799.070925
1536.541259,76.589155,-153.178311,10952.249236
1536.541562,-153.178311,0.000000,10799.070925
1536.541866,0.000000,0.000000,10799.070925
1536.542169,0.000000,229.767466,10952.249236
1536.542472,0.000000,0.000000,10722.481770
1536.542776,-153.178311,0.000000,10799.070925
1536.543079,-153.178311,229.767466,10799.070925
1536.543383,-153.178311,76.589155,10799.070925
1536.543686,0.000000,76.589155,10722.481770
1536.543990,-153.178311,76.589155,10569.303459
1536.544294,0.000000,0.000000,10799.070925
1536.544596,-306.356622,0.000000,10799.070925
1536.544900,76.589155,0.000000,11105.427547
1536.545204,-153.178311,-153.178311,10799.070925
1536.545507,-153.178311,229.767466,10799.070925
1536.545811,-153.178311,229.767466,10799.070925
1536.546114,0.000000,229.767466,10799.070925
1536.546418,76.589155,229.767466,10722.481770
1536.546721,-153.178311,0.000000,10952.249236
1536.547024,0.000000,-153.178311,10952.249236
1536.547328,76.589155,76.589155,11105.427547
1536.547631,76.589155,-153.178311,11258.605858
1536.547935,-306.356622,-153.178311,10952.249236
1536.548238,-153.178311,0.000000,10722.481770
1536.548542,0.000000,0.000000,10952.249236
1536.548845,76.589155,382.945777,11105.427547
1536.549149,-306.356622,229.767466,10799.070925
1536.549459,0.000000,229.767466,10952.249236
1536.549762,0.000000,76.589155,10799.070925
1536.550064,-153.178311,76.589155,10952.249236
1536.550367,-612.713244,0.000000,10952.249236
1536.550670,-153.178311,382.945777,10799.070925
1536.550972,-153.178311,0.000000,10952.249236
1536.551275,0.000000,0.000000,10952.249236
1536.551577,-306.356622,0.000000,10722.481770
1536.551880,76.589155,229.767466,10799.070925
1536.552184,229.767466,76.589155,10722.481770
1536.552487,76.589155,76.589155,10952.249236
1536.552791,0.000000,76.589155,10722.481770
1536.553094,76.589155,229.767466,10722.481770
1536.553398,76.589155,-153.178311,10952.249236
1536.553701,0.000000,-153.178311,10799.070925
1536.554005,0.000000,0.000000,10952.249236
1536.554309,0.000000,-306.356622,10952.249236
1536.554612,0.000000,229.767466,10952.249236
1536.554916,0.000000,0.000000,10952.249236
1536.555219,0.000000,0.000000,10952.249236
1536.555522,0.000000,76.589155,10952.249236
1536.555826,-153.178311,0.000000,11105.427547
1536.556129,-306.356622,76.589155,10799.070925
1536.556432,-153.178311,229.767466,10722.481770
1536.556738,-306.356622,0.000000,10952.249236
1536.557041,76.589155,76.589155,10952.249236
1536.557345,0.000000,-306.356622,11105.427547
1536.557648,0.000000,229.767466,11105.427547
1536.557951,-153.178311,76.589155,10722.481770
1536.558254,-153.178311,76.589155,11105.427547
1536.558558,-153.178311,76.589155,11105.427547
1536.558861,0.000000,382.945777,10799.070925
1536.559164,76.589155,0.000000,10722.481770
1536.559467,76.589155,229.767466,10799.070925
1536.559771,0.000000,-153.178311,10799.070925
1536.560074,229.767466,229.767466,11105.427547
1536.560378,0.000000,76.589155,10799.070925
1536.560681,-306.356622,-153.178311,10952.249236
1536.560985,0.000000,-306.356622,10799.070925
1536.561289,-153.178311,76.589155,10799.070925
1536.561591,-153.178311,0.000000,10722.481770
1536.561895,0.000000,76.589155,10799.070925
1536.562199,0.000000,76.589155,10952.249236
1536.562502,0.000000,0.000000,10799.070925
1536.562806,76.589155,229.767466,10799.070925
1536.563109,-153.178311,76.589155,10799.070925
1536.563413,-153.178311,76.589155,10722.481770
1536.563716,-153.178311,76.589155,10799.070925
1536.564020,0.000000,0.000000,10799.070925
1536.564323,76.589155,0.000000,10952.249236
1536.564627,76.589155,76.589155,11105.427547
1536.564930,0.000000,-153.178311,10952.249236
1536.565234,0.000000,0.000000,11105.427547
1536.565537,-153.178311,-153.178311,10799.070925
1536.565841,0.000000,0.000000,11105.427547
1536.566144,-153.178311,229.767466,10952.249236
1536.566447,76.589155,0.000000,10952.249236
1536.566751,-153.178311,0.000000,10952.249236
1536.567054,-153.178311,229.767466,10952.249236
1536.567358,0.000000,0.000000,10722.481770
1536.567661,76.589155,229.767466,11105.427547
1536.567965,76.589155,229.767466,10952.249236
1536.568269,-459.534933,229.767466,10952.249236
1536.568572,0.000000,76.589155,10952.249236
1536.568875,-153.178311,0.000000,10799.070925
1536.569179,229.767466,382.945777,10799.070925
1536.569482,-153.178311,229.767466,10799.070925
1536.569786,0.000000,382.945777,10799.070925
1536.570089,76.589155,-153.178311,10722.481770
1536.570393,76.589155,229.767466,10799.070925
1536.570696,-459.534933,-153.178311,10799.070925
1536.571000,-153.178311,0.000000,10952.249236
1536.571304,0.000000,-153.178311,10799.070925
1536.571607,76.589155,76.589155,10799.070925
1536.571911,76.589155,76.589155,10722.481770
1536.572214,0.000000,0.000000,10952.249236
1536.572517,0.000000,0.000000,10952.249236
1536.572821,0.000000,76.589155,10952.249236
1536.573124,-153.178311,76.589155,10799.070925
1536.573427,0.000000,-306.356622,10952.249236
1536.573740,0.000000,0.000000,10952.249236
1536.574042,0.000000,0.000000,10952.249236
1536.574344,-153.178311,229.767466,10799.070925
1536.574646,0.000000,229.767466,10799.070925
1536.574949,0.000000,0.000000,10952.249236
1536.575251,229.767466,229.767466,10799.070925
1536.575553,-306.356622,229.767466,10799.070925
1536.575856,-153.178311,-153.178311,11105.427547
1536.576170,0.000000,0.000000,11105.427547
1536.576472,76.589155,76.589155,10722.481770
1536.576774,-153.178311,76.589155,10799.070925
1536.577076,-153.178311,382.945777,10569.303459
1536.577378,229.767466,536.124088,10952.249236
1536.577680,76.589155,76.589155,11105.427547
1536.577981,-306.356622,229.767466,10722.481770
1536.578283,-612.713244,-306.356622,10952.249236
1536.578592,229.767466,0.000000,10722.481770
1536.578895,-153.178311,0.000000,10952.249236
1536.579198,-153.178311,0.000000,10952.249236
1536.579500,-306.356622,76.589155,10722.481770
1536.579803,382.945777,229.767466,10799.070925
1536.580106,-153.178311,0.000000,10799.070925
1536.580409,-306.356622,76.589155,10952.249236
1536.580711,76.589155,-306.356622,11105.427547
1536.581014,229.767466,0.000000,11105.427547
1536.581318,-306.356622,-153.178311,10952.249236
1536.581621,-306.356622,-153.178311,10799.070925
1536.581925,76.589155,229.767466,10799.070925
1536.582228,229.767466,76.589155,10722.481770
1536.582532,76.589155,76.589155,10952.249236
1536.582836,-306.356622,0.000000,10799.070925
1536.583139,-153.178311,76.589155,10952.249236
1536.583442,76.589155,0.000000,10952.249236
1536.583746,-153.178311,76.589155,10799.070925
1536.584049,-612.713244,76.589155,11105.427547
1536.584353,229.767466,382.945777,10722.481770
1536.584656,76.589155,76.589155,10799.070925
1536.584960,-153.178311,76.589155,10799.070925
1536.585263,-153.178311,-306.356622,10799.070925
1536.585567,0.000000,0.000000,10722.481770
1536.585870,0.000000,-153.178311,11105.427547
1536.586173,-153.178311,76.589155,10952.249236
1536.586477,-459.534933,0.000000,10952.249236
1536.586780,0.000000,229.767466,10799.070925
1536.587084,-153.178311,76.589155,10722.481770
1536.587387,-153.178311,76.589155,11105.427547
1536.587690,0.000000,229.767466,10722.481770
1536.587994,229.767466,0.000000,10799.070925
1536.588299,0.000000,-153.178311,11105.427547
1536.588602,-153.178311,0.000000,10952.249236
1536.588906,76.589155,0.000000,10799.070925
1536.589209,76.589155,76.589155,10799.070925
1536.589512,0.000000,229.767466,10569.303459
1536.589815,0.000000,76.589155,10952.249236
1536.590118,76.589155,229.767466,10952.249236
1536.590422,0.000000,-153.178311,10799.070925
1536.590740,-153.178311,-153.178311,10952.249236
1536.591041,-153.178311,0.000000,10722.481770
1536.591343,229.767466,-153.178311,10952.249236
1536.591644,-153.178311,0.000000,11105.427547
1536.591946,-153.178311,0.000000,10799.070925
1536.592247,0.000000,0.000000,10799.070925
1536.592549,76.589155,229.767466,10952.249236
1536.592850,-153.178311,-153.178311,10952.249236
1536.593165,-153.178311,-153.178311,10799.070925
1536.593467,-153.178311,76.589155,10799.070925
1536.593769,76.589155,76.589155,10722.481770
1536.594070,-153.178311,0.000000,10722.481770
1536.594372,-153.178311,382.945777,10722.481770
1536.594674,76.589155,76.589155,10722.481770
1536.594976,0.000000,76.589155,10799.070925
1536.595278,0.000000,-153.178311,10952.249236
1536.595587,76.589155,-306.356622,11105.427547
1536.595890,0.000000,76.589155,10952.249236
1536.596193,0.000000,0.000000,10799.070925
1536.596495,-153.178311,76.589155,10799.070925
1536.596798,-306.356622,382.945777,10722.481770
1536.597101,76.589155,229.767466,10799.070925
1536.597403,-153.178311,0.000000,10799.070925
1536.597706,0.000000,-153.178311,11105.427547
1536.598009,-153.178311,-306.356622,10952.249236
1536.598313,76.589155,76.589155,10799.070925
1536.598616,-306.356622,0.000000,10799.070925
1536.598920,0.000000,229.767466,10952.249236
1536.599223,-153.178311,76.589155,10799.070925
1536.599527,-153.178311,229.767466,11105.427547
1536.599831,-153.178311,0.000000,10799.070925
1536.600134,0.000000,0.000000,11105.427547
1536.600438,0.000000,0.000000,10952.249236
1536.600742,0.000000,0.000000,10799.070925
1536.601045,76.589155,0.000000,10799.070925
1536.601348,76.589155,382.945777,10722.481770
1536.601652,76.589155,76.589155,10952.249236
1536.601955,229.767466,76.589155,10952.249236
1536.602258,0.000000,76.589155,10952.249236
1536.602562,0.000000,0.000000,10952.249236
1536.602865,0.000000,76.589155,10799.070925
1536.603169,76.589155,229.767466,10799.070925
1536.603472,0.000000,382.945777,10799.070925
1536.603776,-153.178311,76.589155,10799.070925
1536.604079,0.000000,229.767466,10952.249236
1536.604383,-153.178311,0.000000,10799.070925
1536.604686,76.589155,76.589155,10952.249236
1536.604990,-306.356622,-153.178311,10722.481770
1536.605300,76.589155,0.000000,10799.070925
1536.605603,-153.178311,-153.178311,10952.249236
1536.605905,-153.178311,76.589155,10722.481770
1536.606208,-612.713244,76.589155,10799.070925
1536.606510,0.000000,76.589155,10952.249236
1536.606813,-153.178311,76.589155,10722.481770
1536.607115,0.000000,0.000000,11105.427547
1536.607418,0.000000,0.000000,11258.605858
1536.607735,-153.178311,76.589155,10952.249236
1536.608036,76.589155,-153.178311,10799.070925
1536.608338,76.589155,0.000000,10952.249236
1536.608639,76.589155,76.589155,10722.481770
1536.608941,0.000000,229.767466,10799.070925
1536.609242,76.589155,76.589155,10799.070925
1536.609544,76.589155,-153.178311,11105.427547
1536.609846,-153.178311,76.589155,10799.070925
1536.610164,-153.178311,0.000000,10952.249236
1536.610466,-153.178311,-153.178311,10952.249236
1536.610767,0.000000,0.000000,10799.070925
1536.611068,0.000000,76.589155,10722.481770
1536.611370,0.000000,76.589155,10722.481770
1536.611671,-153.178311,76.589155,10569.303459
1536.611972,0.000000,0.000000,10569.303459
1536.612273,0.000000,0.000000,10952.249236
1536.612577,76.589155,229.767466,10799.070925
1536.612880,0.000000,0.000000,10799.070925
1536.613184,0.000000,0.000000,10799.070925
1536.613487,0.000000,0.000000,10799.070925
1536.613791,0.000000,0.000000,10952.249236
1536.614094,0.000000,76.589155,10799.070925
1536.614398,-153.178311,229.767466,10952.249236
1536.614701,0.000000,76.589155,11105.427547
1536.615004,0.000000,382.945777,10722.481770
1536.615307,-153.178311,76.589155,11258.605858
1536.615611,76.589155,0.000000,10799.070925
1536.615914,0.000000,0.000000,10722.481770
1536.616218,-153.178311,-153.178311,11105.427547
1536.616521,0.000000,-153.178311,11105.427547
1536.616825,76.589155,0.000000,10799.070925
1536.617128,-153.178311,0.000000,11105.427547
1536.617437,-306.356622,229.767466,10799.070925
1536.617740,-153.178311,76.589155,11105.427547
1536.618043,382.945777,229.767466,10952.249236
1536.618346,-153.178311,229.767466,10952.249236
1536.618648,-306.356622,229.767466,10952.249236
1536.618951,-459.534933,76.589155,10799.070925
1536.619254,76.589155,76.589155,10799.070925
1536.619557,-153.178311,-153.178311,10952.249236
1536.619860,-153.178311,0.000000,10799.070925
1536.620163,76.589155,-153.178311,10952.249236
1536.620467,0.000000,0.000000,10952.249236
1536.620770,-153.178311,229.767466,10799.070925
1536.621074,-153.178311,0.000000,10952.249236
1536.621378,76.589155,229.767466,10799.070925
1536.621681,0.000000,76.589155,10416.125148
1536.621985,0.000000,76.589155,10952.249236
1536.622288,76.589155,0.000000,11105.427547
1536.622591,229.767466,0.000000,10952.249236
1536.622895,-153.178311,-153.178311,10952.249236
1536.623198,0.000000,-153.178311,10952.249236
1536.623502,-153.178311,-153.178311,11105.427547
1536.623805,0.000000,382.945777,10799.070925
1536.624109,0.000000,76.589155,10952.249236
1536.624412,0.000000,76.589155,10799.070925
1536.624729,229.767466,0.000000,10722.481770
1536.625031,-153.178311,76.589155,10722.481770
1536.625333,-306.356622,0.000000,10952.249236
1536.625634,0.000000,0.000000,10799.070925
1536.625936,-153.178311,-153.178311,10799.070925
1536.626237,-153.178311,76.589155,10952.249236
1536.626539,-153.178311,76.589155,10722.481770
1536.626840,76.589155,76.589155,11105.427547
1536.627159,229.767466,229.767466,10799.070925
1536.627460,0.000000,229.767466,10799.070925
1536.627762,-153.178311,-153.178311,11105.427547
1536.628063,-153.178311,229.767466,10952.249236
1536.628364,-153.178311,-153.178311,10952.249236
1536.628665,-153.178311,0.000000,10799.070925
1536.628967,0.000000,76.589155,10799.070925
1536.629268,0.000000,0.000000,10952.249236
1536.629577,76.589155,76.589155,10799.070925
1536.629880,0.000000,76.589155,10952.249236
1536.630183,-306.356622,-153.178311,10799.070925
1536.630485,0.000000,229.767466,10799.070925
1536.630788,0.000000,-153.178311,10952.249236
1536.631091,-306.356622,0.000000,11105.427547
1536.631393,-153.178311,382.945777,10722.481770
1536.631696,76.589155,0.000000,10799.070925
1536.631999,76.589155,0.000000,10952.249236
1536.632303,-153.178311,76.589155,10799.070925
1536.632606,0.000000,0.000000,10952.249236
1536.632910,76.589155,76.589155,10952.249236
1536.633213,0.000000,229.767466,10952.249236
1536.633517,0.000000,0.000000,11258.605858
1536.633820,0.000000,536.124088,10722.481770
1536.634124,76.589155,0.000000,10722.481770
1536.634429,0.000000,0.000000,10952.249236
1536.634733,0.000000,0.000000,10722.481770
1536.635036,229.767466,76.589155,10799.070925
1536.635339,0.000000,0.000000,10952.249236
1536.635642,-306.356622,0.000000,10952.249236
1536.635945,0.000000,-153.178311,10952.249236
1536.636249,0.000000,229.767466,10952.249236
1536.636552,-306.356622,0.000000,10952.249236
1536.636855,0.000000,76.589155,10952.249236
1536.637158,229.767466,76.589155,10722.481770
1536.637462,0.000000,0.000000,11105.427547
1536.637765,-153.178311,229.767466,11105.427547
1536.638069,0.000000,229.767466,10952.249236
1536.638372,76.589155,76.589155,10799.070925
1536.638676,382.945777,382.945777,10569.303459
1536.638980,-153.178311,0.000000,10952.249236
1536.639286,0.000000,229.767466,10722.481770
1536.639589,0.000000,0.000000,10799.070925
1536.639892,229.767466,76.589155,10952.249236
1536.640195,-306.356622,0.000000,10799.070925
1536.640498,-153.178311,229.767466,10952.249236
1536.640801,76.589155,-153.178311,10952.249236
1536.641104,0.000000,229.767466,10952.249236
1536.641407,76.589155,0.000000,10799.070925
1536.641713,229.767466,76.589155,10952.249236
1536.642016,76.589155,76.589155,10952.249236
1536.642319,76.589155,76.589155,10952.249236
1536.642623,-153.178311,76.589155,10952.249236
1536.642926,-306.356622,76.589155,10952.249236
1536.643229,76.589155,229.767466,10952.249236
1536.643532,76.589155,76.589155,10952.249236
1536.643835,-153.178311,0.000000,10799.070925
1536.644154,-153.178311,0.000000,10722.481770
1536.644455,76.589155,76.589155,10722.481770
1536.644757,0.000000,-153.178311,11105.427547
1536.645058,-153.178311,229.767466,10799.070925
1536.645359,-153.178311,229.767466,10799.070925
1536.645661,229.767466,229.767466,10799.070925
1536.645962,0.000000,229.767466,10799.070925
1536.646263,-153.178311,76.589155,10952.249236
1536.646573,76.589155,0.000000,10952.249236
1536.646876,76.589155,76.589155,10952.249236
1536.647178,-306.356622,-459.534933,10799.070925
1536.647481,-153.178311,229.767466,10952.249236
1536.647783,-306.356622,76.589155,10799.070925
1536.648086,76.589155,382.945777,10952.249236
1536.648388,-153.178311,76.589155,10799.070925
1536.648691,-153.178311,229.767466,10799.070925
1536.648995,-153.178311,76.589155,10799.070925
1536.649298,-153.178311,76.589155,10722.481770
1536.649602,0.000000,-306.356622,10952.249236
1536.649905,-306.356622,76.589155,11105.427547
1536.650209,0.000000,76.589155,10799.070925
1536.650512,0.000000,76.589155,10952.249236
1536.650816,0.000000,76.589155,10799.070925
1536.651119,0.000000,76.589155,10952.249236
1536.651425,229.767466,229.767466,10952.249236
1536.651728,-153.178311,76.589155,10799.070925
1536.652031,0.000000,76.589155,10952.249236
1536.652334,76.589155,0.000000,10799.070925
1536.652637,76.589155,229.767466,10722.481770
1536.652940,0.000000,76.589155,10799.070925
1536.653244,0.000000,229.767466,10799.070925
1536.653547,0.000000,0.000000,10952.249236
1536.653850,0.000000,76.589155,10799.070925
1536.654153,-153.178311,-153.178311,11105.427547
1536.654457,-153.178311,76.589155,10799.070925
1536.654760,-153.178311,-153.178311,11258.605858
1536.655064,76.589155,76.589155,10799.070925
1536.655367,0.000000,76.589155,10799.070925
1536.655671,-306.356622,0.000000,10952.249236
1536.655975,-306.356622,-153.178311,10799.070925
1536.656281,76.589155,0.000000,10952.249236
1536.656584,-306.356622,0.000000,10569.303459
1536.656887,76.589155,76.589155,11105.427547
1536.657190,-306.356622,0.000000,10799.070925
1536.657493,76.589155,76.589155,10799.070925
1536.657796,0.000000,0.000000,10952.249236
1536.658100,0.000000,76.589155,10952.249236
1536.658403,0.000000,229.767466,10722.481770
1536.658714,0.000000,0.000000,11105.427547
1536.659016,76.589155,76.589155,10799.070925
1536.659319,-306.356622,76.589155,10799.070925
1536.659621,0.000000,382.945777,11105.427547
1536.659923,229.767466,76.589155,10569.303459
1536.660226,0.000000,229.767466,10799.070925
1536.660528,-153.178311,0.000000,10952.249236
1536.660831,0.000000,0.000000,10952.249236
1536.661149,0.000000,-306.356622,11105.427547
1536.661451,-153.178311,-306.356622,10952.249236
1536.661752,-153.178311,76.589155,10799.070925
1536.662053,0.000000,382.945777,10799.070925
1536.662355,-153.178311,76.589155,10952.249236
1536.662656,-153.178311,76.589155,10799.070925
1536.662957,-306.356622,76.589155,10799.070925
1536.663259,0.000000,76.589155,10952.249236
1536.663569,0.000000,0.000000,11105.427547
1536.663871,-153.178311,0.000000,10952.249236
1536.664174,-153.178311,0.000000,10799.070925
1536.664476,76.589155,0.000000,10799.070925
1536.664779,0.000000,76.589155,10952.249236
1536.665081,0.000000,229.767466,10722.481770
1536.665384,0.000000,76.589155,11105.427547
1536.665686,0.000000,0.000000,10799.070925
1536.665989,229.767466,76.589155,10799.070925
1536.666293,-153.178311,-153.178311,10722.481770
1536.666596,-153.178311,0.000000,10952.249236
1536.666900,76.589155,-153.178311,10952.249236
1536.667203,229.767466,0.000000,10952.249236
1536.667507,0.000000,0.000000,10952.249236
1536.667810,-153.178311,76.589155,10799.070925
1536.668113,-153.178311,0.000000,10952.249236
1536.668418,76.589155,76.589155,10799.070925
1536.668721,-459.534933,0.000000,10722.481770
1536.669025,-153.178311,0.000000,11105.427547
1536.669328,-153.178311,76.589155,10799.070925
1536.669631,-306.356622,0.000000,10952.249236
1536.669935,-306.356622,0.000000,10799.070925
1536.670238,-153.178311,76.589155,10799.070925
1536.670542,0.000000,76.589155,10799.070925
1536.670845,-153.178311,382.945777,10952.249236
1536.671148,0.000000,0.000000,10799.070925
1536.671452,76.589155,-153.178311,10952.249236
1536.671755,76.589155,229.767466,10799.070925
1536.672059,0.000000,76.589155,10952.249236
1536.672363,76.589155,76.589155,10799.070925
1536.672666,76.589155,76.589155,10799.070925
1536.672970,76.589155,229.767466,10722.481770
1536.673276,76.589155,0.000000,10799.070925
1536.673579,229.767466,0.000000,10722.481770
1536.673882,0.000000,-459.534933,10799.070925
1536.674185,0.000000,76.589155,10952.249236
1536.674488,-153.178311,0.000000,10799.070925
1536.674792,-153.178311,76.589155,10799.070925
1536.675095,-306.356622,76.589155,11105.427547
1536.675398,-459.534933,0.000000,10799.070925
1536.675720,-153.178311,0.000000,11105.427547
1536.676021,0.000000,0.000000,10722.481770
1536.676322,-306.356622,-153.178311,10952.249236
1536.676622,-306.356622,76.589155,10952.249236
1536.676923,-153.178311,-153.178311,10952.249236
1536.677224,0.000000,229.767466,10952.249236
1536.677525,-153.178311,76.589155,10799.070925
1536.677826,76.589155,229.767466,10799.070925
1536.678144,0.000000,0.000000,10952.249236
1536.678446,229.767466,-153.178311,10799.070925
1536.678747,229.767466,76.589155,10799.070925
1536.679048,0.000000,-306.356622,10952.249236
1536.679349,76.589155,229.767466,10952.249236
1536.679650,0.000000,76.589155,10799.070925
1536.679952,0.000000,229.767466,10799.070925
1536.680253,0.000000,229.767466,10722.481770
1536.680565,229.767466,-153.178311,10952.249236
1536.680867,0.000000,76.589155,11105.427547
1536.681170,-153.178311,0.000000,10952.249236
1536.681472,-153.178311,-306.356622,11105.427547
1536.681774,-153.178311,0.000000,10799.070925
1536.682077,-153.178311,229.767466,10799.070925
1536.682379,-306.356622,76.589155,10569.303459
1536.682681,0.000000,76.589155,10799.070925
1536.682985,0.000000,76.589155,10952.249236
1536.683288,0.000000,-153.178311,11105.427547
1536.683592,-153.178311,229.767466,10799.070925
1536.683895,-306.356622,-306.356622,10952.249236
1536.684199,76.589155,76.589155,10952.249236
1536.684502,-153.178311,76.589155,10952.249236
1536.684806,-306.356622,382.945777,10952.249236
1536.685109,-153.178311,229.767466,11105.427547
1536.685414,76.589155,76.589155,10952.249236
1536.685718,76.589155,76.589155,10799.070925
1536.686021,0.000000,76.589155,10799.070925
1536.686324,76.589155,76.589155,10799.070925
1536.686628,0.000000,-153.178311,10952.249236
1536.686931,0.000000,229.767466,10722.481770
1536.687234,-306.356622,229.767466,10569.303459
1536.687537,229.767466,382.945777,10722.481770
1536.687840,-306.356622,76.589155,10799.070925
1536.688144,0.000000,76.589155,11105.427547
1536.688448,-153.178311,-153.178311,11105.427547
1536.688751,-153.178311,76.589155,11105.427547
1536.689055,-153.178311,0.000000,10799.070925
1536.689358,0.000000,76.589155,10799.070925
1536.689662,-306.356622,76.589155,10569.303459
1536.689965,-153.178311,229.767466,10722.481770
1536.690272,-153.178311,0.000000,10799.070925
1536.690575,0.000000,-153.178311,10799.070925
1536.690878,0.000000,0.000000,10952.249236
1536.691181,0.000000,-153.178311,10799.070925
1536.691484,382.945777,-153.178311,10952.249236
1536.691787,229.767466,-153.178311,10952.249236
1536.692090,-306.356622,382.945777,10952.249236
1536.692393,0.000000,76.589155,10722.481770
1536.692716,76.589155,382.945777,10799.070925
1536.693017,229.767466,0.000000,11258.605858
1536.693317,76.589155,76.589155,10952.249236
1536.693618,0.000000,229.767466,10952.249236
1536.693919,0.000000,76.589155,11105.427547
1536.694219,-306.356622,-153.178311,11105.427547
1536.694520,-153.178311,76.589155,10952.249236
1536.694821,-153.178311,76.589155,10799.070925
1536.695124,-306.356622,229.767466,10722.481770
1536.695427,-153.178311,0.000000,10952.249236
1536.695731,0.000000,76.589155,10799.070925
1536.696035,0.000000,0.000000,10952.249236
1536.696338,-153.178311,0.000000,10952.249236
1536.696642,-306.356622,0.000000,10799.070925
1536.696945,-153.178311,382.945777,10569.303459
1536.697249,-306.356622,76.589155,10722.481770
1536.697564,-153.178311,382.945777,10799.070925
1536.697866,-153.178311,76.589155,10952.249236
1536.698168,-153.178311,0.000000,11105.427547
1536.698469,0.000000,0.000000,10799.070925
1536.698771,76.589155,0.000000,10952.249236
1536.699073,0.000000,76.589155,10722.481770
1536.699375,0.000000,76.589155,10799.070925
1536.699677,-306.356622,229.767466,10952.249236
1536.699980,76.589155,229.767466,10722.481770
1536.700283,76.589155,0.000000,10952.249236
1536.700587,0.000000,0.000000,11105.427547
1536.700890,0.000000,-153.178311,11105.427547
1536.701194,-153.178311,76.589155,10799.070925
1536.701498,-153.178311,-153.178311,10952.249236
1536.701801,-153.178311,0.000000,10722.481770
1536.702105,-306.356622,76.589155,10722.481770
1536.702416,-153.178311,0.000000,10569.303459
1536.702718,0.000000,229.767466,10952.249236
1536.703021,0.000000,-153.178311,11105.427547
1536.703323,0.000000,229.767466,10952.249236
1536.703625,0.000000,0.000000,11105.427547
1536.703928,0.000000,76.589155,10952.249236
1536.704230,0.000000,0.000000,10799.070925
1536.704533,0.000000,382.945777,10952.249236
1536.704836,76.589155,0.000000,10416.125148
1536.705140,76.589155,76.589155,10952.249236
1536.705443,-153.178311,-153.178311,10952.249236
1536.705747,76.589155,76.589155,11105.427547
1536.706050,76.589155,76.589155,11105.427547
1536.706353,0.000000,76.589155,10952.249236
1536.706657,-306.356622,76.589155,10722.481770
1536.706960,0.000000,76.589155,10799.070925
1536.707266,76.589155,76.589155,10569.303459
1536.707570,-153.178311,-153.178311,10799.070925
1536.707873,0.000000,76.589155,10799.070925
1536.708176,0.000000,-153.178311,10722.481770
1536.708479,0.000000,76.589155,10952.249236
1536.708782,-459.534933,382.945777,10799.070925
1536.709085,-153.178311,229.767466,10722.481770
1536.709388,76.589155,76.589155,10722.481770
1536.709710,76.589155,76.589155,10722.481770
1536.710011,76.589155,76.589155,11105.427547
1536.710312,0.000000,229.767466,10722.481770
1536.710613,229.767466,-153.178311,10799.070925
1536.710914,0.000000,0.000000,11105.427547
1536.711215,-306.356622,76.589155,10799.070925
1536.711515,0.000000,76.589155,10952.249236
1536.711816,0.000000,76.589155,10952.249236
1536.712129,229.767466,229.767466,10952.249236
1536.712431,0.000000,-153.178311,10952.249236
1536.712734,0.000000,76.589155,11105.427547
1536.713036,-153.178311,0.000000,10799.070925
1536.713338,76.589155,0.000000,10952.249236
1536.713640,0.000000,76.589155,10799.070925
1536.713942,0.000000,229.767466,10952.249236
1536.714244,-153.178311,0.000000,10952.249236
1536.714558,0.000000,76.589155,10799.070925
1536.714860,-153.178311,-153.178311,10952.249236
1536.715162,-153.178311,0.000000,11105.427547
1536.715464,-153.178311,0.000000,10952.249236
1536.715766,76.589155,229.767466,10799.070925
1536.716068,0.000000,382.945777,10722.481770
1536.716370,-306.356622,76.589155,10799.070925
1536.716672,-153.178311,76.589155,10799.070925
1536.716975,229.767466,229.767466,10799.070925
1536.717278,-306.356622,-306.356622,11105.427547
1536.717582,-306.356622,-153.178311,11105.427547
1536.717885,-306.356622,-306.356622,10799.070925
1536.718189,229.767466,0.000000,11105.427547
1536.718493,-306.356622,0.000000,10799.070925
1536.718796,-153.178311,76.589155,10952.249236
1536.719100,0.000000,0.000000,10952.249236
1536.719411,229.767466,229.767466,10722.481770
1536.719713,0.000000,76.589155,10952.249236
1536.720016,-153.178311,0.000000,10799.070925
1536.720318,0.000000,76.589155,10799.070925
1536.720620,229.767466,-153.178311,11105.427547
1536.720923,-153.178311,76.589155,10799.070925
1536.721225,-153.178311,76.589155,10952.249236
1536.721528,0.000000,76.589155,10799.070925
1536.721830,76.589155,0.000000,10952.249236
1536.722134,-153.178311,0.000000,10952.249236
1536.722438,0.000000,0.000000,10799.070925
1536.722741,0.000000,0.000000,10799.070925
1536.723045,76.589155,76.589155,10952.249236
1536.723348,0.000000,229.767466,10952.249236
1536.723652,0.000000,0.000000,10722.481770
1536.723956,0.000000,229.767466,10952.249236
1536.724259,-306.356622,229.767466,10799.070925
1536.724562,0.000000,0.000000,10952.249236
1536.724866,-306.356622,-153.178311,10799.070925
1536.725169,0.000000,0.000000,10722.481770
1536.725473,-306.356622,-153.178311,10952.249236
1536.725776,76.589155,0.000000,10799.070925
1536.726080,-153.178311,-153.178311,10799.070925
1536.726383,-153.178311,76.589155,11105.427547
1536.726706,0.000000,76.589155,10799.070925
1536.727007,0.000000,76.589155,10799.070925
1536.727307,-153.178311,0.000000,10952.249236
1536.727608,76.589155,76.589155,10952.249236
1536.727909,76.589155,0.000000,10799.070925
1536.728210,-153.178311,76.589155,10799.070925
1536.728511,-153.178311,76.589155,10799.070925
1536.728811,0.000000,-153.178311,10799.070925
1536.729120,-153.178311,76.589155,10799.070925
1536.729423,76.589155,229.767466,10952.249236
1536.729725,76.589155,0.000000,10952.249236
1536.730028,-153.178311,-153.178311,10799.070925
1536.730331,-153.178311,229.767466,10952.249236
1536.730634,76.589155,0.000000,10799.070925
1536.730936,-153.178311,76.589155,10722.481770
1536.731239,-306.356622,0.000000,10569.303459
1536.731554,229.767466,229.767466,10799.070925
1536.731856,0.000000,76.589155,10722.481770
1536.732158,-153.178311,-153.178311,10952.249236
1536.732460,-153.178311,-306.356622,10952.249236
1536.732762,0.000000,76.589155,11105.427547
1536.733063,-153.178311,-153.178311,11105.427547
1536.733365,-306.356622,0.000000,10722.481770
1536.733667,0.000000,0.000000,10799.070925
1536.733970,76.589155,229.767466,11105.427547
1536.734274,0.000000,536.124088,10722.481770
1536.734577,-153.178311,-153.178311,10952.249236
1536.734881,0.000000,0.000000,10799.070925
1536.735184,76.589155,76.589155,10799.070925
1536.735488,-153.178311,-306.356622,11105.427547
1536.735791,-306.356622,76.589155,10799.070925
1536.736095,76.589155,76.589155,10799.070925
1536.736406,76.589155,76.589155,11105.427547
1536.736708,0.000000,229.767466,10799.070925
1536.737010,-459.534933,0.000000,10799.070925
1536.737313,0.000000,-153.178311,10799.070925
1536.737615,76.589155,0.000000,11105.427547
1536.737918,-459.534933,76.589155,10799.070925
1536.738220,-306.356622,-153.178311,10952.249236
1536.738522,76.589155,229.767466,10799.070925
1536.738825,0.000000,0.000000,10952.249236
1536.739129,76.589155,229.767466,10722.481770
1536.739433,-306.356622,0.000000,10799.070925
1536.739736,76.589155,0.000000,10952.249236
1536.740040,76.589155,76.589155,10799.070925
1536.740343,-153.178311,-153.178311,10952.249236
1536.740647,-153.178311,76.589155,10799.070925
1536.740950,-153.178311,76.589155,10799.070925
1536.741257,0.000000,0.000000,10722.481770
1536.741560,0.000000,76.589155,10952.249236
1536.741863,-153.178311,76.589155,10722.481770
1536.742166,76.589155,-153.178311,10799.070925
1536.742470,76.589155,229.767466,10952.249236
1536.742773,0.000000,0.000000,10799.070925
1536.743076,0.000000,76.589155,10799.070925
1536.743379,-153.178311,76.589155,10722.481770
1536.743681,76.589155,76.589155,10952.249236
1536.743985,-306.356622,0.000000,10722.481770
1536.744288,-306.356622,229.767466,11105.427547
1536.744592,0.000000,-612.713244,11105.427547
1536.744895,0.000000,76.589155,11105.427547
1536.745199,-153.178311,0.000000,10799.070925
1536.745502,-153.178311,0.000000,11105.427547
1536.745806,-153.178311,0.000000,10799.070925
1536.746114,0.000000,76.589155,10952.249236
1536.746417,-306.356622,-153.178311,10799.070925
1536.746720,76.589155,229.767466,10952.249236
1536.747023,-153.178311,-306.356622,10952.249236
1536.747325,76.589155,229.767466,10952.249236
1536.747628,-153.178311,0.000000,11105.427547
1536.747931,-306.356622,76.589155,10952.249236
1536.748234,76.589155,229.767466,10722.481770
1536.748549,-153.178311,76.589155,10722.481770
1536.748851,229.767466,382.945777,10799.070925
1536.749153,76.589155,-153.178311,10569.303459
1536.749454,-1225.426488,-153.178311,10952.249236
1536.749756,-1914.728887,0.000000,10722.481770
1536.750058,229.767466,76.589155,10952.249236
1536.750360,382.945777,-153.178311,10952.249236
1536.750662,-2986.977064,0.000000,10722.481770
1536.750965,-1378.604799,0.000000,10722.481770
1536.751268,0.000000,0.000000,10952.249236
1536.751572,-919.069866,76.589155,10722.481770
1536.751875,-1761.550576,-153.178311,10799.070925
1536.752179,-765.891555,229.767466,10952.249236
1536.752482,-612.713244,76.589155,10952.249236
1536.752785,-1531.783110,76.589155,10952.249236
1536.753089,-2067.907198,0.000000,11105.427547
1536.753407,-3216.744531,-459.534933,10799.070925
1536.753708,-1608.372265,382.945777,10722.481770
1536.754010,-2221.085509,-765.891555,11258.605858
1536.754311,-2374.263820,536.124088,10799.070925
1536.754612,-2067.907198,0.000000,10799.070925
1536.754914,-3216.744531,-306.356622,11258.605858
1536.755215,-4288.992708,76.589155,10722.481770
1536.755517,-4135.814397,76.589155,10952.249236
1536.755832,-3216.744531,536.124088,10722.481770
1536.756134,-2374.263820,382.945777,10722.481770
1536.756436,-2986.977064,-306.356622,11258.605858
1536.756738,-2374.263820,689.302399,10799.070925
1536.757040,-3676.279464,0.000000,10799.070925
1536.757341,-4595.349330,-459.534933,11258.605858
1536.757643,-4442.171019,76.589155,10569.303459
1536.757945,-4595.349330,-612.713244,10799.070925
1536.758248,-5131.473418,-306.356622,10952.249236
1536.758552,-3982.636086,382.945777,10722.481770
1536.758855,-2833.798753,76.589155,11258.605858
1536.759159,-612.713244,1455.193954,11258.605858
1536.759462,995.659021,1148.837332,11258.605858
1536.759766,1684.961421,1302.015643,11564.962480
1536.760070,2757.209598,1148.837332,11258.605858
1536.760373,1531.783110,229.767466,11258.605858
1536.760689,536.124088,229.767466,11411.784169
1536.760991,-306.356622,-765.891555,10952.249236
1536.761292,-1608.372265,-1072.248177,11411.784169
1536.761594,-2067.907198,-1378.604799,10952.249236
1536.761896,-3523.101153,-1684.961421,10799.070925
1536.762198,-3829.457775,-1838.139732,10952.249236
1536.762499,-4595.349330,-1684.961421,10569.303459
1536.762801,-5284.651729,-1914.728887,10799.070925
1536.763110,-4442.171019,-1225.426488,11105.427547
1536.763412,-3829.457775,-306.356622,10416.125148
1536.763715,-1914.728887,-153.178311,10722.481770
1536.764018,995.659021,1838.139732,10262.946837
1536.764320,4365.581863,3063.566220,10416.125148
1536.764623,5820.775818,3063.566220,10799.070925
1536.764925,6356.899906,3369.922842,10416.125148
1536.765228,5054.884263,2604.031287,10952.249236
1536.765544,3140.155375,1302.015643,10799.070925
1536.765845,3446.511997,995.659021,10952.249236
1536.766147,-306.356622,-2067.907198,11258.605858
1536.766449,-2680.620442,-2067.907198,11411.784169
1536.766751,-5591.008351,-2986.977064,10952.249236
1536.767053,-7658.915550,-3293.333686,11105.427547
1536.767355,-7658.915550,-1914.728887,10799.070925
1536.767657,-5897.364973,-1225.426488,10799.070925
1536.767959,-2374.263820,229.767466,10952.249236
1536.768263,995.659021,1302.015643,11105.427547
1536.768567,3293.333686,3063.566220,10952.249236
1536.768870,3752.868619,2604.031287,11564.962480
1536.769174,3599.690308,3676.279464,10722.481770
1536.769477,2604.031287,4059.225241,10416.125148
1536.769781,1302.015643,3063.566220,10416.125148
1536.770084,-919.069866,1302.015643,10722.481770
1536.770387,-2527.442131,-459.534933,10952.249236
1536.770691,-4442.171019,-1914.728887,11105.427547
1536.770994,-6280.310751,-3599.690308,11258.605858
1536.771298,-8654.574571,-4595.349330,11564.962480
1536.771601,-8348.217949,-4288.992708,11718.140791
1536.771905,-6893.023995,-3446.511997,11564.962480
1536.772208,-6586.667373,-1225.426488,10952.249236
1536.772512,-5744.186662,-459.534933,10799.070925
1536.772828,-4825.116796,689.302399,10416.125148
1536.773130,-2374.263820,2604.031287,10109.768526
1536.773432,0.000000,4212.403552,9803.411904
1536.773733,0.000000,4518.760174,9803.411904
1536.774035,1991.318043,4671.938485,10262.946837
1536.774337,4518.760174,3369.922842,10952.249236
1536.774639,3293.333686,1991.318043,11258.605858
1536.774940,1148.837332,382.945777,11718.140791
1536.775243,-2221.085509,-1684.961421,11871.319102
1536.775547,-6739.845684,-3293.333686,11411.784169
1536.775850,-7505.737239,-4442.171019,11105.427547
1536.776154,-4671.938485,-3446.511997,11105.427547
1536.776457,-3523.101153,-2986.977064,10799.070925
1536.776761,-2680.620442,-2067.907198,11105.427547
1536.777065,-1914.728887,-1378.604799,11105.427547
1536.777368,-2833.798753,-153.178311,11105.427547
1536.777671,-3982.636086,-153.178311,10569.303459
1536.777975,-6203.721595,-765.891555,10722.481770
1536.778278,-8501.396260,229.767466,10262.946837
1536.778582,-4595.349330,2297.674665,9956.590215
1536.778885,1991.318043,4825.116796,9650.233593
1536.779189,5820.775818,5284.651729,10416.125148
1536.779493,6969.613150,4365.581863,11258.605858
1536.779796,5208.062574,3063.566220,11411.784169
1536.780099,5054.884263,1608.372265,11105.427547
1536.780403,5054.884263,-919.069866,11718.140791
1536.780707,1148.837332,-2374.263820,11871.319102
1536.781010,-1531.783110,-3293.333686,11411.784169
1536.781314,76.589155,-3829.457775,11105.427547
1536.781617,-2067.907198,-3829.457775,11105.427547
1536.781921,-6050.543284,-2680.620442,10799.070925
1536.782224,-9267.287815,-2067.907198,10416.125148
1536.782535,-12177.675724,-2374.263820,10262.946837
1536.782837,-7658.915550,-1914.728887,10569.303459
1536.783140,2144.496354,536.124088,11105.427547
1536.783442,4671.938485,1761.550576,10952.249236
1536.783745,3063.566220,3523.101153,10416.125148
1536.784047,1531.783110,4365.581863,10262.946837
1536.784350,5361.240885,3752.868619,10416.125148
1536.784652,9037.520349,3906.046930,10799.070925
1536.784956,8271.628794,4978.295107,10109.768526
1536.785259,3063.566220,2450.852976,10569.303459
1536.785562,-1225.426488,76.589155,10952.249236
1536.785866,-5744.186662,-2833.798753,11105.427547
1536.786169,-14322.172078,-7122.791461,11411.784169
1536.786473,-17692.094920,-6510.078217,10799.070925
1536.786776,-13786.047990,-6356.899906,10799.070925
1536.787080,-6893.023995,-4442.171019,12024.497413
1536.787383,-3216.744531,-1378.604799,11718.140791
1536.787686,-612.713244,1148.837332,11564.962480
1536.787990,3906.046930,4212.403552,11105.427547
1536.788293,8577.985416,5437.830040,10569.303459
1536.788597,9420.466126,4825.116796,10799.070925
1536.788900,4365.581863,3906.046930,10952.249236
1536.789204,689.302399,4518.760174,9956.590215
1536.789507,-919.069866,2450.852976,10262.946837
1536.789826,-4978.295107,229.767466,10799.070925
1536.790128,-8041.861327,-459.534933,10722.481770
1536.790429,-5437.830040,-2374.263820,11718.140791
1536.790730,-8195.039638,-2527.442131,11411.784169
1536.791032,-13020.156435,-5361.240885,11258.605858
1536.791333,-9497.055282,-6203.721595,11871.319102
1536.791634,-1608.372265,-3293.333686,11411.784169
1536.791936,-1608.372265,-2527.442131,10952.249236
1536.792239,-6893.023995,995.659021,9650.233593
1536.792542,-4442.171019,3216.744531,8807.752882
1536.792846,3599.690308,3369.922842,10109.768526
1536.793149,8731.163727,3523.101153,10952.249236
1536.793453,8424.807105,4059.225241,11411.784169
1536.793757,4365.581863,3063.566220,11564.962480
1536.794060,-1914.728887,1991.318043,10799.070925
1536.794364,-5897.364973,382.945777,10952.249236
1536.794667,-4135.814397,-1225.426488,11258.605858
1536.794970,-4825.116796,-1531.783110,10109.768526
1536.795274,-11258.605858,-4288.992708,10416.125148
1536.795577,-8654.574571,-4135.814397,11105.427547
1536.795881,4059.225241,-1531.783110,11411.784169
1536.796184,9880.001059,536.124088,12024.497413
1536.796488,4671.938485,229.767466,11718.140791
1536.796791,-612.713244,-1072.248177,11411.784169
1536.797094,-459.534933,-306.356622,10952.249236
1536.797398,2297.674665,1761.550576,10109.768526
1536.797702,-153.178311,-459.534933,10416.125148
1536.798005,-7505.737239,536.124088,10569.303459
1536.798309,-12024.497413,382.945777,9650.233593
1536.798612,-6893.023995,1148.837332,9803.411904
1536.798916,4365.581863,382.945777,10952.249236
1536.799219,6816.434839,-306.356622,12713.799813
1536.799530,2297.674665,842.480710,12330.854035
1536.799832,689.302399,689.302399,11105.427547
1536.800135,2297.674665,-919.069866,11105.427547
1536.800437,-1225.426488,-1531.783110,10952.249236
1536.800740,-5284.651729,842.480710,8807.752882
1536.801042,-7199.380617,1608.372265,8195.039638
1536.801345,-919.069866,1148.837332,10262.946837
1536.801647,4748.527641,1761.550576,11564.962480
1536.801950,3063.566220,1761.550576,11564.962480
1536.802254,-1072.248177,382.945777,11411.784169
1536.802557,-1531.783110,-3293.333686,12407.443191
1536.802861,-153.178311,-3982.636086,13479.691368
1536.803164,-10109.768526,-1531.783110,10799.070925
1536.803467,-10722.481770,-459.534933,8960.931193
1536.803771,2910.387909,382.945777,10799.070925
1536.804074,10799.070925,1991.318043,12024.497413
1536.804383,9037.520349,4671.938485,11564.962480
1536.804686,4365.581863,5667.597507,10952.249236
1536.804988,8118.450483,4365.581863,11258.605858
1536.805291,2450.852976,0.000000,11564.962480
1536.805594,-8501.396260,-2833.798753,11105.427547
1536.805897,-16390.079277,-5054.884263,9497.055282
1536.806199,-13479.691368,-4288.992708,9343.876971
1536.806502,-5744.186662,-4288.992708,11105.427547
1536.806808,-153.178311,229.767466,11105.427547
1536.807111,-5744.186662,-1378.604799,11564.962480
1536.807414,2297.674665,1761.550576,11564.962480
1536.807718,9343.876971,1838.139732,12024.497413
1536.808021,995.659021,-153.178311,12330.854035
1536.808324,-4978.295107,2604.031287,10109.768526
1536.808627,1148.837332,1761.550576,8960.931193
1536.808930,7965.272172,2450.852976,10416.125148
1536.809233,7429.148083,2757.209598,10416.125148
1536.809537,3293.333686,3523.101153,10262.946837
1536.809840,1455.193954,1761.550576,11258.605858
1536.810144,4059.225241,-153.178311,12024.497413
1536.810448,76.589155,-2986.977064,12024.497413
1536.810751,-10875.660081,-4288.992708,11258.605858
1536.811055,-10416.125148,-3829.457775,9956.590215
1536.811358,536.124088,-3446.511997,10952.249236
1536.811661,2757.209598,-919.069866,10952.249236
1536.811965,-3140.155375,995.659021,9956.590215
1536.812268,2144.496354,3216.744531,9956.590215
1536.812572,9726.822748,2144.496354,11564.962480
1536.812875,10186.357681,2144.496354,12407.443191
1536.813179,-2221.085509,1608.372265,10952.249236
1536.813482,-6280.310751,1302.015643,9497.055282
1536.813786,229.767466,-459.534933,10569.303459
1536.814089,3599.690308,76.589155,10952.249236
1536.814393,-919.069866,1608.372265,9956.590215
1536.814696,-8041.861327,-153.178311,10262.946837
1536.814999,1455.193954,1302.015643,11258.605858
1536.815303,3063.566220,-3752.868619,13173.334746
1536.815606,-3216.744531,-2986.977064,12024.497413
1536.815910,-4671.938485,-459.534933,10262.946837
1536.816213,3599.690308,229.767466,10416.125148
1536.816520,6969.613150,1608.372265,10952.249236
1536.816823,1148.837332,1455.193954,10569.303459
1536.817126,-2986.977064,3369.922842,9497.055282
1536.817429,1531.783110,2144.496354,10109.768526
1536.817732,6816.434839,689.302399,11871.319102
1536.818036,689.302399,-919.069866,12330.854035
1536.818339,-9114.109504,-1531.783110,11105.427547
1536.818642,-4978.295107,-765.891555,10262.946837
1536.818945,2144.496354,-2374.263820,10799.070925
1536.819248,-153.178311,-2374.263820,11411.784169
1536.819552,-7658.915550,-306.356622,9956.590215
1536.819855,-4595.349330,1761.550576,9803.411904
1536.820159,3140.155375,-612.713244,11105.427547
1536.820462,2450.852976,-1531.783110,11871.319102
1536.820766,-3216.744531,-1531.783110,11411.784169
1536.821070,-1225.426488,689.302399,10109.768526
1536.821373,5054.884263,1302.015643,10569.303459
1536.821677,4212.403552,1148.837332,11258.605858
1536.821980,-3829.457775,1608.372265,10416.125148
1536.822283,-3829.457775,1761.550576,9956.590215
1536.822587,3752.868619,-306.356622,11564.962480
1536.822890,4748.527641,-2833.798753,12713.799813
1536.823193,-5897.364973,-2833.798753,12024.497413
1536.823497,-8041.861327,-1684.961421,10722.481770
1536.823808,4518.760174,-153.178311,10799.070925
1536.824111,7965.272172,-153.178311,11564.962480
1536.824413,-1914.728887,1455.193954,10262.946837
1536.824716,-4288.992708,2757.209598,9267.287815
1536.825018,536.124088,1148.837332,10569.303459
1536.825320,3293.333686,0.000000,11258.605858
1536.825623,-2221.085509,-2067.907198,10952.249236
1536.825925,-8501.396260,-1684.961421,10569.303459
1536.826240,-3523.101153,0.000000,10109.768526
1536.826542,5054.884263,995.659021,11258.605858
1536.826844,1684.961421,1455.193954,10952.249236
1536.827145,-3982.636086,1608.372265,9497.055282
1536.827447,689.302399,76.589155,10952.249236
1536.827749,7122.791461,-1072.248177,12330.854035
1536.828051,1455.193954,-765.891555,11718.140791
1536.828353,-5591.008351,-1378.604799,10952.249236
1536.828656,995.659021,842.480710,10262.946837
1536.828959,8424.807105,76.589155,11564.962480
1536.829263,5054.884263,3216.744531,11564.962480
1536.829567,-2986.977064,3369.922842,9114.109504
1536.829870,-2680.620442,1302.015643,10262.946837
1536.830174,2144.496354,-919.069866,11871.319102
1536.830477,-919.069866,-2221.085509,11258.605858
1536.830781,-9497.055282,-4748.527641,11258.605858
1536.831089,-6050.543284,-1684.961421,10799.070925
1536.831392,4901.705952,0.000000,11411.784169
1536.831695,5054.884263,2144.496354,11718.140791
1536.831998,-765.891555,4365.581863,9267.287815
1536.832300,995.659021,1302.015643,10722.481770
1536.832603,6356.899906,536.124088,12177.675724
1536.832906,5667.597507,1761.550576,10722.481770
1536.833209,-4442.171019,-2221.085509,11411.784169
1536.833513,-8195.039638,-1225.426488,10262.946837
1536.833816,2757.209598,-1531.783110,10722.481770
1536.834120,6127.132440,-1072.248177,12330.854035
1536.834423,-2221.085509,3676.279464,9114.109504
1536.834726,-6203.721595,76.589155,9956.590215
1536.835030,-765.891555,-919.069866,11564.962480
1536.835333,1991.318043,-1225.426488,10952.249236
1536.835637,-4135.814397,-4288.992708,11564.962480
1536.835940,-5744.186662,-3599.690308,11564.962480
1536.836244,3140.155375,689.302399,11105.427547
1536.836547,8271.628794,2297.674665,11411.784169
1536.836850,1838.139732,4978.295107,9803.411904
1536.837154,-2527.442131,2757.209598,9343.876971
1536.837457,3063.566220,842.480710,11411.784169
1536.837761,5973.954129,1838.139732,11105.427547
1536.838064,-2221.085509,-459.534933,11105.427547
1536.838368,-13632.869679,-3829.457775,11258.605858
1536.838671,-8960.931193,-2986.977064,10799.070925
1536.838975,5667.597507,-1531.783110,12024.497413
1536.839278,382.945777,842.480710,10722.481770
1536.839582,-5437.830040,2604.031287,9803.411904
1536.839885,0.000000,842.480710,11105.427547
1536.840189,5514.419196,1455.193954,11718.140791
1536.840492,842.480710,-1378.604799,11871.319102
1536.840804,-5591.008351,-1914.728887,10799.070925
1536.841106,382.945777,-612.713244,10799.070925
1536.841409,9573.644437,1608.372265,11564.962480
1536.841711,5820.775818,4518.760174,10569.303459
1536.842013,-2527.442131,3752.868619,9267.287815
1536.842316,-1914.728887,842.480710,10569.303459
1536.842618,3752.868619,-765.891555,11871.319102
1536.842920,1838.139732,-1225.426488,11564.962480
1536.843246,-9650.233593,-4288.992708,11411.784169
1536.843547,-10569.303459,-3140.155375,10722.481770
1536.843847,1531.783110,-2374.263820,11564.962480
1536.844147,5361.240885,536.124088,11258.605858
1536.844447,-2374.263820,3523.101153,8960.931193
1536.844748,-3369.922842,2450.852976,9497.055282
1536.845048,2604.031287,1302.015643,11411.784169
1536.845348,5208.062574,1838.139732,10799.070925
1536.845651,-2527.442131,-1914.728887,11105.427547
1536.845955,-4825.116796,-2221.085509,11258.605858
1536.846258,5208.062574,536.124088,11258.605858
1536.846562,8118.450483,1838.139732,11564.962480
1536.846866,229.767466,4059.225241,9650.233593
1536.847169,-2833.798753,1302.015643,9803.411904
1536.847473,3140.155375,-153.178311,11871.319102
1536.847776,6356.899906,76.589155,12024.497413
1536.848079,-1914.728887,-1838.139732,10799.070925
1536.848382,-8501.396260,-3752.868619,10952.249236
1536.848686,-919.069866,-2833.798753,11258.605858
1536.848990,6203.721595,-1225.426488,11871.319102
1536.849293,536.124088,2297.674665,9803.411904
1536.849597,-4671.938485,2757.209598,8807.752882
1536.849900,-612.713244,382.945777,10952.249236
1536.850204,2144.496354,76.589155,11411.784169
1536.850508,-1378.604799,-765.891555,10722.481770
1536.850811,-7352.558928,-4442.171019,11564.962480
1536.851115,-1761.550576,-919.069866,10952.249236
1536.851418,7812.093861,689.302399,11258.605858
1536.851722,3446.511997,3676.279464,10569.303459
1536.852025,-3369.922842,3369.922842,8807.752882
1536.852328,1148.837332,689.302399,10799.070925
1536.852632,8424.807105,382.945777,12177.675724
1536.852935,3293.333686,-153.178311,11105.427547
1536.853239,-7888.683016,-2374.263820,11105.427547
1536.853542,-7352.558928,-2986.977064,11258.605858
1536.853845,1148.837332,-2527.442131,12024.497413
1536.854149,2910.387909,1302.015643,11258.605858
1536.854452,-3140.155375,3676.279464,8807.752882
1536.854756,-5591.008351,1838.139732,10109.768526
1536.855059,76.589155,382.945777,11718.140791
1536.855367,2144.496354,-459.534933,11718.140791
1536.855670,-3140.155375,-2527.442131,11411.784169
1536.855973,-3982.636086,-2067.907198,10722.481770
1536.856276,4671.938485,382.945777,11411.784169
1536.856579,7275.969772,3063.566220,11718.140791
1536.856882,0.000000,4978.295107,9343.876971
1536.857185,-2680.620442,2604.031287,9650.233593
1536.857487,3752.868619,-459.534933,11718.140791
1536.857804,5054.884263,-765.891555,11718.140791
1536.858106,-3523.101153,-2527.442131,11564.962480
1536.858408,-10722.481770,-3982.636086,10722.481770
1536.858709,-5591.008351,-3829.457775,10952.249236
1536.859011,2757.209598,-2374.263820,11871.319102
1536.859312,842.480710,2604.031287,9803.411904
1536.859614,-3982.636086,3369.922842,8807.752882
1536.859915,-1531.783110,1608.372265,10416.125148
1536.860241,5361.240885,842.480710,11718.140791
1536.860542,3599.690308,-1838.139732,12330.854035
1536.860842,-2680.620442,-1378.604799,10799.070925
1536.861142,1148.837332,-153.178311,10569.303459
1536.861443,6510.078217,1455.193954,11718.140791
1536.861743,6356.899906,4212.403552,10952.249236
1536.862043,-612.713244,3676.279464,9497.055282
1536.862343,-1608.372265,1991.318043,9650.233593
1536.862647,5054.884263,0.000000,11718.140791
1536.862950,2910.387909,-2067.907198,12177.675724
1536.863254,-10875.660081,-3293.333686,10416.125148
1536.863557,-9650.233593,-3599.690308,10416.125148
1536.863861,3293.333686,-3293.333686,11871.319102
1536.864164,4365.581863,-306.356622,11564.962480
1536.864468,-4442.171019,2297.674665,9343.876971
1536.864771,-3369.922842,3063.566220,9114.109504
1536.865074,3446.511997,-153.178311,11411.784169
1536.865378,4901.705952,-919.069866,12560.621502
1536.865681,-2374.263820,-765.891555,10799.070925
1536.865985,-5131.473418,-765.891555,10109.768526
1536.866288,4748.527641,1148.837332,11258.605858
1536.866592,6816.434839,1838.139732,11564.962480
1536.866895,1684.961421,5667.597507,10109.768526
1536.867199,-2680.620442,3063.566220,9267.287815
1536.867503,4518.760174,229.767466,10799.070925
1536.867806,6663.256528,-1225.426488,12866.978124
1536.868110,-1761.550576,-1072.248177,10799.070925
1536.868413,-11718.140791,-2680.620442,10569.303459
1536.868717,-2067.907198,-2680.620442,11411.784169
1536.869020,5514.419196,-1531.783110,12330.854035
1536.869324,382.945777,1991.318043,9956.590215
1536.869627,-5284.651729,3369.922842,8654.574571
1536.869930,-1531.783110,382.945777,10569.303459
1536.870234,3293.333686,-612.713244,12177.675724
1536.870537,-1072.248177,-2067.907198,11411.784169
1536.870841,-6203.721595,-1914.728887,10722.481770
1536.871144,-1225.426488,-306.356622,10799.070925
1536.871448,6127.132440,1761.550576,11258.605858
1536.871751,3293.333686,3216.744531,10722.481770
1536.872055,-1761.550576,3752.868619,9267.287815
1536.872358,0.000000,382.945777,10799.070925
1536.872662,6203.721595,-459.534933,11718.140791
1536.872965,2604.031287,-1684.961421,11718.140791
1536.873269,-8501.396260,-3140.155375,11411.784169
1536.873572,-8348.217949,-1684.961421,10416.125148
1536.873876,1991.318043,-1838.139732,11564.962480
1536.874179,5208.062574,382.945777,11411.784169
1536.874483,-4442.171019,2757.209598,9267.287815
1536.874800,-5897.364973,2297.674665,9956.590215
1536.875101,2144.496354,995.659021,11411.784169
1536.875403,2910.387909,-459.534933,11871.319102
1536.875704,-5591.008351,-2527.442131,12560.621502
1536.876006,-2374.263820,-612.713244,11564.962480
1536.876308,5973.954129,2144.496354,11258.605858
1536.876609,5208.062574,2450.852976,11871.319102
1536.876911,0.000000,4365.581863,10109.768526
1536.877230,-1914.728887,2604.031287,9956.590215
1536.877531,3446.511997,1991.318043,11105.427547
1536.877832,3599.690308,-1072.248177,11718.140791
1536.878133,-3982.636086,-2067.907198,11718.140791
1536.878435,-11718.140791,-2833.798753,10262.946837
1536.878736,-4595.349330,-1838.139732,10722.481770
1536.879037,4365.581863,-1378.604799,11871.319102
1536.879338,1302.015643,1761.550576,10569.303459
1536.879642,-5131.473418,2297.674665,9343.876971
1536.879945,-2374.263820,995.659021,10416.125148
1536.880249,3752.868619,-612.713244,11718.140791
1536.880552,1684.961421,-3140.155375,12407.443191
1536.880856,-3523.101153,-2680.620442,11411.784169
1536.881159,1302.015643,689.302399,11105.427547
1536.881463,8118.450483,2144.496354,11411.784169
1536.881766,5973.954129,3216.744531,11105.427547
1536.882069,-765.891555,3752.868619,9956.590215
1536.882373,0.000000,2757.209598,10109.768526
1536.882676,5667.597507,-306.356622,11411.784169
1536.882980,2297.674665,-2527.442131,12024.497413
1536.883283,-9497.055282,-4595.349330,11871.319102
1536.883587,-8960.931193,-3293.333686,10799.070925
1536.883890,3599.690308,-2067.907198,10799.070925
1536.884194,4671.938485,-612.713244,11411.784169
1536.884504,-4135.814397,2757.209598,9650.233593
1536.884807,-3829.457775,2757.209598,9267.287815
1536.885109,2297.674665,-153.178311,10569.303459
1536.885412,2910.387909,-1684.961421,11564.962480
1536.885714,-3676.279464,-3752.868619,11718.140791
1536.886017,-3523.101153,-306.356622,10416.125148
1536.886320,5973.954129,2144.496354,10109.768526
1536.886622,8884.342038,2450.852976,11258.605858
1536.886925,1531.783110,4825.116796,10109.768526
1536.887229,-1914.728887,3369.922842,9343.876971
1536.887532,3752.868619,382.945777,11564.962480
1536.887836,6969.613150,-306.356622,12407.443191
1536.888139,-3369.922842,-2221.085509,11411.784169
1536.888443,-11258.605858,-3829.457775,11564.962480
1536.888746,-1225.426488,-1838.139732,11105.427547
1536.889050,6356.899906,-1378.604799,11871.319102
1536.889353,-612.713244,3063.566220,10416.125148
1536.889657,-4671.938485,3523.101153,8654.574571
1536.889960,-1914.728887,689.302399,11105.427547
1536.890264,2450.852976,382.945777,12024.497413
1536.890567,-1072.248177,-1914.728887,11258.605858
1536.890871,-6586.667373,-2374.263820,11411.784169
1536.891174,-306.356622,229.767466,10569.303459
1536.891478,6816.434839,1991.318043,11258.605858
1536.891795,3752.868619,3369.922842,11411.784169
1536.892096,-306.356622,4978.295107,9267.287815
1536.892398,1684.961421,1761.550576,10799.070925
1536.892699,6969.613150,-459.534933,12713.799813
1536.893001,3752.868619,382.945777,11411.784169
1536.893303,-9497.055282,-2680.620442,10799.070925
1536.893604,-8807.752882,-1914.728887,10262.946837
1536.893906,3293.333686,-2527.442131,11258.605858
1536.894224,4212.403552,-306.356622,11871.319102
1536.894526,-5284.651729,3752.868619,8348.217949
1536.894827,-5437.830040,382.945777,9650.233593
1536.895128,229.767466,-1531.783110,12713.799813
1536.895430,1991.318043,-1225.426488,11564.962480
1536.895731,-4442.171019,-3752.868619,12177.675724
1536.896032,-4442.171019,-1914.728887,11258.605858
1536.896334,5054.884263,1608.372265,10722.481770
1536.896643,7122.791461,3216.744531,11411.784169
1536.896945,229.767466,5667.597507,9343.876971
1536.897248,-1072.248177,3752.868619,9497.055282
1536.897551,5514.419196,1148.837332,11718.140791
1536.897853,6663.256528,1455.193954,11105.427547
1536.898156,-4825.116796,-2680.620442,11411.784169
1536.898459,-10952.249236,-3829.457775,11105.427547
1536.898761,-2986.977064,-3140.155375,10952.249236
1536.899065,4671.938485,-2067.907198,11871.319102
1536.899368,-153.178311,1455.193954,9650.233593
1536.899672,-6586.667373,536.124088,9114.109504
1536.899975,-4671.938485,-1072.248177,11105.427547
1536.900279,2144.496354,-1684.961421,11411.784169
1536.900582,-919.069866,-3446.511997,11871.319102
1536.900886,-4442.171019,-2833.798753,11105.427547
1536.901189,2604.031287,536.124088,10722.481770
1536.901495,7275.969772,2757.209598,11258.605858
1536.901798,5208.062574,5820.775818,9497.055282
1536.902101,-1378.604799,4212.403552,9497.055282
1536.902404,1684.961421,2910.387909,10952.249236
1536.902707,5973.954129,1761.550576,11105.427547
1536.903011,-765.891555,-1378.604799,11411.784169
1536.903314,-9497.055282,-3140.155375,10952.249236
1536.903617,-7352.558928,-2986.977064,10952.249236
1536.903920,2910.387909,-2067.907198,11718.140791
1536.904224,1991.318043,1302.015643,10799.070925
1536.904527,-5591.008351,1455.193954,9114.109504
1536.904831,-3829.457775,689.302399,10569.303459
1536.905134,229.767466,-1072.248177,11871.319102
1536.905438,1302.015643,-1531.783110,11718.140791
1536.905741,-3140.155375,-2680.620442,11871.319102
1536.906045,-2833.798753,-459.534933,10952.249236
1536.906350,7735.504705,2297.674665,11564.962480
1536.906653,8424.807105,5437.830040,11258.605858
1536.906957,382.945777,7199.380617,9114.109504
1536.907260,-612.713244,2757.209598,10262.946837
1536.907563,6356.899906,1455.193954,11718.140791
1536.907866,4518.760174,-459.534933,11718.140791
1536.908170,-7046.202306,-2986.977064,11105.427547
1536.908473,-9343.876971,-3829.457775,10799.070925
1536.908784,-1072.248177,-3599.690308,11411.784169
1536.909086,3293.333686,-1378.604799,11718.140791
1536.909389,-1072.248177,1991.318043,9497.055282
1536.909691,-5744.186662,1302.015643,9267.287815
1536.909993,-1608.372265,-612.713244,11564.962480
1536.910296,2297.674665,-1531.783110,11718.140791
1536.910598,-2067.907198,-2680.620442,11411.784169
1536.910901,-5744.186662,-3446.511997,10952.249236
1536.911219,3599.690308,842.480710,11105.427547
1536.911521,9573.644437,2757.209598,11105.427547
1536.911822,4365.581863,5973.954129,9803.411904
1536.912123,1148.837332,4365.581863,9497.055282
1536.912424,4901.705952,1991.318043,10952.249236
1536.912726,6663.256528,-153.178311,12024.497413
1536.913027,-612.713244,-1838.139732,10799.070925
1536.913328,-11258.605858,-4288.992708,10799.070925
1536.913638,-7658.915550,-4288.992708,11258.605858
1536.913941,1838.139732,-2680.620442,11258.605858
1536.914243,382.945777,536.124088,10799.070925
1536.914546,-6586.667373,2450.852976,8654.574571
1536.914848,-4978.295107,1148.837332,10109.768526
1536.915151,1455.193954,0.000000,11871.319102
1536.915454,382.945777,-1072.248177,11718.140791
1536.915756,-5744.186662,-2221.085509,11105.427547
1536.916059,-1914.728887,-1225.426488,10952.249236
1536.916363,8118.450483,1302.015643,11564.962480
1536.916666,8884.342038,4825.116796,11105.427547
1536.916970,1531.783110,6280.310751,9803.411904
1536.917273,1991.318043,3063.566220,10262.946837
1536.917577,6816.434839,1455.193954,12330.854035
1536.917880,4212.403552,-612.713244,11718.140791
1536.918184,-6433.489062,-3140.155375,11105.427547
1536.918487,-11718.140791,-4288.992708,11105.427547
1536.918791,-3369.922842,-4135.814397,11411.784169
1536.919094,2450.852976,-2221.085509,11564.962480
1536.919398,-3676.279464,1838.139732,9650.233593
1536.919701,-6586.667373,1761.550576,9343.876971
1536.920005,-765.891555,0.000000,11258.605858
1536.920309,2297.674665,-919.069866,11564.962480
1536.920612,-2986.977064,-2680.620442,11411.784169
1536.920915,-4978.295107,-1914.728887,10799.070925
1536.921219,3599.690308,1148.837332,10416.125148
1536.921522,8271.628794,2604.031287,11564.962480
1536.921826,5208.062574,5284.651729,10722.481770
1536.922129,689.302399,5973.954129,9114.109504
1536.922433,3599.690308,2604.031287,10722.481770
1536.922737,8884.342038,995.659021,12177.675724
1536.923040,1455.193954,-306.356622,11411.784169
1536.923346,-8041.861327,-2680.620442,10569.303459
1536.923650,-6739.845684,-4748.527641,11258.605858
1536.923953,1455.193954,-3982.636086,12560.621502
1536.924256,1531.783110,76.589155,10722.481770
1536.924559,-5591.008351,382.945777,9650.233593
1536.924862,-3676.279464,-612.713244,10722.481770
1536.925165,1991.318043,-459.534933,11871.319102
1536.925468,229.767466,-2833.798753,12407.443191
1536.925790,-5437.830040,-2221.085509,11258.605858
1536.926091,-3216.744531,-765.891555,10569.303459
1536.926392,4901.705952,689.302399,10952.249236
1536.926693,4748.527641,4365.581863,10722.481770
1536.926993,536.124088,6127.132440,9343.876971
1536.927294,689.302399,4518.760174,9650.233593
1536.927595,5361.240885,1148.837332,11564.962480
1536.927896,7735.504705,382.945777,12330.854035
1536.928203,-1531.783110,-1225.426488,11105.427547
1536.928506,-9497.055282,-2221.085509,10416.125148
1536.928809,-3140.155375,-4595.349330,11564.962480
1536.929112,4212.403552,-1225.426488,11718.140791
1536.929415,-1761.550576,1455.193954,9497.055282
1536.929718,-6280.310751,382.945777,9956.590215
1536.930021,-1914.728887,-153.178311,10952.249236
1536.930324,1991.318043,-1684.961421,12330.854035
1536.930634,-1608.372265,-2067.907198,12024.497413
1536.930936,-3523.101153,-612.713244,10569.303459
1536.931239,4212.403552,536.124088,11105.427547
1536.931541,7812.093861,2450.852976,11718.140791
1536.931844,3599.690308,5284.651729,9803.411904
1536.932146,-612.713244,4212.403552,9497.055282
1536.932449,3063.566220,3216.744531,10262.946837
1536.932751,6203.721595,689.302399,11564.962480
1536.933054,0.000000,-1684.961421,12024.497413
1536.933358,-8960.931193,-2833.798753,10952.249236
1536.933661,-7046.202306,-2221.085509,10569.303459
1536.933965,1148.837332,-4288.992708,12024.497413
1536.934269,-612.713244,-612.713244,10799.070925
1536.934572,-7658.915550,1838.139732,8807.752882
1536.934876,-6050.543284,382.945777,9803.411904
1536.935179,0.000000,-2067.907198,11411.784169
1536.935490,995.659021,-3293.333686,12713.799813
1536.935792,-3523.101153,-1838.139732,11411.784169
1536.936095,995.659021,995.659021,10262.946837
1536.936397,9420.466126,1148.837332,11564.962480
1536.936699,9880.001059,4059.225241,11564.962480
1536.937002,2450.852976,5284.651729,9803.411904
1536.937304,995.659021,5437.830040,9267.287815
1536.937607,5667.597507,689.302399,10799.070925
1536.937910,4365.581863,-1684.961421,12024.497413
1536.938214,-6280.310751,-2833.798753,11718.140791
1536.938517,-11411.784169,-3293.333686,10799.070925
1536.938821,-2680.620442,-3446.511997,11105.427547
1536.939124,4059.225241,-2527.442131,12024.497413
1536.939428,-3676.279464,229.767466,10262.946837
1536.939731,-8654.574571,689.302399,9114.109504
1536.940035,-3523.101153,-153.178311,10569.303459
1536.940341,1148.837332,-2527.442131,12024.497413
1536.940644,-2374.263820,-4135.814397,12177.675724
1536.940947,-5284.651729,-2067.907198,11258.605858
1536.941250,3752.868619,2144.496354,10416.125148
1536.941553,10033.179370,3216.744531,11258.605858
1536.941856,5208.062574,4825.116796,10952.249236
1536.942159,1302.015643,4978.295107,9267.287815
1536.942462,4748.527641,1838.139732,10952.249236
1536.942785,6816.434839,76.589155,12024.497413
1536.943086,-919.069866,-1225.426488,11258.605858
1536.943386,-10875.660081,-4442.171019,11411.784169
1536.943687,-4135.814397,-2833.798753,11258.605858
1536.943988,6127.132440,-2833.798753,11871.319102
1536.944289,2144.496354,-153.178311,11411.784169
1536.944590,-8807.752882,1761.550576,8960.931193
1536.944890,-4671.938485,995.659021,10109.768526
1536.945193,3293.333686,-1531.783110,11718.140791
1536.945497,-612.713244,-2833.798753,11718.140791
1536.945800,-8195.039638,-3446.511997,11105.427547
1536.946104,-2680.620442,-612.713244,9956.590215
1536.946408,7582.326394,1761.550576,10952.249236
1536.946711,7812.093861,4365.581863,11105.427547
1536.947015,536.124088,6586.667373,9114.109504
1536.947318,1684.961421,4212.403552,9267.287815
1536.947633,7735.504705,1302.015643,11871.319102
1536.947935,5208.062574,382.945777,11411.784169
1536.948237,-6203.721595,-1914.728887,10799.070925
1536.948539,-8501.396260,-2986.977064,10952.249236
1536.948841,2144.496354,-3446.511997,11564.962480
1536.949142,5054.884263,-2833.798753,12177.675724
1536.949444,-4595.349330,2144.496354,9114.109504
1536.949746,-7505.737239,1148.837332,8960.931193
1536.950049,536.124088,-1838.139732,11718.140791
1536.950353,2757.209598,-1914.728887,12024.497413
1536.950656,-4671.938485,-3446.511997,11411.784169
1536.950960,-6203.721595,-2833.798753,10722.481770
1536.951263,1838.139732,76.589155,10569.303459
1536.951567,7275.969772,2297.674665,11105.427547
1536.951871,3752.868619,3906.046930,10799.070925
1536.952174,995.659021,6586.667373,8960.931193
1536.952485,4365.581863,3369.922842,10416.125148
1536.952787,7965.272172,229.767466,13020.156435
1536.953090,3293.333686,1991.318043,10952.249236
1536.953392,-9114.109504,-2680.620442,10416.125148
1536.953695,-6280.310751,-1531.783110,10416.125148
1536.953997,3063.566220,-4288.992708,12024.497413
1536.954299,842.480710,76.589155,10799.070925
1536.954602,-9114.109504,842.480710,8654.574571
1536.954905,-4595.349330,-919.069866,10722.481770
1536.955209,3446.511997,-2374.263820,12560.621502
1536.955512,-1531.783110,-3293.333686,12024.497413
1536.955816,-6739.845684,-3140.155375,10799.070925
1536.956119,-2680.620442,-2374.263820,10722.481770
1536.956423,5667.597507,-153.178311,11564.962480
1536.956726,5361.240885,3523.101153,11105.427547
1536.957030,-919.069866,6280.310751,8348.217949
1536.957336,229.767466,3523.101153,9650.233593
1536.957639,6203.721595,842.480710,12177.675724
1536.957942,5667.597507,2297.674665,11871.319102
1536.958245,-919.069866,-1531.783110,11718.140791
1536.958548,-4978.295107,382.945777,10262.946837
1536.958851,-1761.550576,-2067.907198,10416.125148
1536.959154,5208.062574,-1914.728887,12330.854035
1536.959457,-3369.922842,1608.372265,8807.752882
1536.959780,-8041.861327,-919.069866,9114.109504
1536.960081,-306.356622,-3446.511997,12330.854035
1536.960381,3293.333686,-2986.977064,11871.319102
1536.960682,-3676.279464,-4595.349330,12177.675724
1536.960983,-4978.295107,-3982.636086,11564.962480
1536.961284,2910.387909,-919.069866,11258.605858
1536.961585,6127.132440,1761.550576,11718.140791
1536.961885,536.124088,5820.775818,9114.109504
1536.962198,-2833.798753,4212.403552,8654.574571
1536.962501,3293.333686,2144.496354,10799.070925
1536.962803,5514.419196,1302.015643,11105.427547
1536.963105,-1531.783110,-612.713244,10952.249236
1536.963407,-6203.721595,-2527.442131,11258.605858
1536.963709,-612.713244,-1225.426488,10799.070925
1536.964011,5054.884263,-1225.426488,11564.962480
1536.964313,382.945777,1838.139732,10109.768526
1536.964623,-7658.915550,1991.318043,8654.574571
1536.964925,-4978.295107,-765.891555,10109.768526
1536.965228,995.659021,-2986.977064,11871.319102
1536.965531,-2221.085509,-3829.457775,12024.497413
1536.965833,-7352.558928,-3752.868619,11258.605858
1536.966136,0.000000,-612.713244,11258.605858
1536.966438,9190.698660,2144.496354,12024.497413
1536.966741,6203.721595,5591.008351,10569.303459
1536.967044,-765.891555,6433.489062,8654.574571
1536.967348,2757.209598,3369.922842,10262.946837
1536.967651,8424.807105,995.659021,11871.319102
1536.967955,4365.581863,1148.837332,10799.070925
1536.968258,-5897.364973,-1838.139732,11258.605858
1536.968562,-4442.171019,-1684.961421,10952.249236
1536.968865,3599.690308,-1914.728887,11871.319102
1536.969169,3063.566220,-153.178311,11411.784169
1536.969480,-6203.721595,1761.550576,8807.752882
1536.969782,-7046.202306,-153.178311,9956.590215
1536.970085,-2067.907198,-1914.728887,11411.784169
1536.970387,-1072.248177,-3140.155375,11718.140791
1536.970690,-7658.915550,-4901.705952,11564.962480
1536.970992,-6050.543284,-3140.155375,10799.070925
1536.971294,5514.419196,76.589155,11564.962480
1536.971597,9343.876971,4212.403552,11411.784169
1536.971900,3140.155375,7505.737239,9343.876971
1536.972203,2297.674665,4825.116796,9343.876971
1536.972507,7812.093861,1838.139732,11564.962480
1536.972811,8271.628794,1302.015643,11718.140791
1536.973114,-1914.728887,-919.069866,10722.481770
1536.973418,-7658.915550,-2680.620442,10722.481770
1536.973721,-2067.907198,-3293.333686,11718.140791
1536.974025,3446.511997,-1531.783110,11564.962480
1536.974328,-765.891555,1761.550576,10109.768526
1536.974631,-8041.861327,536.124088,8960.931193
1536.974935,-4595.349330,-765.891555,10952.249236
1536.975238,-306.356622,-3293.333686,12024.497413
1536.975542,-4442.171019,-2833.798753,11258.605858
1536.975845,-9497.055282,-4135.814397,10569.303459
1536.976149,-1225.426488,-1684.961421,11258.605858
1536.976452,6663.256528,1991.318043,11411.784169
1536.976775,4671.938485,5820.775818,10416.125148
1536.977076,-765.891555,6433.489062,8807.752882
1536.977376,4212.403552,3063.566220,10799.070925
1536.977677,8731.163727,1302.015643,12407.443191
1536.977978,3140.155375,536.124088,11564.962480
1536.978279,-6203.721595,-612.713244,10416.125148
1536.978580,-5897.364973,-2986.977064,11258.605858
1536.978880,2604.031287,-2986.977064,12330.854035
1536.979183,2910.387909,229.767466,11411.784169
1536.979487,-4135.814397,1838.139732,8960.931193
1536.979790,-6050.543284,536.124088,9650.233593
1536.980094,-459.534933,-2067.907198,12330.854035
1536.980397,689.302399,-3140.155375,12024.497413
1536.980701,-7352.558928,-4135.814397,11105.427547
1536.981005,-7888.683016,-3293.333686,11105.427547
1536.981308,3599.690308,229.767466,11105.427547
1536.981618,5514.419196,3063.566220,10799.070925
1536.981920,-2374.263820,5973.954129,8807.752882
1536.982223,-153.178311,4518.760174,9267.287815
1536.982526,8118.450483,2297.674665,11718.140791
1536.982828,7429.148083,1148.837332,12560.621502
1536.983131,689.302399,536.124088,11718.140791
1536.983433,-5591.008351,382.945777,9956.590215
1536.983736,-153.178311,-153.178311,10416.125148
1536.984039,6663.256528,-2680.620442,13020.156435
1536.984342,2910.387909,2144.496354,10109.768526
1536.984646,-5744.186662,1761.550576,8654.574571
1536.984950,-4825.116796,-2067.907198,11258.605858
1536.985253,3446.511997,-3599.690308,12866.978124
1536.985557,-765.891555,-4901.705952,12713.799813
1536.985860,-7505.737239,-5361.240885,12024.497413
1536.986164,-1608.372265,-1838.139732,10416.125148
1536.986475,5361.240885,-459.534933,11718.140791
1536.986777,2297.674665,5131.473418,10262.946837
1536.987080,-3216.744531,5973.954129,8041.861327
1536.987382,3752.868619,4212.403552,9803.411904
1536.987684,6816.434839,76.589155,11564.962480
1536.987987,3446.511997,536.124088,11718.140791
1536.988289,-3216.744531,995.659021,10109.768526
1536.988592,-4135.814397,76.589155,9803.411904
1536.988895,3293.333686,-1838.139732,12024.497413
1536.989198,5054.884263,689.302399,11105.427547
1536.989502,-4135.814397,2450.852976,8501.396260
1536.989805,-7505.737239,-1838.139732,10262.946837
1536.990109,382.945777,-3293.333686,11871.319102
1536.990412,2297.674665,-5514.419196,13020.156435
1536.990716,-5437.830040,-3829.457775,11411.784169
1536.991019,-6203.721595,-2680.620442,10799.070925
1536.991322,4365.581863,-919.069866,12177.675724
1536.991626,6816.434839,3906.046930,11564.962480
1536.991930,382.945777,6433.489062,9267.287815
1536.992233,-765.891555,4365.581863,9267.287815
1536.992537,6356.899906,2604.031287,11564.962480
1536.992840,5973.954129,536.124088,11871.319102
1536.993144,-1608.372265,1455.193954,10952.249236
1536.993447,-8041.861327,-1531.783110,10416.125148
1536.993770,-1378.604799,-919.069866,11258.605858
1536.994070,3906.046930,-1531.783110,12330.854035
1536.994371,-459.534933,2757.209598,9650.233593
1536.994672,-9956.590215,229.767466,9497.055282
1536.994973,-4442.171019,-153.178311,10722.481770
1536.995274,1148.837332,-3293.333686,12024.497413
1536.995574,-4671.938485,-4135.814397,12024.497413
1536.995875,-10109.768526,-3140.155375,10416.125148
1536.996184,-306.356622,-1072.248177,10952.249236
1536.996486,7735.504705,2144.496354,11871.319102
1536.996789,4365.581863,4671.938485,10799.070925
1536.997092,382.945777,4825.116796,9497.055282
1536.997395,4365.581863,2910.387909,10722.481770
1536.997697,9190.698660,536.124088,12407.443191
1536.998000,3599.690308,382.945777,11871.319102
1536.998303,-5284.651729,0.000000,10416.125148
1536.998618,-4595.349330,-1072.248177,10722.481770
1536.998920,2604.031287,-1684.961421,12024.497413
1536.999222,3446.511997,-765.891555,11564.962480
1536.999524,-5591.008351,1608.372265,9267.287815
1536.999825,-7352.558928,229.767466,9497.055282
1537.000127,-765.891555,-2067.907198,11411.784169
1537.000429,-1608.372265,-5514.419196,12713.799813
1537.000731,-9343.876971,-5054.884263,11411.784169
1537.001034,-6893.023995,-3446.511997,10416.125148
1537.001338,4901.705952,-153.178311,11411.784169
1537.001641,7275.969772,1991.318043,11411.784169
1537.001945,1148.837332,5973.954129,10109.768526
1537.002248,-306.356622,5667.597507,8654.574571
1537.002552,7735.504705,2450.852976,10799.070925
1537.002855,9190.698660,-765.891555,12407.443191
1537.003159,-306.356622,382.945777,11105.427547
1537.003470,-6433.489062,-153.178311,9803.411904
1537.003772,0.000000,-1378.604799,11105.427547
1537.004074,6510.078217,-1684.961421,12024.497413
1537.004377,76.589155,1455.193954,10416.125148
1537.004679,-6280.310751,536.124088,9343.876971
1537.004981,-1378.604799,-306.356622,10416.125148
1537.005284,1684.961421,-4901.705952,12560.621502
1537.005586,-5591.008351,-4748.527641,12330.854035
1537.005889,-9114.109504,-2986.977064,10109.768526
1537.006193,689.302399,-1684.961421,10952.249236
1537.006496,7735.504705,995.659021,11718.140791
1537.006800,2757.209598,5820.775818,9803.411904
1537.007103,-1914.728887,5973.954129,8654.574571
1537.007407,4212.403552,4212.403552,9956.590215
1537.007710,9190.698660,842.480710,11718.140791
1537.008014,2910.387909,689.302399,11718.140791
1537.008317,-7505.737239,76.589155,9650.233593
1537.008620,-3982.636086,-1684.961421,10416.125148
1537.008924,5208.062574,-2374.263820,12330.854035
1537.009228,3140.155375,229.767466,11105.427547
1537.009531,-5284.651729,1608.372265,9497.055282
1537.009835,-4135.814397,-306.356622,10262.946837
1537.010138,1684.961421,-1531.783110,12024.497413
1537.010442,382.945777,-3599.690308,12713.799813
1537.010758,-7505.737239,-3140.155375,10799.070925
1537.011060,-5437.830040,-1684.961421,10416.125148
1537.011361,3599.690308,76.589155,11105.427547
1537.011663,4365.581863,3216.744531,10799.070925
1537.011965,76.589155,5437.830040,10109.768526
1537.012266,382.945777,4365.581863,9114.109504
1537.012568,6356.899906,1608.372265,11871.319102
1537.012870,6127.132440,382.945777,13020.156435
1537.013178,-2221.085509,2297.674665,10262.946837
1537.013481,-7352.558928,-1838.139732,10569.303459
1537.013784,382.945777,-1072.248177,11258.605858
1537.014086,4365.581863,-919.069866,11105.427547
1537.014389,-459.534933,842.480710,10722.481770
1537.014692,-5591.008351,2144.496354,9114.109504
1537.014994,-1608.372265,-612.713244,10799.070925
1537.015297,2297.674665,-3752.868619,13479.691368
1537.015612,-2527.442131,-3140.155375,11258.605858
1537.015914,-9267.287815,-3599.690308,10416.125148
1537.016216,-3523.101153,-2680.620442,11411.784169
1537.016518,4518.760174,382.945777,11105.427547
1537.016820,2144.496354,2144.496354,11411.784169
1537.017122,-1608.372265,4825.116796,9267.287815
1537.017424,2757.209598,2297.674665,9803.411904
1537.017726,7429.148083,2144.496354,12866.978124
1537.018029,229.767466,536.124088,11564.962480
1537.018332,-5744.186662,842.480710,10262.946837
1537.018635,-1531.783110,-459.534933,10799.070925
1537.018939,4671.938485,-919.069866,11564.962480
1537.019242,4365.581863,2450.852976,11105.427547
1537.019546,-1225.426488,2144.496354,9956.590215
1537.019849,-1914.728887,1761.550576,9343.876971
1537.020153,382.945777,-2374.263820,12407.443191
1537.020458,536.124088,-3446.511997,12177.675724
1537.020761,-8041.861327,-3982.636086,10569.303459
