#time,accel_x,accel_y,accel_z
445.396578,229.767466,382.945777,10952.249236
445.396881,76.589155,229.767466,10799.070925
445.397184,-306.356622,229.767466,10952.249236
445.397488,-153.178311,76.589155,10799.070925
445.397792,229.767466,229.767466,10799.070925
445.398095,-153.178311,76.589155,10952.249236
445.398399,-153.178311,0.000000,10722.481770
445.398702,76.589155,0.000000,10952.249236
445.399006,0.000000,0.000000,10799.070925
445.399309,-459.534933,76.589155,10722.481770
445.399612,-306.356622,-153.178311,10952.249236
445.399916,229.767466,76.589155,10722.481770
445.400219,-153.178311,229.767466,10722.481770
445.400523,-612.713244,-153.178311,10952.249236
445.400826,76.589155,76.589155,10799.070925
445.401130,229.767466,76.589155,10799.070925
445.401433,-153.178311,0.000000,10952.249236
445.401737,0.000000,0.000000,10722.481770
445.402041,536.124088,76.589155,10722.481770
445.402344,0.000000,229.767466,10722.481770
445.402648,0.000000,76.589155,10799.070925
445.402951,76.589155,229.767466,10799.070925
445.403254,229.767466,229.767466,10799.070925
445.403558,-153.178311,0.000000,10799.070925
445.403861,-306.356622,76.589155,11258.605858
445.404165,229.767466,76.589155,10722.481770
445.404468,-153.178311,0.000000,10952.249236
445.404771,-306.356622,76.589155,10952.249236
445.405075,-306.356622,0.000000,10799.070925
445.405378,76.589155,0.000000,10952.249236
445.405682,-765.891555,0.000000,11105.427547
445.405985,-306.356622,-153.178311,10952.249236
445.406288,229.767466,-153.178311,10952.249236
445.406592,-153.178311,76.589155,10799.070925
445.406895,-153.178311,0.000000,10952.249236
445.407199,76.589155,229.767466,10952.249236
445.407502,229.767466,76.589155,10722.481770
445.407806,-306.356622,0.000000,10799.070925
445.408109,-153.178311,229.767466,10799.070925
445.408413,382.945777,76.589155,10952.249236
445.408716,76.589155,-153.178311,10952.249236
445.409032,-153.178311,76.589155,10569.303459
445.409333,76.589155,0.000000,10952.249236
445.409635,382.945777,229.767466,10722.481770
445.409937,-153.178311,0.000000,10722.481770
445.410239,-306.356622,0.000000,10799.070925
445.410541,229.767466,0.000000,10952.249236
445.410843,76.589155,76.589155,10799.070925
445.411144,-306.356622,-306.356622,10952.249236
445.411470,-153.178311,0.000000,10952.249236
445.411770,-153.178311,0.000000,10722.481770
445.412071,-306.356622,76.589155,10952.249236
445.412371,-153.178311,0.000000,10799.070925
445.412671,0.000000,229.767466,10952.249236
445.412972,0.000000,76.589155,10799.070925
445.413272,-153.178311,0.000000,10799.070925
445.413572,0.000000,76.589155,11105.427547
445.413881,76.589155,0.000000,11105.427547
445.414184,-153.178311,229.767466,10799.070925
445.414487,-153.178311,0.000000,10799.070925
445.414789,229.767466,76.589155,10952.249236
445.415092,0.000000,76.589155,11105.427547
445.415394,0.000000,76.589155,10952.249236
445.415697,0.000000,76.589155,10799.070925
445.416000,229.767466,0.000000,11105.427547
445.416303,-306.356622,0.000000,11105.427547
445.416606,-306.356622,76.589155,10569.303459
445.416910,0.000000,229.767466,10799.070925
445.417213,0.000000,76.589155,10952.249236
445.417517,-153.178311,76.589155,10722.481770
445.417820,-153.178311,76.589155,10799.070925
445.418124,0.000000,0.000000,10722.481770
445.418427,0.000000,0.000000,10799.070925
445.418731,-306.356622,-153.178311,10799.070925
445.419035,0.000000,76.589155,10799.070925
445.419338,0.000000,76.589155,10799.070925
445.419642,-153.178311,76.589155,10722.481770
445.419945,-153.178311,76.589155,10722.481770
445.420248,229.767466,229.767466,10799.070925
445.420552,0.000000,0.000000,10799.070925
445.420855,0.000000,0.000000,10722.481770
445.421158,76.589155,0.000000,10799.070925
445.421462,229.767466,76.589155,10952.249236
445.421765,0.000000,229.767466,10952.249236
445.422069,0.000000,229.767466,10799.070925
445.422372,76.589155,229.767466,10952.249236
445.422676,76.589155,76.589155,10952.249236
445.422979,-153.178311,0.000000,10799.070925
445.423283,76.589155,76.589155,11105.427547
445.423592,0.000000,0.000000,10952.249236
445.423895,-612.713244,76.589155,10799.070925
445.424197,-306.356622,229.767466,10952.249236
445.424500,-153.178311,229.767466,10799.070925
445.424803,-153.178311,229.767466,10722.481770
445.425105,-153.178311,0.000000,10952.249236
445.425408,0.000000,-306.356622,10952.249236
445.425711,0.000000,-153.178311,10799.070925
445.426016,-459.534933,0.000000,10799.070925
445.426319,-306.356622,-153.178311,10952.249236
445.426623,0.000000,229.767466,10722.481770
445.426926,0.000000,229.767466,10799.070925
445.427229,0.000000,382.945777,10952.249236
445.427532,382.945777,229.767466,10569.303459
445.427835,76.589155,0.000000,11105.427547
445.428138,0.000000,0.000000,10952.249236
445.428464,76.589155,0.000000,10952.249236
445.428765,0.000000,76.589155,10799.070925
445.429065,-306.356622,0.000000,10799.070925
445.429365,-153.178311,0.000000,10799.070925
445.429665,0.000000,76.589155,10952.249236
445.429965,229.767466,0.000000,10722.481770
445.430266,-306.356622,-306.356622,10952.249236
445.430566,0.000000,76.589155,11105.427547
445.430875,76.589155,0.000000,10952.249236
445.431178,-153.178311,76.589155,10952.249236
445.431480,0.000000,0.000000,10799.070925
445.431783,-153.178311,0.000000,11105.427547
445.432086,0.000000,229.767466,10799.070925
445.432388,0.000000,-306.356622,10952.249236
445.432691,76.589155,0.000000,10722.481770
445.432994,76.589155,0.000000,10952.249236
445.433297,76.589155,229.767466,10799.070925
445.433600,0.000000,76.589155,10722.481770
445.433903,0.000000,76.589155,10799.070925
445.434207,0.000000,382.945777,10569.303459
445.434510,-306.356622,76.589155,10799.070925
445.434814,-306.356622,76.589155,10952.249236
445.435117,229.767466,0.000000,11105.427547
445.435421,-306.356622,0.000000,11105.427547
445.435724,-459.534933,0.000000,10799.070925
445.436028,-153.178311,-153.178311,10952.249236
445.436331,0.000000,0.000000,10722.481770
445.436635,-306.356622,229.767466,10722.481770
445.436938,-306.356622,-153.178311,11105.427547
445.437242,-153.178311,0.000000,10952.249236
445.437546,76.589155,0.000000,11105.427547
445.437849,-306.356622,-153.178311,11105.427547
445.438152,-153.178311,0.000000,10799.070925
445.438456,76.589155,0.000000,10952.249236
445.438759,0.000000,0.000000,10722.481770
445.439063,0.000000,0.000000,10952.249236
445.439366,229.767466,76.589155,10799.070925
445.439670,76.589155,0.000000,10569.303459
445.439973,0.000000,229.767466,10722.481770
445.440277,0.000000,0.000000,10952.249236
445.440583,229.767466,76.589155,10799.070925
445.440886,0.000000,76.589155,10799.070925
445.441189,-153.178311,-153.178311,10952.249236
445.441492,-153.178311,-153.178311,10799.070925
445.441795,76.589155,0.000000,10722.481770
445.442098,-459.534933,0.000000,10799.070925
445.442401,-459.534933,0.000000,10952.249236
445.442705,76.589155,229.767466,10799.070925
445.443021,0.000000,76.589155,10799.070925
445.443323,-306.356622,0.000000,10799.070925
445.443624,0.000000,76.589155,10952.249236
445.443926,0.000000,0.000000,11258.605858
445.444228,-153.178311,0.000000,10799.070925
445.444529,0.000000,76.589155,10799.070925
445.444831,0.000000,382.945777,10799.070925
445.445132,0.000000,0.000000,10952.249236
445.445440,0.000000,0.000000,11105.427547
445.445743,76.589155,536.124088,10952.249236
445.446045,76.589155,-306.356622,10952.249236
445.446348,-153.178311,0.000000,11258.605858
445.446651,0.000000,0.000000,10799.070925
445.446954,229.767466,76.589155,10952.249236
445.447257,-153.178311,0.000000,10952.249236
445.447560,-153.178311,76.589155,10799.070925
445.447869,0.000000,0.000000,10952.249236
445.448172,-306.356622,76.589155,10799.070925
445.448474,-153.178311,76.589155,10799.070925
445.448777,-153.178311,0.000000,10952.249236
445.449080,0.000000,76.589155,10799.070925
445.449382,-459.534933,-153.178311,10722.481770
445.449685,-306.356622,229.767466,10722.481770
445.449988,0.000000,0.000000,10569.303459
445.450289,0.000000,0.000000,10722.481770
445.450593,-306.356622,76.589155,10799.070925
445.450897,0.000000,229.767466,10799.070925
445.451201,76.589155,76.589155,10952.249236
445.451504,-153.178311,76.589155,10722.481770
445.451808,0.000000,0.000000,10952.249236
445.452112,76.589155,229.767466,10952.249236
445.452416,76.589155,76.589155,10799.070925
445.452718,-153.178311,0.000000,11105.427547
445.453022,0.000000,0.000000,10799.070925
445.453326,76.589155,229.767466,10952.249236
445.453629,-153.178311,76.589155,10952.249236
445.453933,-306.356622,76.589155,10799.070925
445.454236,76.589155,76.589155,10799.070925
445.454540,0.000000,76.589155,10799.070925
445.454843,-306.356622,76.589155,10799.070925
445.455146,-153.178311,0.000000,10952.249236
445.455450,229.767466,0.000000,10952.249236
445.455753,-153.178311,0.000000,10952.249236
445.456057,-612.713244,-153.178311,10952.249236
445.456361,76.589155,76.589155,10799.070925
445.456664,76.589155,-153.178311,10799.070925
445.456968,-306.356622,76.589155,10952.249236
445.457271,-153.178311,229.767466,10799.070925
445.457577,229.767466,229.767466,10722.481770
445.457880,76.589155,76.589155,10799.070925
445.458183,-153.178311,76.589155,10799.070925
445.458486,76.589155,0.000000,10799.070925
445.458789,76.589155,-153.178311,10799.070925
445.459093,-153.178311,0.000000,10722.481770
445.459396,-459.534933,0.000000,10952.249236
445.459699,76.589155,229.767466,10722.481770
445.460016,-153.178311,76.589155,10569.303459
445.460318,0.000000,76.589155,10799.070925
445.460619,0.000000,76.589155,10799.070925
445.460921,76.589155,0.000000,10799.070925
445.461222,-306.356622,-153.178311,10799.070925
445.461524,-612.713244,76.589155,10952.249236
445.461825,0.000000,0.000000,10952.249236
445.462127,76.589155,76.589155,10722.481770
445.462434,-612.713244,76.589155,10952.249236
445.462737,76.589155,76.589155,10952.249236
445.463040,229.767466,76.589155,10799.070925
445.463343,0.000000,76.589155,10799.070925
445.463646,-153.178311,-306.356622,10799.070925
445.463949,-153.178311,76.589155,11105.427547
445.464252,229.767466,76.589155,10799.070925
445.464554,-153.178311,76.589155,10952.249236
445.464864,0.000000,0.000000,10952.249236
445.465167,0.000000,0.000000,10952.249236
445.465469,76.589155,76.589155,10952.249236
445.465772,-153.178311,0.000000,11105.427547
445.466075,-153.178311,229.767466,11105.427547
445.466377,-306.356622,229.767466,10799.070925
445.466680,-153.178311,76.589155,10799.070925
445.466982,-153.178311,76.589155,10799.070925
445.467285,-153.178311,76.589155,10722.481770
445.467589,76.589155,-153.178311,10952.249236
445.467892,76.589155,76.589155,10952.249236
445.468196,-306.356622,-153.178311,10799.070925
445.468499,0.000000,0.000000,10952.249236
445.468803,-153.178311,76.589155,10722.481770
445.469107,-306.356622,-153.178311,10722.481770
445.469410,-306.356622,76.589155,10952.249236
445.469716,0.000000,76.589155,10952.249236
445.470019,76.589155,-306.356622,10952.249236
445.470322,-153.178311,0.000000,10722.481770
445.470625,76.589155,-153.178311,10952.249236
445.470928,76.589155,0.000000,10952.249236
445.471232,76.589155,229.767466,10722.481770
445.471535,-153.178311,229.767466,10952.249236
445.471838,0.000000,382.945777,10799.070925
445.472142,76.589155,229.767466,10799.070925
445.472445,0.000000,0.000000,11258.605858
445.472748,0.000000,0.000000,10799.070925
445.473052,76.589155,-306.356622,11105.427547
445.473355,-153.178311,76.589155,10952.249236
445.473659,-306.356622,0.000000,10799.070925
445.473962,0.000000,76.589155,10952.249236
445.474266,-153.178311,229.767466,10722.481770
445.474572,-153.178311,0.000000,10799.070925
445.474875,-306.356622,0.000000,10799.070925
445.475178,0.000000,0.000000,10799.070925
445.475481,0.000000,-306.356622,11105.427547
445.475784,-306.356622,0.000000,10799.070925
445.476087,0.000000,76.589155,10722.481770
445.476390,-153.178311,0.000000,10722.481770
445.476694,0.000000,382.945777,10799.070925
445.477016,0.000000,229.767466,10799.070925
445.477317,76.589155,229.767466,10952.249236
445.477618,0.000000,76.589155,10722.481770
445.477918,-153.178311,-153.178311,10952.249236
445.478219,0.000000,0.000000,10952.249236
445.478520,-153.178311,76.589155,10722.481770
445.478821,0.000000,0.000000,10952.249236
445.479121,76.589155,229.767466,10799.070925
445.479440,229.767466,0.000000,10952.249236
445.479741,-153.178311,0.000000,10952.249236
445.480042,-153.178311,-153.178311,10952.249236
445.480344,76.589155,-153.178311,10722.481770
445.480645,-153.178311,76.589155,10799.070925
445.480946,-306.356622,76.589155,10952.249236
445.481247,76.589155,76.589155,10799.070925
445.481548,229.767466,76.589155,10952.249236
445.481853,-153.178311,-153.178311,10952.249236
445.482156,-306.356622,76.589155,10799.070925
445.482459,-153.178311,0.000000,10799.070925
445.482763,0.000000,0.000000,10952.249236
445.483066,-306.356622,76.589155,10952.249236
445.483370,0.000000,382.945777,10722.481770
445.483673,76.589155,382.945777,10952.249236
445.483977,-153.178311,229.767466,10952.249236
445.484280,-153.178311,76.589155,10952.249236
445.484583,229.767466,229.767466,10722.481770
445.484887,76.589155,229.767466,10799.070925
445.485190,-153.178311,-306.356622,10799.070925
445.485494,0.000000,0.000000,10799.070925
445.485797,229.767466,76.589155,10722.481770
445.486101,-306.356622,0.000000,10799.070925
445.486404,-153.178311,0.000000,10952.249236
445.486714,0.000000,76.589155,10722.481770
445.487017,76.589155,76.589155,10799.070925
445.487320,-306.356622,229.767466,10952.249236
445.487622,-153.178311,0.000000,10799.070925
445.487925,76.589155,-153.178311,10952.249236
445.488227,-306.356622,0.000000,10952.249236
445.488530,0.000000,0.000000,10952.249236
445.488832,76.589155,0.000000,10952.249236
445.489135,76.589155,0.000000,11105.427547
445.489439,-153.178311,229.767466,10952.249236
445.489742,-153.178311,382.945777,10952.249236
445.490046,382.945777,76.589155,10799.070925
445.490349,76.589155,76.589155,10952.249236
445.490653,-459.534933,76.589155,10799.070925
445.490957,76.589155,76.589155,10952.249236
445.491260,229.767466,0.000000,10722.481770
445.491563,0.000000,0.000000,10799.070925
445.491867,-153.178311,-153.178311,10952.249236
445.492170,229.767466,76.589155,10952.249236
445.492474,76.589155,76.589155,10952.249236
445.492777,0.000000,-153.178311,10952.249236
445.493081,0.000000,76.589155,10799.070925
445.493384,76.589155,0.000000,10799.070925
445.493688,-153.178311,-153.178311,10722.481770
445.494010,-459.534933,0.000000,10799.070925
445.494311,0.000000,229.767466,10952.249236
445.494612,-153.178311,0.000000,11105.427547
445.494913,-459.534933,0.000000,10799.070925
445.495213,0.000000,76.589155,10952.249236
445.495514,76.589155,0.000000,10952.249236
445.495815,-153.178311,76.589155,10799.070925
445.496116,-306.356622,0.000000,10952.249236
445.496434,76.589155,229.767466,10952.249236
445.496735,76.589155,229.767466,10952.249236
445.497037,-306.356622,0.000000,10799.070925
445.497338,0.000000,76.589155,11105.427547
445.497639,229.767466,76.589155,10799.070925
445.497940,0.000000,76.589155,10799.070925
445.498242,-153.178311,76.589155,10799.070925
445.498543,0.000000,0.000000,10952.249236
445.498857,76.589155,0.000000,10799.070925
445.499159,-459.534933,-153.178311,10952.249236
445.499461,0.000000,0.000000,11105.427547
445.499763,76.589155,0.000000,10799.070925
445.500065,0.000000,0.000000,10799.070925
445.500367,-306.356622,0.000000,10799.070925
445.500669,-153.178311,76.589155,10799.070925
445.500971,0.000000,0.000000,10952.249236
445.501274,-153.178311,229.767466,10952.249236
445.501578,-153.178311,229.767466,10722.481770
445.501881,-153.178311,0.000000,10952.249236
445.502185,0.000000,76.589155,10799.070925
445.502488,76.589155,0.000000,10722.481770
445.502792,0.000000,229.767466,10799.070925
445.503095,0.000000,382.945777,10799.070925
445.503399,0.000000,0.000000,10799.070925
445.503710,76.589155,229.767466,10722.481770
445.504012,0.000000,229.767466,10799.070925
445.504315,0.000000,0.000000,11105.427547
445.504617,-153.178311,0.000000,10799.070925
445.504919,76.589155,-153.178311,10952.249236
445.505222,-153.178311,0.000000,10952.249236
445.505524,-153.178311,0.000000,10952.249236
445.505827,-153.178311,-153.178311,10952.249236
445.506130,0.000000,76.589155,11105.427547
445.506434,-153.178311,76.589155,10799.070925
445.506737,-153.178311,76.589155,10952.249236
445.507041,-153.178311,229.767466,10952.249236
445.507344,76.589155,0.000000,10952.249236
445.507647,-153.178311,0.000000,10799.070925
445.507951,0.000000,229.767466,10952.249236
445.508254,76.589155,229.767466,10799.070925
445.508557,0.000000,382.945777,10722.481770
445.508861,-153.178311,0.000000,10799.070925
445.509164,-153.178311,0.000000,10799.070925
445.509468,229.767466,0.000000,10799.070925
445.509771,-153.178311,-459.534933,11105.427547
445.510075,-153.178311,76.589155,10952.249236
445.510379,229.767466,0.000000,10799.070925
445.510682,0.000000,382.945777,10722.481770
445.511005,-153.178311,76.589155,10722.481770
445.511305,-153.178311,76.589155,10952.249236
445.511606,76.589155,382.945777,10799.070925
445.511907,-153.178311,76.589155,10569.303459
445.512208,-153.178311,-153.178311,10799.070925
445.512508,-153.178311,-153.178311,10799.070925
445.512809,76.589155,0.000000,10952.249236
445.513110,-306.356622,0.000000,10722.481770
445.513423,-306.356622,76.589155,10799.070925
445.513725,0.000000,536.124088,10952.249236
445.514027,-153.178311,76.589155,10799.070925
445.514329,-153.178311,0.000000,10952.249236
445.514631,0.000000,0.000000,11105.427547
445.514934,76.589155,0.000000,10952.249236
445.515236,-153.178311,76.589155,11105.427547
445.515538,-306.356622,0.000000,10952.249236
445.515853,0.000000,0.000000,11105.427547
445.516155,76.589155,76.589155,10799.070925
445.516457,-153.178311,229.767466,10799.070925
445.516758,0.000000,76.589155,10799.070925
445.517060,229.767466,76.589155,10952.249236
445.517362,0.000000,-153.178311,10799.070925
445.517664,-153.178311,-153.178311,10799.070925
445.517965,-153.178311,0.000000,10799.070925
445.518269,-153.178311,76.589155,10952.249236
445.518572,-306.356622,229.767466,10799.070925
445.518876,-306.356622,76.589155,10799.070925
445.519179,229.767466,76.589155,10799.070925
445.519483,-153.178311,-153.178311,10799.070925
445.519786,-153.178311,-153.178311,10722.481770
445.520090,0.000000,-153.178311,10952.249236
445.520393,0.000000,229.767466,10799.070925
445.520704,-153.178311,0.000000,10722.481770
445.521007,-153.178311,229.767466,10722.481770
445.521309,229.767466,76.589155,10799.070925
445.521612,229.767466,76.589155,10952.249236
445.521914,-153.178311,76.589155,10952.249236
445.522216,0.000000,0.000000,10799.070925
445.522519,229.767466,-153.178311,10799.070925
445.522821,-153.178311,0.000000,10952.249236
445.523124,-306.356622,76.589155,10799.070925
445.523428,76.589155,76.589155,10952.249236
445.523731,0.000000,76.589155,10799.070925
445.524035,-153.178311,76.589155,10952.249236
445.524338,76.589155,0.000000,10952.249236
445.524642,229.767466,-153.178311,11105.427547
445.524945,-459.534933,-153.178311,11105.427547
445.525249,-306.356622,229.767466,10952.249236
445.525555,-153.178311,229.767466,10799.070925
445.525858,-153.178311,229.767466,10799.070925
445.526161,-153.178311,0.000000,10722.481770
445.526464,0.000000,76.589155,10799.070925
445.526767,229.767466,0.000000,10952.249236
445.527070,0.000000,0.000000,10952.249236
445.527374,-153.178311,0.000000,10952.249236
445.527677,76.589155,0.000000,10952.249236
445.527988,-153.178311,76.589155,10722.481770
445.528290,-306.356622,229.767466,10799.070925
445.528592,0.000000,382.945777,10722.481770
445.528895,76.589155,229.767466,10799.070925
445.529197,-153.178311,0.000000,11105.427547
445.529500,-153.178311,-153.178311,10799.070925
445.529802,382.945777,0.000000,10952.249236
445.530104,-306.356622,-153.178311,11105.427547
445.530418,-459.534933,0.000000,10799.070925
445.530720,0.000000,76.589155,10799.070925
445.531022,-153.178311,0.000000,10799.070925
445.531324,-459.534933,76.589155,10952.249236
445.531626,76.589155,-153.178311,10952.249236
445.531928,382.945777,0.000000,11258.605858
445.532230,-153.178311,0.000000,10799.070925
445.532532,-153.178311,0.000000,11105.427547
445.532847,0.000000,229.767466,10952.249236
445.533149,-153.178311,229.767466,10799.070925
445.533451,-306.356622,229.767466,10722.481770
445.533752,0.000000,76.589155,10722.481770
445.534054,229.767466,76.589155,10952.249236
445.534356,76.589155,-153.178311,10799.070925
445.534658,-306.356622,-153.178311,10799.070925
445.534960,76.589155,0.000000,10952.249236
445.535262,0.000000,76.589155,10799.070925
445.535566,-153.178311,76.589155,10569.303459
445.535870,0.000000,0.000000,10569.303459
445.536173,0.000000,229.767466,10722.481770
445.536477,-153.178311,0.000000,10722.481770
445.536780,0.000000,-306.356622,10799.070925
445.537084,0.000000,-153.178311,10799.070925
445.537387,-153.178311,0.000000,10952.249236
445.537692,-612.713244,0.000000,10799.070925
445.537995,-306.356622,382.945777,10416.125148
445.538299,0.000000,0.000000,10799.070925
445.538602,-306.356622,382.945777,10799.070925
445.538905,0.000000,-306.356622,10799.070925
445.539208,0.000000,0.000000,11105.427547
445.539512,76.589155,0.000000,10799.070925
445.539815,-153.178311,-153.178311,10952.249236
445.540118,-153.178311,0.000000,10952.249236
445.540421,0.000000,76.589155,11105.427547
445.540725,76.589155,0.000000,11105.427547
445.541028,76.589155,229.767466,10799.070925
445.541332,229.767466,229.767466,10799.070925
445.541636,76.589155,0.000000,11105.427547
445.541939,0.000000,76.589155,11258.605858
445.542243,0.000000,-153.178311,10952.249236
445.542549,76.589155,229.767466,10799.070925
445.542852,-306.356622,-153.178311,10799.070925
445.543155,-306.356622,0.000000,10799.070925
445.543458,76.589155,229.767466,10799.070925
445.543761,0.000000,229.767466,10952.249236
445.544064,-306.356622,-153.178311,10952.249236
445.544367,-153.178311,0.000000,10722.481770
445.544670,76.589155,0.000000,10799.070925
445.544993,-153.178311,-153.178311,10952.249236
445.545293,-306.356622,76.589155,10722.481770
445.545594,76.589155,0.000000,10952.249236
445.545895,0.000000,229.767466,10722.481770
445.546196,0.000000,0.000000,10799.070925
445.546497,0.000000,-153.178311,10952.249236
445.546797,229.767466,76.589155,10799.070925
445.547098,76.589155,229.767466,11105.427547
445.547401,-153.178311,0.000000,10722.481770
445.547705,0.000000,76.589155,10722.481770
445.548008,76.589155,76.589155,10799.070925
445.548312,-306.356622,0.000000,10799.070925
445.548615,-306.356622,-153.178311,10952.249236
445.548919,76.589155,0.000000,10722.481770
445.549222,76.589155,0.000000,11105.427547
445.549526,-153.178311,229.767466,10952.249236
445.549841,0.000000,0.000000,10799.070925
445.550143,0.000000,229.767466,10952.249236
445.550444,-153.178311,-153.178311,10722.481770
445.550746,-459.534933,0.000000,10952.249236
445.551048,0.000000,0.000000,10799.070925
445.551350,-153.178311,-306.356622,10799.070925
445.551652,-153.178311,76.589155,10952.249236
445.551953,76.589155,0.000000,11105.427547
445.552256,229.767466,229.767466,10952.249236
445.552560,0.000000,76.589155,10799.070925
445.552864,-153.178311,229.767466,10799.070925
445.553167,76.589155,229.767466,10722.481770
445.553471,76.589155,229.767466,10952.249236
445.553775,-459.534933,0.000000,10799.070925
445.554078,-153.178311,0.000000,10952.249236
445.554382,382.945777,0.000000,10952.249236
445.554687,0.000000,76.589155,10799.070925
445.554990,-306.356622,0.000000,10952.249236
445.555293,0.000000,229.767466,10799.070925
445.555596,0.000000,-153.178311,10952.249236
445.555899,-612.713244,-153.178311,10799.070925
445.556203,-153.178311,-153.178311,10799.070925
445.556506,76.589155,-306.356622,10952.249236
445.556809,0.000000,76.589155,10722.481770
445.557112,-306.356622,76.589155,10952.249236
445.557415,76.589155,76.589155,10952.249236
445.557719,382.945777,382.945777,10799.070925
445.558022,-153.178311,76.589155,10799.070925
445.558326,-153.178311,76.589155,10799.070925
445.558629,382.945777,0.000000,10952.249236
445.558933,76.589155,-306.356622,10952.249236
445.559236,-153.178311,76.589155,11105.427547
445.559539,76.589155,76.589155,10722.481770
445.559843,229.767466,229.767466,10799.070925
445.560146,-153.178311,76.589155,10722.481770
445.560450,-153.178311,229.767466,10952.249236
445.560753,76.589155,76.589155,10799.070925
445.561057,-153.178311,-153.178311,10799.070925
445.561361,-306.356622,-459.534933,10952.249236
445.561664,-153.178311,-153.178311,10952.249236
445.561967,0.000000,76.589155,10799.070925
445.562271,-306.356622,229.767466,10799.070925
445.562574,-306.356622,229.767466,10722.481770
445.562878,76.589155,382.945777,10722.481770
445.563181,76.589155,229.767466,10799.070925
445.563485,-306.356622,0.000000,10799.070925
445.563788,0.000000,-306.356622,10952.249236
445.564092,76.589155,0.000000,10799.070925
445.564395,0.000000,-153.178311,10799.070925
445.564698,-153.178311,76.589155,10952.249236
445.565002,0.000000,76.589155,10799.070925
445.565306,76.589155,229.767466,10952.249236
445.565609,0.000000,76.589155,10799.070925
445.565913,76.589155,-153.178311,10952.249236
445.566216,229.767466,-153.178311,11258.605858
445.566520,0.000000,76.589155,10799.070925
445.566836,-153.178311,0.000000,10799.070925
445.567138,-153.178311,76.589155,10799.070925
445.567439,0.000000,76.589155,10952.249236
445.567741,-153.178311,382.945777,10799.070925
445.568043,-153.178311,76.589155,10799.070925
445.568344,76.589155,0.000000,11105.427547
445.568646,0.000000,76.589155,10799.070925
445.568948,-306.356622,-153.178311,10952.249236
445.569251,-306.356622,0.000000,10952.249236
445.569554,-153.178311,229.767466,10722.481770
445.569858,-153.178311,229.767466,10799.070925
445.570161,0.000000,76.589155,10799.070925
445.570465,0.000000,76.589155,10722.481770
445.570768,0.000000,-153.178311,10952.249236
445.571072,0.000000,0.000000,10952.249236
445.571375,-306.356622,0.000000,10952.249236
445.571691,0.000000,-153.178311,10799.070925
445.571992,0.000000,76.589155,10799.070925
445.572294,0.000000,229.767466,10799.070925
445.572596,76.589155,382.945777,10799.070925
445.572898,76.589155,0.000000,10722.481770
445.573199,-153.178311,0.000000,10799.070925
445.573501,0.000000,0.000000,10722.481770
445.573803,0.000000,-306.356622,10952.249236
445.574107,-612.713244,-153.178311,10799.070925
445.574410,-306.356622,0.000000,10799.070925
445.574714,76.589155,229.767466,10799.070925
445.575017,0.000000,382.945777,10722.481770
445.575321,-306.356622,-153.178311,10799.070925
445.575624,76.589155,-153.178311,10952.249236
445.575928,76.589155,76.589155,10952.249236
445.576231,-153.178311,-153.178311,10952.249236
445.576534,-153.178311,-306.356622,10952.249236
445.576837,0.000000,229.767466,10722.481770
445.577141,76.589155,229.767466,10722.481770
445.577444,-153.178311,229.767466,10799.070925
445.577748,0.000000,229.767466,10952.249236
445.578052,229.767466,229.767466,10722.481770
445.578355,-153.178311,76.589155,10799.070925
445.578659,-153.178311,0.000000,10799.070925
445.578962,229.767466,-153.178311,10952.249236
445.579265,76.589155,229.767466,10569.303459
445.579569,-612.713244,76.589155,10722.481770
445.579872,-153.178311,229.767466,10722.481770
445.580176,229.767466,0.000000,10799.070925
445.580479,-153.178311,76.589155,10952.249236
445.580783,-153.178311,0.000000,10952.249236
445.581086,-153.178311,-153.178311,11105.427547
445.581390,76.589155,0.000000,10799.070925
445.581693,0.000000,0.000000,10799.070925
445.581997,-306.356622,76.589155,10952.249236
445.582300,0.000000,76.589155,10722.481770
445.582604,0.000000,0.000000,10952.249236
445.582907,-153.178311,76.589155,11105.427547
445.583211,0.000000,76.589155,10722.481770
445.583514,76.589155,76.589155,11105.427547
445.583828,0.000000,0.000000,10569.303459
445.584130,0.000000,229.767466,10799.070925
445.584432,0.000000,229.767466,11105.427547
445.584734,0.000000,76.589155,10569.303459
445.585036,0.000000,0.000000,10722.481770
445.585338,-153.178311,0.000000,10952.249236
445.585640,76.589155,0.000000,10722.481770
445.585942,0.000000,-153.178311,10799.070925
445.586245,-306.356622,0.000000,10799.070925
445.586549,0.000000,0.000000,10952.249236
445.586852,-153.178311,229.767466,10952.249236
445.587156,-153.178311,229.767466,10722.481770
445.587459,0.000000,229.767466,10569.303459
445.587763,76.589155,-153.178311,10799.070925
445.588066,-306.356622,0.000000,10952.249236
445.588370,-153.178311,-306.356622,10952.249236
445.588676,0.000000,76.589155,10799.070925
445.588979,0.000000,0.000000,10799.070925
445.589282,-153.178311,76.589155,11258.605858
445.589585,0.000000,76.589155,10952.249236
445.589888,0.000000,382.945777,10722.481770
445.590191,0.000000,76.589155,10799.070925
445.590494,0.000000,0.000000,10952.249236
445.590797,0.000000,0.000000,10952.249236
445.591114,229.767466,76.589155,10799.070925
445.591416,76.589155,-153.178311,11105.427547
445.591717,-306.356622,0.000000,10952.249236
445.592019,-153.178311,0.000000,10722.481770
445.592320,76.589155,229.767466,10952.249236
445.592622,-306.356622,229.767466,10799.070925
445.592924,0.000000,76.589155,10799.070925
445.593225,76.589155,76.589155,10799.070925
445.593545,76.589155,0.000000,10952.249236
445.593846,-306.356622,-153.178311,10799.070925
445.594147,-153.178311,-153.178311,10799.070925
445.594449,-153.178311,76.589155,10722.481770
445.594750,-306.356622,0.000000,10722.481770
445.595051,-153.178311,76.589155,10799.070925
445.595352,229.767466,229.767466,10799.070925
445.595653,0.000000,229.767466,10799.070925
445.595956,-306.356622,76.589155,10799.070925
445.596260,0.000000,-153.178311,11105.427547
445.596563,76.589155,76.589155,10799.070925
445.596867,0.000000,76.589155,10952.249236
445.597170,-153.178311,76.589155,10799.070925
445.597474,76.589155,382.945777,10722.481770
445.597777,0.000000,76.589155,10722.481770
445.598081,0.000000,76.589155,10952.249236
445.598384,-153.178311,0.000000,10799.070925
445.598688,76.589155,-153.178311,11258.605858
445.598991,-153.178311,76.589155,10952.249236
445.599295,-306.356622,0.000000,10952.249236
445.599598,-306.356622,-153.178311,10952.249236
445.599902,-153.178311,0.000000,11105.427547
445.600205,0.000000,0.000000,10952.249236
445.600509,0.000000,0.000000,11105.427547
445.600813,0.000000,76.589155,10952.249236
445.601117,76.589155,0.000000,11105.427547
445.601420,-153.178311,229.767466,10952.249236
445.601723,-153.178311,0.000000,10952.249236
445.602027,76.589155,229.767466,10799.070925
445.602330,0.000000,229.767466,10952.249236
445.602633,0.000000,229.767466,10722.481770
445.602937,76.589155,-153.178311,10952.249236
445.603239,76.589155,76.589155,10952.249236
445.603543,76.589155,0.000000,10799.070925
445.603846,-153.178311,76.589155,10799.070925
445.604150,229.767466,76.589155,10799.070925
445.604453,-306.356622,76.589155,10799.070925
445.604757,-306.356622,76.589155,10799.070925
445.605060,0.000000,0.000000,10722.481770
445.605364,0.000000,0.000000,10952.249236
445.605670,-153.178311,-153.178311,10952.249236
445.605973,-153.178311,0.000000,10952.249236
445.606276,76.589155,0.000000,10952.249236
445.606579,-306.356622,0.000000,10799.070925
445.606882,-459.534933,0.000000,10799.070925
445.607185,0.000000,76.589155,10799.070925
445.607488,-153.178311,229.767466,10799.070925
445.607791,-306.356622,76.589155,10952.249236
445.608103,-153.178311,0.000000,10952.249236
445.608405,229.767466,0.000000,10799.070925
445.608708,76.589155,76.589155,11105.427547
445.609010,-306.356622,76.589155,10952.249236
445.609312,0.000000,0.000000,10952.249236
445.609615,76.589155,76.589155,10952.249236
445.609917,0.000000,76.589155,10952.249236
445.610220,-153.178311,0.000000,11105.427547
445.610539,0.000000,76.589155,10952.249236
445.610840,0.000000,76.589155,10952.249236
445.611141,-153.178311,-153.178311,11105.427547
445.611443,0.000000,76.589155,10952.249236
445.611744,0.000000,76.589155,10799.070925
445.612045,-306.356622,76.589155,10799.070925
445.612346,-306.356622,0.000000,10952.249236
445.612647,0.000000,-153.178311,10952.249236
445.612950,76.589155,76.589155,11105.427547
445.613254,-306.356622,0.000000,10799.070925
445.613557,-153.178311,0.000000,10952.249236
445.613861,76.589155,229.767466,10799.070925
445.614164,76.589155,382.945777,10799.070925
445.614468,-153.178311,76.589155,10722.481770
445.614771,-153.178311,0.000000,10722.481770
445.615075,0.000000,0.000000,11105.427547
445.615378,76.589155,76.589155,10799.070925
445.615682,-153.178311,-153.178311,10952.249236
445.615985,0.000000,-153.178311,11105.427547
445.616289,76.589155,0.000000,10952.249236
445.616592,0.000000,382.945777,10722.481770
445.616895,-306.356622,0.000000,11105.427547
445.617199,76.589155,76.589155,10952.249236
445.617502,0.000000,76.589155,10952.249236
445.617813,-153.178311,-153.178311,11105.427547
445.618115,-306.356622,-153.178311,11258.605858
445.618418,-153.178311,0.000000,11105.427547
445.618720,0.000000,0.000000,10722.481770
445.619023,-306.356622,229.767466,10799.070925
445.619325,-153.178311,76.589155,10952.249236
445.619628,0.000000,229.767466,10799.070925
445.619931,-153.178311,229.767466,10722.481770
445.620234,-153.178311,-153.178311,11105.427547
445.620538,0.000000,-153.178311,10799.070925
445.620841,0.000000,0.000000,10952.249236
445.621144,-153.178311,0.000000,10799.070925
445.621448,-153.178311,0.000000,10799.070925
445.621751,76.589155,76.589155,10722.481770
445.622055,76.589155,229.767466,10952.249236
445.622358,0.000000,76.589155,10722.481770
445.622662,229.767466,76.589155,10799.070925
445.622966,76.589155,76.589155,10952.249236
445.623269,76.589155,-306.356622,10799.070925
445.623572,0.000000,-153.178311,10799.070925
445.623875,0.000000,0.000000,10952.249236
445.624179,-153.178311,0.000000,10952.249236
445.624482,-306.356622,76.589155,10952.249236
445.624785,76.589155,76.589155,10952.249236
445.625097,0.000000,0.000000,10952.249236
445.625399,-153.178311,-153.178311,10952.249236
445.625702,-153.178311,0.000000,10799.070925
445.626004,0.000000,0.000000,10799.070925
445.626307,-306.356622,-153.178311,11105.427547
445.626609,-153.178311,76.589155,10952.249236
445.626911,76.589155,76.589155,10799.070925
445.627214,0.000000,229.767466,10799.070925
445.627517,0.000000,0.000000,11105.427547
445.627820,76.589155,0.000000,11258.605858
445.628124,76.589155,76.589155,10799.070925
445.628427,76.589155,0.000000,10952.249236
445.628731,-153.178311,76.589155,10952.249236
445.629034,0.000000,536.124088,10799.070925
445.629338,-153.178311,229.767466,10569.303459
445.629641,-153.178311,76.589155,10799.070925
445.629944,76.589155,-153.178311,10799.070925
445.630248,-153.178311,-459.534933,10952.249236
445.630551,-153.178311,-153.178311,10952.249236
445.630855,-153.178311,-153.178311,10952.249236
445.631158,0.000000,76.589155,10799.070925
445.631462,-459.534933,229.767466,10799.070925
445.631766,-306.356622,229.767466,10952.249236
445.632069,229.767466,229.767466,10722.481770
445.632373,-153.178311,0.000000,10722.481770
445.632676,-153.178311,-306.356622,10952.249236
445.632979,76.589155,-153.178311,10952.249236
445.633283,0.000000,0.000000,10952.249236
445.633586,-153.178311,76.589155,10952.249236
445.633890,-153.178311,76.589155,10799.070925
445.634193,76.589155,382.945777,10722.481770
445.634497,0.000000,382.945777,10722.481770
445.634801,0.000000,0.000000,10952.249236
445.635104,0.000000,0.000000,10799.070925
445.635408,229.767466,-153.178311,10952.249236
445.635711,0.000000,-153.178311,10952.249236
445.636014,-459.534933,76.589155,10799.070925
445.636318,76.589155,229.767466,10722.481770
445.636621,-153.178311,76.589155,10799.070925
445.636924,0.000000,76.589155,10952.249236
445.637227,0.000000,0.000000,10952.249236
445.637531,0.000000,-153.178311,10722.481770
445.637834,0.000000,-153.178311,10952.249236
445.638138,-153.178311,-153.178311,10952.249236
445.638441,-153.178311,229.767466,10799.070925
445.638745,-306.356622,76.589155,10799.070925
445.639048,-306.356622,382.945777,10799.070925
445.639352,0.000000,76.589155,10799.070925
445.639655,229.767466,76.589155,10952.249236
445.639958,-153.178311,0.000000,11105.427547
445.640262,-153.178311,0.000000,11105.427547
445.640565,0.000000,0.000000,10799.070925
445.640869,0.000000,76.589155,10952.249236
445.641172,-306.356622,382.945777,10799.070925
445.641476,0.000000,382.945777,10799.070925
445.641779,229.767466,229.767466,10952.249236
445.642091,-153.178311,76.589155,10952.249236
445.642394,-306.356622,-153.178311,10952.249236
445.642696,229.767466,-153.178311,10952.249236
445.642998,-153.178311,-153.178311,11105.427547
445.643300,-459.534933,76.589155,10799.070925
445.643603,-153.178311,76.589155,10799.070925
445.643905,0.000000,76.589155,10799.070925
445.644207,-153.178311,76.589155,10416.125148
445.644533,-306.356622,-153.178311,10952.249236
445.644833,76.589155,0.000000,10722.481770
445.645134,0.000000,76.589155,10799.070925
445.645434,0.000000,0.000000,11105.427547
445.645734,-153.178311,76.589155,10952.249236
445.646034,76.589155,229.767466,10722.481770
445.646334,-306.356622,76.589155,10799.070925
445.646635,-153.178311,229.767466,10722.481770
445.646938,382.945777,76.589155,10722.481770
445.647242,-153.178311,76.589155,10952.249236
445.647545,-153.178311,0.000000,10952.249236
445.647849,76.589155,76.589155,11105.427547
445.648152,76.589155,76.589155,10799.070925
445.648456,-612.713244,0.000000,10952.249236
445.648759,-306.356622,76.589155,10799.070925
445.649063,76.589155,229.767466,10952.249236
445.649366,0.000000,229.767466,10952.249236
445.649669,-153.178311,-306.356622,11105.427547
445.649973,229.767466,-153.178311,10952.249236
445.650276,76.589155,-153.178311,11258.605858
445.650580,-306.356622,-306.356622,10799.070925
445.650883,-306.356622,-153.178311,11105.427547
445.651187,76.589155,0.000000,10952.249236
445.651490,-306.356622,76.589155,11105.427547
445.651794,76.589155,229.767466,10799.070925
445.652098,76.589155,382.945777,10799.070925
445.652401,76.589155,76.589155,10952.249236
445.652704,-153.178311,76.589155,10722.481770
445.653008,-153.178311,-153.178311,10952.249236
445.653311,76.589155,536.124088,10799.070925
445.653615,-153.178311,76.589155,10722.481770
445.653918,-153.178311,0.000000,10952.249236
445.654221,0.000000,76.589155,10799.070925
445.654524,229.767466,-306.356622,10569.303459
445.654828,-153.178311,-153.178311,10952.249236
445.655131,-153.178311,0.000000,10799.070925
445.655435,76.589155,0.000000,10952.249236
445.655738,-306.356622,76.589155,10799.070925
445.656041,-153.178311,76.589155,10952.249236
445.656345,229.767466,76.589155,10799.070925
445.656649,0.000000,0.000000,10799.070925
445.656952,-153.178311,-306.356622,11105.427547
445.657256,0.000000,0.000000,11105.427547
445.657559,0.000000,0.000000,10799.070925
445.657863,0.000000,-153.178311,10799.070925
445.658166,-459.534933,382.945777,10799.070925
445.658470,0.000000,76.589155,10722.481770
445.658774,229.767466,382.945777,11105.427547
445.659090,0.000000,0.000000,10799.070925
445.659392,0.000000,0.000000,10952.249236
445.659694,76.589155,76.589155,10799.070925
445.659995,0.000000,-153.178311,10952.249236
445.660297,-153.178311,-153.178311,10952.249236
445.660598,-153.178311,382.945777,10799.070925
445.660900,0.000000,76.589155,10799.070925
445.661201,-306.356622,0.000000,10799.070925
445.661527,-306.356622,0.000000,10952.249236
445.661827,76.589155,0.000000,10799.070925
445.662128,0.000000,0.000000,10799.070925
445.662428,-153.178311,0.000000,10569.303459
445.662728,0.000000,0.000000,10799.070925
445.663028,-153.178311,229.767466,10569.303459
445.663329,-153.178311,229.767466,10569.303459
445.663629,0.000000,76.589155,10952.249236
445.663938,0.000000,-306.356622,10722.481770
445.664241,0.000000,0.000000,10952.249236
445.664543,0.000000,0.000000,10952.249236
445.664846,-153.178311,76.589155,10952.249236
445.665149,-153.178311,0.000000,10952.249236
445.665451,-153.178311,76.589155,10799.070925
445.665754,0.000000,76.589155,10722.481770
445.666057,76.589155,229.767466,10799.070925
445.666359,0.000000,76.589155,10799.070925
445.666663,76.589155,-153.178311,10799.070925
445.666966,0.000000,0.000000,11105.427547
445.667270,0.000000,-153.178311,10952.249236
445.667573,0.000000,76.589155,10952.249236
445.667877,-153.178311,0.000000,10952.249236
445.668180,-306.356622,76.589155,10952.249236
445.668484,-153.178311,76.589155,10799.070925
445.668788,-306.356622,229.767466,10799.070925
445.669091,0.000000,76.589155,10799.070925
445.669395,-153.178311,76.589155,10952.249236
445.669698,0.000000,-153.178311,11105.427547
445.670001,0.000000,229.767466,10722.481770
445.670305,-153.178311,76.589155,10952.249236
445.670608,0.000000,-153.178311,11105.427547
445.670912,0.000000,0.000000,10799.070925
445.671215,-153.178311,0.000000,10952.249236
445.671518,-153.178311,0.000000,10799.070925
445.671822,229.767466,0.000000,10722.481770
445.672125,0.000000,0.000000,11105.427547
445.672429,0.000000,229.767466,10569.303459
445.672732,76.589155,382.945777,10799.070925
445.673036,76.589155,76.589155,10569.303459
445.673340,-306.356622,229.767466,10799.070925
445.673646,0.000000,-153.178311,10722.481770
445.673949,76.589155,0.000000,10722.481770
445.674252,-153.178311,-153.178311,10799.070925
445.674555,-306.356622,-306.356622,11105.427547
445.674858,-153.178311,0.000000,10722.481770
445.675161,-153.178311,0.000000,10722.481770
445.675464,-306.356622,0.000000,10799.070925
445.675767,-306.356622,229.767466,10799.070925
445.676073,0.000000,76.589155,10952.249236
445.676376,76.589155,229.767466,10952.249236
445.676679,-153.178311,-153.178311,10722.481770
445.676982,76.589155,0.000000,11105.427547
445.677286,76.589155,0.000000,11105.427547
445.677589,-153.178311,76.589155,10952.249236
445.677892,0.000000,76.589155,10952.249236
445.678195,76.589155,382.945777,10799.070925
445.678514,76.589155,76.589155,10952.249236
445.678815,0.000000,76.589155,10952.249236
445.679116,76.589155,0.000000,10952.249236
445.679418,229.767466,0.000000,11105.427547
445.679719,-153.178311,76.589155,10722.481770
445.680020,-306.356622,0.000000,10799.070925
445.680322,76.589155,382.945777,10722.481770
445.680623,0.000000,76.589155,10569.303459
445.680932,-306.356622,0.000000,10952.249236
445.681235,0.000000,0.000000,10799.070925
445.681537,-153.178311,-306.356622,10952.249236
445.681840,-306.356622,0.000000,10799.070925
445.682143,-306.356622,0.000000,10722.481770
445.682445,0.000000,76.589155,10799.070925
445.682748,-153.178311,76.589155,10722.481770
445.683051,0.000000,229.767466,10722.481770
445.683354,76.589155,229.767466,10799.070925
445.683657,76.589155,0.000000,10952.249236
445.683961,0.000000,0.000000,10952.249236
445.684264,76.589155,0.000000,11105.427547
445.684568,0.000000,-153.178311,10952.249236
445.684871,0.000000,229.767466,10799.070925
445.685175,0.000000,0.000000,10952.249236
445.685479,76.589155,229.767466,10722.481770
445.685783,76.589155,229.767466,10799.070925
445.686086,-153.178311,0.000000,11105.427547
445.686390,-153.178311,-306.356622,11258.605858
445.686693,0.000000,-153.178311,10952.249236
445.686996,-153.178311,-153.178311,10799.070925
445.687300,-306.356622,76.589155,10722.481770
445.687603,-153.178311,229.767466,10722.481770
445.687906,-153.178311,0.000000,10722.481770
445.688209,-306.356622,229.767466,10952.249236
445.688513,-153.178311,76.589155,10799.070925
445.688816,229.767466,0.000000,10799.070925
445.689120,-306.356622,76.589155,10799.070925
445.689423,-153.178311,-153.178311,10799.070925
445.689727,229.767466,229.767466,10799.070925
445.690031,-153.178311,0.000000,10722.481770
445.690334,-153.178311,-153.178311,10952.249236
445.690639,0.000000,229.767466,10952.249236
445.690942,76.589155,76.589155,10799.070925
445.691245,0.000000,0.000000,10952.249236
445.691549,-153.178311,-153.178311,10799.070925
445.691852,76.589155,-153.178311,11105.427547
445.692155,76.589155,0.000000,10722.481770
445.692458,-153.178311,76.589155,10799.070925
445.692762,-153.178311,0.000000,10799.070925
445.693079,76.589155,76.589155,10722.481770
445.693380,0.000000,76.589155,10952.249236
445.693682,-153.178311,-153.178311,11105.427547
445.693983,0.000000,0.000000,11105.427547
445.694285,0.000000,-306.356622,11258.605858
445.694586,-459.534933,0.000000,10952.249236
445.694888,-153.178311,0.000000,10722.481770
445.695189,76.589155,229.767466,10952.249236
445.695497,0.000000,229.767466,10722.481770
445.695800,76.589155,76.589155,10952.249236
445.696103,0.000000,0.000000,10799.070925
445.696406,229.767466,76.589155,10799.070925
445.696708,-153.178311,-153.178311,11105.427547
445.697011,-306.356622,229.767466,10952.249236
445.697314,0.000000,-153.178311,10799.070925
445.697617,0.000000,0.000000,10952.249236
445.697926,-306.356622,76.589155,10722.481770
445.698229,-153.178311,76.589155,10952.249236
445.698532,76.589155,0.000000,11105.427547
445.698834,-153.178311,0.000000,10722.481770
445.699137,-306.356622,0.000000,10722.481770
445.699439,76.589155,0.000000,11105.427547
445.699742,-153.178311,-153.178311,11105.427547
445.700045,-612.713244,0.000000,10799.070925
445.700348,-153.178311,0.000000,10722.481770
445.700651,0.000000,76.589155,10799.070925
445.700955,-153.178311,76.589155,10952.249236
445.701258,76.589155,76.589155,10952.249236
445.701562,229.767466,0.000000,10952.249236
445.701866,0.000000,76.589155,10799.070925
445.702169,-153.178311,76.589155,10799.070925
445.702473,0.000000,76.589155,10799.070925
445.702775,0.000000,229.767466,10799.070925
445.703079,76.589155,229.767466,10799.070925
445.703383,0.000000,0.000000,10799.070925
445.703686,76.589155,0.000000,10799.070925
445.703990,76.589155,0.000000,10799.070925
445.704293,-153.178311,76.589155,10799.070925
445.704597,-306.356622,-153.178311,10722.481770
445.704900,-306.356622,229.767466,10722.481770
445.705203,-153.178311,76.589155,10569.303459
445.705507,-306.356622,-306.356622,10799.070925
445.705810,-153.178311,0.000000,10799.070925
445.706114,0.000000,-306.356622,10799.070925
445.706417,0.000000,0.000000,10952.249236
445.706721,-153.178311,0.000000,10799.070925
445.707025,-153.178311,76.589155,10799.070925
445.707328,-153.178311,76.589155,10799.070925
445.707635,-153.178311,76.589155,10722.481770
445.707938,229.767466,-153.178311,10952.249236
445.708241,382.945777,-153.178311,10799.070925
445.708544,76.589155,-153.178311,10952.249236
445.708847,0.000000,-153.178311,11258.605858
445.709150,76.589155,76.589155,10799.070925
445.709453,76.589155,0.000000,10952.249236
445.709756,0.000000,0.000000,10952.249236
445.710079,76.589155,-153.178311,10722.481770
445.710379,229.767466,76.589155,10799.070925
445.710680,-153.178311,0.000000,10722.481770
445.710981,-306.356622,0.000000,10952.249236
445.711281,0.000000,-153.178311,10952.249236
445.711582,-306.356622,76.589155,10799.070925
445.711883,-306.356622,76.589155,10952.249236
445.712184,-306.356622,76.589155,10799.070925
445.712491,-153.178311,76.589155,10569.303459
445.712794,-153.178311,76.589155,10799.070925
445.713097,-153.178311,76.589155,10722.481770
445.713400,-306.356622,-153.178311,10799.070925
445.713703,382.945777,76.589155,11105.427547
445.714006,0.000000,76.589155,10799.070925
445.714308,0.000000,0.000000,10799.070925
445.714611,76.589155,-153.178311,10799.070925
445.714921,229.767466,382.945777,10799.070925
445.715224,0.000000,76.589155,10722.481770
445.715526,76.589155,0.000000,10799.070925
445.715829,229.767466,76.589155,10799.070925
445.716131,229.767466,229.767466,10952.249236
445.716434,-153.178311,76.589155,10952.249236
445.716737,-153.178311,76.589155,10799.070925
445.717039,0.000000,0.000000,10799.070925
445.717342,-153.178311,76.589155,10799.070925
445.717645,-306.356622,76.589155,11105.427547
445.717949,-153.178311,0.000000,10799.070925
445.718252,-153.178311,-153.178311,10799.070925
445.718556,-306.356622,0.000000,10952.249236
445.718859,-306.356622,0.000000,10722.481770
445.719163,0.000000,76.589155,10799.070925
445.719466,-153.178311,-153.178311,10799.070925
445.719774,-306.356622,229.767466,10799.070925
445.720077,229.767466,76.589155,10722.481770
445.720380,229.767466,0.000000,10799.070925
445.720683,0.000000,0.000000,10799.070925
445.720986,76.589155,76.589155,10952.249236
445.721289,229.767466,229.767466,10952.249236
445.721592,0.000000,76.589155,10799.070925
445.721895,0.000000,76.589155,10799.070925
445.722198,229.767466,76.589155,10799.070925
445.722502,76.589155,76.589155,10722.481770
445.722805,-153.178311,-306.356622,10799.070925
445.723108,-153.178311,0.000000,10799.070925
445.723412,76.589155,-153.178311,10799.070925
445.723715,-153.178311,76.589155,10799.070925
445.724019,-459.534933,76.589155,10722.481770
445.724322,-306.356622,-153.178311,10799.070925
445.724629,0.000000,76.589155,10722.481770
445.724932,-306.356622,0.000000,10799.070925
445.725235,-612.713244,-153.178311,11105.427547
445.725538,-153.178311,76.589155,10799.070925
445.725841,0.000000,-153.178311,11105.427547
445.726144,0.000000,76.589155,11105.427547
445.726447,-306.356622,76.589155,10952.249236
445.726750,0.000000,0.000000,11258.605858
445.727073,76.589155,229.767466,10799.070925
445.727373,76.589155,229.767466,10952.249236
445.727674,229.767466,76.589155,10799.070925
445.727975,0.000000,382.945777,10722.481770
445.728276,229.767466,0.000000,11258.605858
445.728576,0.000000,76.589155,10799.070925
445.728877,-153.178311,76.589155,10952.249236
445.729178,0.000000,76.589155,11105.427547
445.729497,0.000000,76.589155,10952.249236
445.729798,0.000000,0.000000,10722.481770
445.730099,-459.534933,0.000000,10952.249236
445.730400,-153.178311,76.589155,10722.481770
445.730701,0.000000,0.000000,10952.249236
445.731003,-306.356622,76.589155,10569.303459
445.731304,-306.356622,76.589155,10569.303459
445.731605,-153.178311,0.000000,10722.481770
445.731910,0.000000,76.589155,10799.070925
445.732213,0.000000,-153.178311,10799.070925
445.732516,-153.178311,0.000000,10722.481770
445.732820,76.589155,76.589155,10799.070925
445.733123,-153.178311,76.589155,10722.481770
445.733426,76.589155,229.767466,10799.070925
445.733730,0.000000,229.767466,10569.303459
445.734033,229.767466,229.767466,10722.481770
445.734336,0.000000,0.000000,10799.070925
445.734640,0.000000,76.589155,10799.070925
445.734943,76.589155,-306.356622,10952.249236
445.735247,0.000000,-153.178311,10952.249236
445.735550,-306.356622,76.589155,10799.070925
445.735854,-306.356622,229.767466,10952.249236
445.736157,0.000000,76.589155,10799.070925
445.736461,0.000000,76.589155,10722.481770
445.736772,-153.178311,76.589155,11105.427547
445.737074,0.000000,-153.178311,10952.249236
445.737377,0.000000,-153.178311,10952.249236
445.737679,-306.356622,0.000000,10952.249236
445.737981,-153.178311,-306.356622,10952.249236
445.738284,-153.178311,76.589155,10952.249236
445.738586,0.000000,229.767466,10799.070925
445.738889,0.000000,0.000000,10799.070925
445.739191,76.589155,0.000000,10799.070925
445.739495,76.589155,229.767466,10799.070925
445.739799,-153.178311,229.767466,10952.249236
445.740102,-153.178311,229.767466,10799.070925
445.740406,76.589155,0.000000,10799.070925
445.740709,0.000000,76.589155,10722.481770
445.741013,0.000000,229.767466,10722.481770
445.741316,76.589155,0.000000,10952.249236
445.741619,76.589155,0.000000,10799.070925
445.741923,-153.178311,76.589155,10799.070925
445.742226,-153.178311,76.589155,10952.249236
445.742530,-306.356622,76.589155,10799.070925
445.742833,-306.356622,229.767466,10722.481770
445.743137,-153.178311,-306.356622,10799.070925
445.743441,-153.178311,229.767466,10952.249236
445.743744,0.000000,76.589155,11105.427547
445.744067,76.589155,-153.178311,11105.427547
445.744367,-153.178311,76.589155,10952.249236
445.744668,-153.178311,0.000000,11105.427547
445.744969,0.000000,0.000000,10952.249236
445.745270,-153.178311,0.000000,10952.249236
445.745570,0.000000,0.000000,10952.249236
445.745871,0.000000,229.767466,10952.249236
445.746172,229.767466,76.589155,10952.249236
445.746485,229.767466,0.000000,10952.249236
445.746787,229.767466,229.767466,10952.249236
445.747089,0.000000,0.000000,10952.249236
445.747391,76.589155,76.589155,10952.249236
445.747693,0.000000,76.589155,10799.070925
445.747995,0.000000,76.589155,10952.249236
445.748298,-306.356622,382.945777,10722.481770
445.748600,-153.178311,76.589155,10799.070925
445.748909,0.000000,76.589155,10799.070925
445.749212,-153.178311,76.589155,10722.481770
445.749514,-306.356622,-306.356622,10952.249236
445.749817,-153.178311,0.000000,11105.427547
445.750120,0.000000,76.589155,10569.303459
445.750422,-153.178311,0.000000,10799.070925
445.750725,-459.534933,229.767466,10799.070925
445.751027,76.589155,76.589155,10952.249236
445.751330,229.767466,229.767466,11105.427547
445.751634,-153.178311,0.000000,10722.481770
445.751937,76.589155,0.000000,11105.427547
445.752241,76.589155,-153.178311,10799.070925
445.752545,-306.356622,0.000000,10799.070925
445.752848,0.000000,-306.356622,10952.249236
445.753152,76.589155,229.767466,10952.249236
445.753455,229.767466,76.589155,10952.249236
445.753766,-459.534933,76.589155,10799.070925
445.754069,0.000000,229.767466,10952.249236
445.754371,76.589155,0.000000,11105.427547
445.754673,-306.356622,0.000000,10952.249236
445.754976,-612.713244,0.000000,10799.070925
445.755278,0.000000,229.767466,11105.427547
445.755581,0.000000,0.000000,10952.249236
445.755883,-612.713244,-153.178311,10952.249236
445.756186,0.000000,76.589155,10799.070925
445.756489,76.589155,-153.178311,10952.249236
445.756793,-459.534933,76.589155,10952.249236
445.757096,0.000000,76.589155,10799.070925
445.757400,229.767466,382.945777,10799.070925
445.757704,0.000000,536.124088,10569.303459
445.758007,-153.178311,0.000000,10799.070925
445.758311,76.589155,0.000000,11105.427547
445.758614,229.767466,0.000000,10799.070925
445.758917,0.000000,0.000000,10952.249236
445.759221,0.000000,0.000000,10952.249236
445.759524,76.589155,76.589155,10952.249236
445.759828,0.000000,76.589155,10799.070925
445.760131,-306.356622,76.589155,10722.481770
445.760435,76.589155,229.767466,10722.481770
445.760738,76.589155,76.589155,10799.070925
445.761061,-153.178311,76.589155,10952.249236
445.761361,-306.356622,-459.534933,10952.249236
445.761662,0.000000,-153.178311,10952.249236
445.761963,-306.356622,-153.178311,10952.249236
445.762264,-306.356622,-306.356622,10952.249236
445.762565,-153.178311,76.589155,11105.427547
445.762865,76.589155,229.767466,10722.481770
445.763166,0.000000,76.589155,10952.249236
445.763479,-612.713244,76.589155,10799.070925
445.763781,76.589155,0.000000,10799.070925
445.764083,0.000000,76.589155,10799.070925
445.764386,-612.713244,76.589155,10722.481770
445.764688,-306.356622,0.000000,10952.249236
445.764990,229.767466,76.589155,10952.249236
445.765292,0.000000,76.589155,10722.481770
445.765594,-153.178311,76.589155,10952.249236
445.765909,76.589155,76.589155,10799.070925
445.766211,0.000000,76.589155,10952.249236
445.766513,-306.356622,0.000000,10952.249236
445.766814,-153.178311,229.767466,10799.070925
445.767116,76.589155,76.589155,10952.249236
445.767418,-153.178311,382.945777,11105.427547
445.767720,-306.356622,229.767466,10799.070925
445.768022,0.000000,76.589155,10952.249236
445.768325,0.000000,0.000000,10952.249236
445.768629,-306.356622,-153.178311,11105.427547
445.768932,76.589155,-153.178311,11105.427547
445.769235,0.000000,0.000000,10952.249236
445.769539,-306.356622,0.000000,10952.249236
445.769842,-153.178311,76.589155,11105.427547
445.770146,0.000000,382.945777,10569.303459
445.770449,0.000000,0.000000,10952.249236
445.770760,0.000000,0.000000,10952.249236
445.771063,229.767466,0.000000,10952.249236
445.771365,76.589155,-306.356622,10799.070925
445.771667,-153.178311,-153.178311,10722.481770
445.771970,0.000000,0.000000,10799.070925
445.772272,76.589155,382.945777,10799.070925
445.772575,-306.356622,382.945777,10569.303459
445.772877,-153.178311,76.589155,10569.303459
445.773180,229.767466,76.589155,10722.481770
445.773483,0.000000,76.589155,10799.070925
445.773787,-306.356622,-306.356622,11105.427547
445.774090,-153.178311,-306.356622,11258.605858
445.774394,76.589155,229.767466,10799.070925
445.774698,-459.534933,-153.178311,10799.070925
445.775001,-612.713244,229.767466,10799.070925
445.775305,229.767466,229.767466,10952.249236
445.775611,0.000000,76.589155,10799.070925
445.775914,-306.356622,-306.356622,10799.070925
445.776217,0.000000,0.000000,10799.070925
445.776520,76.589155,-153.178311,10799.070925
445.776823,-306.356622,229.767466,10799.070925
445.777126,-612.713244,0.000000,10952.249236
445.777429,229.767466,0.000000,10952.249236
445.777732,229.767466,382.945777,10722.481770
445.778043,76.589155,382.945777,10952.249236
445.778346,76.589155,0.000000,11105.427547
445.778648,382.945777,229.767466,10799.070925
445.778951,0.000000,-153.178311,11105.427547
445.779253,-459.534933,0.000000,10952.249236
445.779555,-153.178311,76.589155,10799.070925
445.779858,0.000000,76.589155,10799.070925
445.780160,-306.356622,229.767466,10722.481770
445.780468,0.000000,229.767466,10722.481770
445.780771,229.767466,0.000000,10952.249236
445.781074,0.000000,-153.178311,10799.070925
445.781377,-306.356622,-306.356622,10952.249236
445.781679,0.000000,0.000000,10952.249236
445.781982,0.000000,229.767466,10799.070925
445.782285,-306.356622,0.000000,10799.070925
445.782588,0.000000,382.945777,10722.481770
445.782903,382.945777,382.945777,10722.481770
445.783205,76.589155,0.000000,10799.070925
445.783507,-153.178311,76.589155,10799.070925
445.783808,76.589155,0.000000,10799.070925
445.784110,76.589155,76.589155,11105.427547
445.784412,-306.356622,76.589155,10722.481770
445.784714,0.000000,0.000000,10799.070925
445.785015,76.589155,76.589155,10799.070925
445.785318,0.000000,229.767466,10952.249236
445.785622,0.000000,0.000000,11105.427547
445.785925,76.589155,-153.178311,10952.249236
445.786229,0.000000,-153.178311,11258.605858
445.786532,-153.178311,-153.178311,11258.605858
445.786836,-153.178311,76.589155,10952.249236
445.787139,-153.178311,229.767466,10799.070925
445.787443,-306.356622,76.589155,10799.070925
445.787748,0.000000,229.767466,10722.481770
445.788051,229.767466,76.589155,10799.070925
445.788354,-153.178311,0.000000,11105.427547
445.788658,-153.178311,-153.178311,11105.427547
445.788961,0.000000,-153.178311,11105.427547
445.789264,-306.356622,0.000000,10952.249236
445.789567,-153.178311,229.767466,10722.481770
445.789871,-153.178311,382.945777,10722.481770
445.790173,0.000000,382.945777,10799.070925
445.790477,-153.178311,76.589155,10799.070925
445.790781,-153.178311,-153.178311,10799.070925
445.791084,229.767466,0.000000,10952.249236
445.791388,0.000000,-306.356622,10952.249236
445.791691,-459.534933,0.000000,10799.070925
445.791995,-153.178311,-153.178311,10799.070925
445.792298,76.589155,382.945777,10569.303459
445.792601,0.000000,382.945777,10722.481770
445.792905,-306.356622,-153.178311,10952.249236
445.793208,76.589155,0.000000,10952.249236
445.793512,0.000000,0.000000,11105.427547
445.793815,0.000000,-153.178311,11258.605858
445.794119,-306.356622,-153.178311,10952.249236
445.794423,-153.178311,229.767466,10952.249236
445.794726,-153.178311,76.589155,10799.070925
445.795029,-153.178311,76.589155,10952.249236
445.795332,76.589155,76.589155,11105.427547
445.795636,76.589155,0.000000,10952.249236
445.795940,-153.178311,0.000000,10952.249236
445.796243,-153.178311,-306.356622,11258.605858
445.796547,0.000000,76.589155,11105.427547
445.796850,-153.178311,382.945777,10799.070925
445.797154,-306.356622,229.767466,10722.481770
445.797457,-153.178311,76.589155,10799.070925
445.797760,229.767466,76.589155,11105.427547
445.798064,76.589155,229.767466,10799.070925
445.798367,0.000000,0.000000,10799.070925
445.798671,76.589155,-153.178311,10952.249236
445.798975,0.000000,76.589155,11105.427547
445.799278,-459.534933,0.000000,10799.070925
445.799582,-153.178311,229.767466,10799.070925
445.799885,76.589155,382.945777,10569.303459
445.800188,76.589155,0.000000,10799.070925
445.800492,-153.178311,-153.178311,10799.070925
445.800795,0.000000,-306.356622,10952.249236
445.801099,229.767466,-153.178311,10799.070925
445.801402,-459.534933,-153.178311,10952.249236
445.801706,-306.356622,76.589155,10799.070925
445.802009,76.589155,229.767466,10799.070925
445.802313,0.000000,0.000000,10799.070925
445.802616,0.000000,0.000000,10952.249236
445.802920,0.000000,0.000000,10799.070925
445.803223,76.589155,76.589155,10952.249236
445.803526,-153.178311,0.000000,10952.249236
445.803830,-306.356622,76.589155,10952.249236
445.804133,-153.178311,229.767466,10952.249236
445.804437,76.589155,229.767466,10799.070925
445.804741,-153.178311,76.589155,10722.481770
445.805044,-153.178311,0.000000,10952.249236
445.805347,0.000000,0.000000,11105.427547
445.805651,0.000000,-153.178311,11258.605858
445.805954,-306.356622,-153.178311,10952.249236
445.806257,-306.356622,0.000000,10952.249236
445.806561,-153.178311,76.589155,10569.303459
445.806864,-153.178311,0.000000,10799.070925
445.807179,-459.534933,382.945777,10799.070925
445.807481,229.767466,0.000000,10722.481770
445.807783,229.767466,229.767466,10799.070925
445.808085,-153.178311,-153.178311,10952.249236
445.808387,0.000000,0.000000,11105.427547
445.808689,229.767466,76.589155,10799.070925
445.808991,-153.178311,76.589155,10799.070925
445.809293,-153.178311,0.000000,10952.249236
445.809595,229.767466,382.945777,10799.070925
445.809899,0.000000,229.767466,10799.070925
445.810203,0.000000,0.000000,10952.249236
445.810506,-153.178311,0.000000,10799.070925
445.810810,229.767466,76.589155,10952.249236
445.811113,0.000000,229.767466,10799.070925
445.811417,-306.356622,-153.178311,10799.070925
445.811720,0.000000,76.589155,10952.249236
445.812023,76.589155,76.589155,10799.070925
445.812327,-153.178311,-153.178311,10952.249236
445.812630,229.767466,229.767466,10952.249236
445.812934,0.000000,-153.178311,10952.249236
445.813237,76.589155,0.000000,10952.249236
445.813541,76.589155,76.589155,10799.070925
445.813844,76.589155,76.589155,11105.427547
445.814148,0.000000,229.767466,10799.070925
445.814451,-459.534933,382.945777,10799.070925
445.814754,76.589155,0.000000,10952.249236
445.815058,76.589155,0.000000,10799.070925
445.815361,76.589155,-153.178311,11105.427547
445.815665,0.000000,0.000000,10952.249236
445.815968,76.589155,0.000000,10952.249236
445.816272,0.000000,76.589155,10799.070925
445.816575,-306.356622,76.589155,10722.481770
445.816894,0.000000,0.000000,10722.481770
445.817195,0.000000,229.767466,10799.070925
445.817497,76.589155,229.767466,10569.303459
445.817798,-153.178311,0.000000,10799.070925
445.818100,0.000000,-153.178311,10799.070925
445.818401,-306.356622,76.589155,10952.249236
445.818702,0.000000,0.000000,10952.249236
445.819004,-459.534933,76.589155,10722.481770
445.819307,-306.356622,0.000000,10799.070925
445.819610,0.000000,76.589155,10799.070925
445.819914,-153.178311,76.589155,10799.070925
445.820217,0.000000,-153.178311,10952.249236
445.820521,0.000000,76.589155,10952.249236
445.820824,229.767466,0.000000,11105.427547
445.821128,76.589155,229.767466,10799.070925
445.821432,-153.178311,76.589155,10722.481770
445.821738,76.589155,0.000000,10799.070925
445.822041,76.589155,382.945777,11105.427547
445.822344,-153.178311,76.589155,10799.070925
445.822647,0.000000,-153.178311,11105.427547
445.822950,76.589155,229.767466,10952.249236
445.823253,0.000000,76.589155,10952.249236
445.823556,-153.178311,229.767466,10952.249236
445.823859,76.589155,229.767466,10952.249236
445.824162,-153.178311,0.000000,10799.070925
445.824466,-306.356622,76.589155,10722.481770
445.824769,-459.534933,0.000000,10952.249236
445.825073,0.000000,76.589155,10799.070925
445.825376,-153.178311,-306.356622,10952.249236
445.825680,-306.356622,0.000000,10952.249236
445.825984,0.000000,0.000000,10952.249236
445.826287,0.000000,76.589155,10722.481770
445.826590,-459.534933,76.589155,11105.427547
445.826894,-153.178311,76.589155,10799.070925
445.827197,229.767466,382.945777,10722.481770
445.827501,0.000000,229.767466,10799.070925
445.827804,-153.178311,-153.178311,10799.070925
445.828108,-153.178311,76.589155,10952.249236
445.828411,76.589155,229.767466,10952.249236
445.828715,-153.178311,0.000000,10952.249236
445.829018,-306.356622,0.000000,10952.249236
445.829321,229.767466,-153.178311,10952.249236
445.829625,76.589155,76.589155,11105.427547
445.829928,-153.178311,76.589155,10799.070925
445.830232,0.000000,0.000000,10952.249236
445.830535,382.945777,76.589155,10799.070925
445.830839,0.000000,229.767466,10799.070925
445.831142,-306.356622,0.000000,10799.070925
445.831446,0.000000,76.589155,10799.070925
445.831749,0.000000,-153.178311,10952.249236
445.832053,-306.356622,0.000000,10952.249236
445.832356,-153.178311,76.589155,10799.070925
445.832660,536.124088,76.589155,10952.249236
445.832963,0.000000,229.767466,10722.481770
445.833267,-306.356622,76.589155,10722.481770
445.833570,229.767466,229.767466,10722.481770
445.833875,76.589155,382.945777,10722.481770
445.834178,-153.178311,0.000000,10799.070925
445.834481,-153.178311,0.000000,10722.481770
445.834785,76.589155,76.589155,10952.249236
445.835088,0.000000,0.000000,10799.070925
445.835391,-153.178311,0.000000,10952.249236
445.835695,0.000000,76.589155,10952.249236
445.835998,0.000000,76.589155,10952.249236
445.836301,-306.356622,0.000000,10799.070925
445.836604,-153.178311,-153.178311,10799.070925
445.836908,0.000000,76.589155,10799.070925
445.837211,0.000000,229.767466,10722.481770
445.837515,-153.178311,0.000000,11105.427547
445.837818,-153.178311,0.000000,10799.070925
445.838122,76.589155,76.589155,10952.249236
445.838425,-153.178311,0.000000,10799.070925
445.838731,-306.356622,229.767466,10799.070925
445.839034,76.589155,76.589155,10799.070925
445.839337,76.589155,0.000000,10799.070925
445.839640,-306.356622,76.589155,10952.249236
445.839944,229.767466,0.000000,10799.070925
445.840247,0.000000,0.000000,10952.249236
445.840550,-153.178311,0.000000,11258.605858
445.840853,0.000000,229.767466,10799.070925
445.841164,382.945777,382.945777,10722.481770
445.841467,0.000000,76.589155,10722.481770
445.841769,-306.356622,76.589155,10722.481770
445.842072,76.589155,76.589155,10952.249236
445.842374,229.767466,0.000000,10952.249236
445.842676,-153.178311,0.000000,10952.249236
445.842979,-306.356622,-459.534933,11105.427547
445.843281,229.767466,76.589155,10722.481770
445.843601,0.000000,76.589155,10722.481770
445.843902,-306.356622,76.589155,10799.070925
445.844203,76.589155,76.589155,10799.070925
445.844504,229.767466,76.589155,10952.249236
445.844806,-306.356622,0.000000,10799.070925
445.845107,-459.534933,0.000000,10952.249236
445.845408,76.589155,-153.178311,11105.427547
445.845709,-153.178311,0.000000,10952.249236
445.846012,-459.534933,0.000000,10952.249236
445.846315,76.589155,229.767466,10952.249236
445.846619,382.945777,76.589155,10952.249236
445.846922,-306.356622,229.767466,10722.481770
445.847226,-306.356622,0.000000,11105.427547
445.847530,382.945777,229.767466,10799.070925
445.847833,0.000000,0.000000,10799.070925
445.848137,-153.178311,0.000000,10799.070925
445.848440,-153.178311,0.000000,10799.070925
445.848743,382.945777,76.589155,10952.249236
445.849047,-153.178311,76.589155,10722.481770
445.849350,-459.534933,-153.178311,10799.070925
445.849654,76.589155,76.589155,11105.427547
445.849957,0.000000,0.000000,10952.249236
445.850260,-459.534933,-153.178311,10799.070925
445.850564,-306.356622,76.589155,10952.249236
445.850869,229.767466,0.000000,10799.070925
445.851172,0.000000,382.945777,10799.070925
445.851475,-153.178311,229.767466,10722.481770
445.851779,382.945777,382.945777,11105.427547
445.852082,76.589155,-153.178311,10952.249236
445.852385,-153.178311,76.589155,10799.070925
445.852689,76.589155,-153.178311,10722.481770
445.852992,382.945777,0.000000,10799.070925
445.853295,-153.178311,0.000000,10799.070925
445.853599,-306.356622,76.589155,10799.070925
445.853902,229.767466,382.945777,10952.249236
445.854206,0.000000,229.767466,10952.249236
445.854509,-306.356622,-153.178311,11105.427547
445.854813,-306.356622,76.589155,10799.070925
445.855116,0.000000,0.000000,10952.249236
445.855420,-306.356622,0.000000,11105.427547
445.855730,-306.356622,76.589155,10799.070925
445.856033,0.000000,0.000000,10952.249236
445.856335,0.000000,0.000000,10952.249236
445.856637,-306.356622,0.000000,10952.249236
445.856940,-153.178311,0.000000,10799.070925
445.857242,229.767466,0.000000,10799.070925
445.857545,-153.178311,76.589155,10722.481770
445.857847,-612.713244,229.767466,11105.427547
445.858159,76.589155,76.589155,10799.070925
445.858461,76.589155,229.767466,10799.070925
445.858763,-153.178311,76.589155,10799.070925
445.859066,0.000000,229.767466,10952.249236
445.859368,229.767466,0.000000,10722.481770
445.859671,-153.178311,-306.356622,10799.070925
445.859973,-153.178311,76.589155,11105.427547
445.860275,229.767466,0.000000,10799.070925
445.860595,-153.178311,76.589155,10722.481770
445.860896,-306.356622,76.589155,10722.481770
445.861197,0.000000,0.000000,10799.070925
445.861499,76.589155,76.589155,10799.070925
445.861800,-306.356622,76.589155,10722.481770
445.862101,-306.356622,-153.178311,11105.427547
445.862402,76.589155,0.000000,10799.070925
445.862703,-153.178311,229.767466,10952.249236
445.863006,-612.713244,76.589155,10799.070925
445.863310,0.000000,229.767466,10569.303459
445.863613,76.589155,76.589155,10799.070925
445.863917,-306.356622,76.589155,10799.070925
445.864220,0.000000,76.589155,10799.070925
445.864524,229.767466,76.589155,11258.605858
445.864827,-153.178311,-153.178311,10952.249236
445.865131,-459.534933,-153.178311,10722.481770
445.865434,-153.178311,229.767466,10799.070925
445.865738,229.767466,0.000000,10722.481770
445.866041,0.000000,229.767466,10722.481770
445.866345,-153.178311,0.000000,10799.070925
445.866648,76.589155,229.767466,10799.070925
445.866952,0.000000,-153.178311,10952.249236
445.867255,-306.356622,0.000000,10799.070925
445.867559,0.000000,0.000000,10799.070925
445.867874,0.000000,76.589155,10722.481770
445.868176,-153.178311,0.000000,10722.481770
445.868477,-306.356622,229.767466,10799.070925
445.868779,76.589155,382.945777,10722.481770
445.869081,76.589155,0.000000,10799.070925
445.869383,-306.356622,-153.178311,10799.070925
445.869685,-153.178311,-153.178311,10952.249236
445.869986,0.000000,76.589155,10952.249236
445.870290,0.000000,76.589155,10952.249236
445.870593,-459.534933,-153.178311,10799.070925
445.870897,229.767466,76.589155,10722.481770
445.871200,229.767466,76.589155,10799.070925
445.871504,-306.356622,0.000000,10952.249236
445.871807,76.589155,0.000000,10952.249236
445.872111,229.767466,229.767466,10799.070925
445.872414,0.000000,76.589155,10952.249236
445.872718,-306.356622,76.589155,10799.070925
445.873021,229.767466,229.767466,10799.070925
445.873325,76.589155,0.000000,10952.249236
445.873628,-306.356622,0.000000,10799.070925
445.873931,-153.178311,76.589155,11105.427547
445.874235,76.589155,0.000000,10952.249236
445.874538,-306.356622,-153.178311,11105.427547
445.874841,-612.713244,0.000000,10799.070925
445.875153,0.000000,76.589155,10799.070925
445.875455,76.589155,76.589155,10799.070925
445.875758,-612.713244,76.589155,10569.303459
445.876060,-153.178311,0.000000,10722.481770
445.876363,76.589155,76.589155,10799.070925
445.876665,0.000000,0.000000,10952.249236
445.876967,-306.356622,-306.356622,10952.249236
445.877270,76.589155,76.589155,10952.249236
445.877596,0.000000,229.767466,10722.481770
445.877896,-153.178311,229.767466,10799.070925
445.878196,0.000000,229.767466,10569.303459
445.878496,76.589155,-153.178311,10799.070925
445.878797,76.589155,76.589155,10799.070925
445.879097,-306.356622,-153.178311,10952.249236
445.879397,0.000000,-153.178311,10952.249236
445.879697,0.000000,-153.178311,11258.605858
445.880001,-153.178311,0.000000,10952.249236
445.880304,0.000000,0.000000,10799.070925
445.880608,-153.178311,0.000000,10952.249236
445.880911,0.000000,0.000000,10952.249236
445.881215,-306.356622,0.000000,10722.481770
445.881518,0.000000,0.000000,10799.070925
445.881822,229.767466,-153.178311,10952.249236
445.882125,0.000000,0.000000,10799.070925
445.882428,0.000000,76.589155,10799.070925
445.882732,-306.356622,229.767466,10722.481770
445.883035,76.589155,0.000000,10952.249236
445.883339,0.000000,76.589155,10722.481770
445.883642,-153.178311,76.589155,10799.070925
445.883946,76.589155,76.589155,11105.427547
445.884249,76.589155,-153.178311,10799.070925
445.884553,0.000000,229.767466,10722.481770
445.884857,0.000000,76.589155,10952.249236
445.885160,0.000000,76.589155,10799.070925
445.885464,0.000000,0.000000,10952.249236
445.885767,-153.178311,0.000000,10799.070925
445.886070,-153.178311,0.000000,10799.070925
445.886374,0.000000,-306.356622,10799.070925
445.886677,0.000000,-306.356622,10799.070925
445.886981,-153.178311,76.589155,10799.070925
445.887283,0.000000,76.589155,11105.427547
445.887587,-306.356622,0.000000,10799.070925
445.887890,-306.356622,76.589155,10799.070925
445.888194,76.589155,76.589155,10799.070925
445.888497,76.589155,76.589155,10952.249236
445.888801,-306.356622,0.000000,10952.249236
445.889104,76.589155,-153.178311,11105.427547
445.889408,76.589155,0.000000,11105.427547
445.889711,0.000000,229.767466,10799.070925
445.890015,-153.178311,0.000000,10799.070925
445.890318,0.000000,229.767466,10722.481770
445.890621,229.767466,76.589155,10799.070925
445.890925,-153.178311,-306.356622,10952.249236
445.891228,0.000000,0.000000,10799.070925
445.891532,76.589155,-153.178311,10799.070925
445.891835,-153.178311,0.000000,10799.070925
445.892154,-459.534933,76.589155,10952.249236
445.892455,0.000000,76.589155,10799.070925
445.892756,229.767466,76.589155,10722.481770
445.893058,-306.356622,76.589155,10952.249236
445.893359,-306.356622,0.000000,10952.249236
445.893661,76.589155,76.589155,10952.249236
445.893962,0.000000,76.589155,10799.070925
445.894264,-306.356622,0.000000,11105.427547
445.894589,0.000000,76.589155,10952.249236
445.894890,-153.178311,382.945777,10799.070925
445.895190,-306.356622,229.767466,10722.481770
445.895490,-153.178311,76.589155,10952.249236
445.895791,229.767466,76.589155,10952.249236
445.896091,76.589155,76.589155,10952.249236
445.896391,-306.356622,-153.178311,11105.427547
445.896691,76.589155,76.589155,11105.427547
445.897001,76.589155,76.589155,10952.249236
445.897303,-153.178311,-306.356622,10722.481770
445.897606,-153.178311,76.589155,10722.481770
445.897909,229.767466,76.589155,10952.249236
445.898211,0.000000,229.767466,10799.070925
445.898514,-306.356622,0.000000,11105.427547
445.898816,-153.178311,76.589155,10799.070925
445.899119,-153.178311,229.767466,10952.249236
445.899422,-153.178311,76.589155,10799.070925
445.899726,76.589155,-765.891555,10952.249236
445.900029,-153.178311,-765.891555,10952.249236
445.900333,0.000000,0.000000,10952.249236
445.900637,0.000000,0.000000,10416.125148
445.900940,-153.178311,-612.713244,10799.070925
445.901244,-612.713244,-1378.604799,11105.427547
445.901548,689.302399,-459.534933,10952.249236
445.901852,-153.178311,-1072.248177,10569.303459
445.902155,-459.534933,-765.891555,11411.784169
445.902458,382.945777,-919.069866,10722.481770
445.902762,382.945777,-1072.248177,10952.249236
445.903065,-919.069866,-1378.604799,10952.249236
445.903368,995.659021,-1378.604799,10799.070925
445.903671,-153.178311,-2374.263820,11411.784169
445.903975,-306.356622,-1684.961421,10722.481770
445.904278,-153.178311,-2374.263820,10799.070925
445.904582,-306.356622,-2680.620442,11258.605858
445.904885,-459.534933,-2221.085509,10952.249236
445.905189,-765.891555,-3293.333686,11105.427547
445.905492,-306.356622,-2833.798753,10799.070925
445.905796,0.000000,-3446.511997,10952.249236
445.906099,-765.891555,-3140.155375,10952.249236
445.906403,-919.069866,-2374.263820,10722.481770
445.906706,842.480710,-2986.977064,10952.249236
445.907009,0.000000,-2986.977064,11105.427547
445.907313,995.659021,-2067.907198,10569.303459
445.907616,382.945777,-3140.155375,11258.605858
445.907920,382.945777,-1838.139732,10799.070925
445.908223,689.302399,-2067.907198,10722.481770
445.908527,382.945777,-2221.085509,11105.427547
445.908831,-153.178311,-1838.139732,10262.946837
445.909147,-153.178311,-2527.442131,10722.481770
445.909449,-306.356622,-2374.263820,10799.070925
445.909751,-765.891555,-1914.728887,10569.303459
445.910052,-612.713244,-2680.620442,10952.249236
445.910354,-153.178311,-2221.085509,10799.070925
445.910655,0.000000,-1684.961421,10722.481770
445.910957,0.000000,-2527.442131,11105.427547
445.911258,689.302399,-1838.139732,10952.249236
445.911577,536.124088,-2680.620442,11105.427547
445.911878,-612.713244,-2374.263820,10952.249236
445.912180,-459.534933,-2374.263820,10799.070925
445.912481,1302.015643,-2986.977064,11411.784169
445.912782,-153.178311,-2986.977064,11258.605858
445.913083,-765.891555,-1914.728887,10952.249236
445.913385,0.000000,-2067.907198,11258.605858
445.913686,76.589155,-1225.426488,11258.605858
445.913995,76.589155,-765.891555,10799.070925
445.914298,-919.069866,0.000000,10722.481770
445.914600,-306.356622,536.124088,10416.125148
445.914903,536.124088,76.589155,10722.481770
445.915206,382.945777,-153.178311,10569.303459
445.915508,-765.891555,0.000000,10416.125148
445.915811,-765.891555,0.000000,10262.946837
445.916114,689.302399,-1378.604799,10569.303459
445.916417,0.000000,-2221.085509,10799.070925
445.916720,-765.891555,-3140.155375,10952.249236
445.917023,-306.356622,-3599.690308,11258.605858
445.917327,76.589155,-2833.798753,11411.784169
445.917630,536.124088,-1838.139732,11564.962480
445.917934,-306.356622,-153.178311,11105.427547
445.918237,229.767466,1302.015643,10722.481770
445.918541,995.659021,1148.837332,10952.249236
445.918850,-765.891555,1838.139732,10262.946837
445.919153,-153.178311,1838.139732,9956.590215
445.919456,2144.496354,1148.837332,10262.946837
445.919758,76.589155,76.589155,9803.411904
445.920061,-1914.728887,-2067.907198,10416.125148
445.920364,-2221.085509,-3446.511997,10952.249236
445.920666,1302.015643,-3599.690308,11258.605858
445.920969,-153.178311,-4901.705952,12177.675724
445.921272,-3523.101153,-2680.620442,11564.962480
445.921576,-153.178311,-1531.783110,11564.962480
445.921879,76.589155,-919.069866,11564.962480
445.922183,-306.356622,689.302399,10799.070925
445.922486,1684.961421,842.480710,10799.070925
445.922790,3140.155375,3216.744531,10262.946837
445.923093,2297.674665,2604.031287,9803.411904
445.923397,842.480710,1991.318043,10109.768526
445.923703,-1378.604799,995.659021,9803.411904
445.924006,1148.837332,0.000000,10416.125148
445.924309,842.480710,-2833.798753,11411.784169
445.924612,-1914.728887,-3982.636086,11411.784169
445.924915,-1914.728887,-5514.419196,12330.854035
445.925218,-2221.085509,-5667.597507,12024.497413
445.925521,-1608.372265,-3599.690308,11871.319102
445.925825,1148.837332,-919.069866,11564.962480
445.926130,-1608.372265,1838.139732,10109.768526
445.926433,-2680.620442,2757.209598,9956.590215
445.926736,1531.783110,2910.387909,9650.233593
445.927040,382.945777,1838.139732,9650.233593
445.927343,-612.713244,382.945777,10109.768526
445.927646,2604.031287,-1225.426488,10952.249236
445.927949,3906.046930,-2374.263820,11718.140791
445.928252,1991.318043,-3599.690308,12024.497413
445.928571,-2680.620442,-3293.333686,11105.427547
445.928872,3063.566220,-2374.263820,10952.249236
445.929174,3063.566220,-3829.457775,11718.140791
445.929475,-2221.085509,-4901.705952,11258.605858
445.929776,-2986.977064,-5361.240885,11564.962480
445.930078,-2221.085509,-5667.597507,11258.605858
445.930379,-1608.372265,-2374.263820,11258.605858
445.930680,842.480710,-765.891555,10262.946837
445.930989,-3829.457775,382.945777,9343.876971
445.931292,-3140.155375,-459.534933,9803.411904
445.931595,-306.356622,-2067.907198,10722.481770
445.931897,536.124088,-2680.620442,10799.070925
445.932200,2910.387909,-2986.977064,11411.784169
445.932503,4901.705952,-2527.442131,11411.784169
445.932805,3599.690308,-2067.907198,10952.249236
445.933108,-2527.442131,-2680.620442,10569.303459
445.933411,4365.581863,-765.891555,11105.427547
445.933714,1991.318043,-3752.868619,10952.249236
445.934018,-2833.798753,-3752.868619,11105.427547
445.934321,-3140.155375,-3982.636086,10569.303459
445.934625,-4135.814397,-1531.783110,10109.768526
445.934929,-2986.977064,-459.534933,9956.590215
445.935232,-765.891555,-306.356622,10722.481770
445.935536,-7352.558928,-2986.977064,10416.125148
445.935839,-2067.907198,-3982.636086,12024.497413
445.936142,4365.581863,-3140.155375,12177.675724
445.936446,3906.046930,-459.534933,11258.605858
445.936749,3140.155375,229.767466,11258.605858
445.937053,6510.078217,1455.193954,11105.427547
445.937356,4671.938485,-765.891555,10722.481770
445.937660,4365.581863,-2527.442131,11411.784169
445.937963,-2374.263820,-2374.263820,10416.125148
445.938266,-4671.938485,-2680.620442,10569.303459
445.938570,-2527.442131,-1838.139732,11105.427547
445.938873,-7505.737239,-1684.961421,9343.876971
445.939177,-3829.457775,-3140.155375,10799.070925
445.939481,-3676.279464,-5361.240885,11718.140791
445.939784,-153.178311,-1378.604799,11258.605858
445.940088,842.480710,-2680.620442,11871.319102
445.940391,995.659021,-459.534933,10799.070925
445.940696,6816.434839,-459.534933,10952.249236
445.940999,7735.504705,-1838.139732,12330.854035
445.941303,-306.356622,1761.550576,9956.590215
445.941606,1531.783110,1991.318043,9650.233593
445.941909,3140.155375,842.480710,9956.590215
445.942212,-1761.550576,-612.713244,9956.590215
445.942516,-2374.263820,-1531.783110,10722.481770
445.942819,-1072.248177,-1072.248177,10952.249236
445.943141,-2527.442131,76.589155,10416.125148
445.943442,-6893.023995,-4442.171019,11564.962480
445.943743,-2986.977064,-2833.798753,11258.605858
445.944043,-4442.171019,-5361.240885,10569.303459
445.944344,-2374.263820,-4595.349330,12024.497413
445.944645,-306.356622,-2986.977064,10569.303459
445.944946,4748.527641,-765.891555,11105.427547
445.945246,8271.628794,-765.891555,11411.784169
445.945554,6510.078217,1302.015643,10952.249236
445.945857,1302.015643,1148.837332,10799.070925
445.946160,5054.884263,4365.581863,10109.768526
445.946463,-306.356622,1148.837332,9343.876971
445.946766,-6050.543284,-1838.139732,10722.481770
445.947068,-5437.830040,-1914.728887,11105.427547
445.947371,-2986.977064,689.302399,9650.233593
445.947674,-2221.085509,-1378.604799,10569.303459
445.947990,-5437.830040,-3293.333686,10799.070925
445.948291,1455.193954,-3829.457775,12024.497413
445.948593,4365.581863,-4135.814397,12330.854035
445.948895,4901.705952,-1072.248177,11411.784169
445.949197,-612.713244,-2680.620442,11105.427547
445.949499,-1225.426488,-919.069866,11105.427547
445.949800,995.659021,-1378.604799,10799.070925
445.950102,-1761.550576,1761.550576,9956.590215
445.950405,-1378.604799,536.124088,10109.768526
445.950709,2757.209598,-459.534933,10722.481770
445.951012,2450.852976,-765.891555,12024.497413
445.951316,-2221.085509,-612.713244,11411.784169
445.951619,-1531.783110,-765.891555,10416.125148
445.951923,995.659021,-5361.240885,11718.140791
445.952226,-1225.426488,-4901.705952,12024.497413
445.952530,-3676.279464,-2067.907198,10952.249236
445.952833,229.767466,76.589155,9497.055282
445.953137,4059.225241,-765.891555,10416.125148
445.953440,1148.837332,-306.356622,10722.481770
445.953744,4212.403552,2604.031287,10799.070925
445.954047,382.945777,1148.837332,9803.411904
445.954351,-4595.349330,-2527.442131,10262.946837
445.954654,-4825.116796,-5514.419196,12407.443191
445.954958,1531.783110,-1531.783110,10416.125148
445.955261,-5437.830040,-1378.604799,9650.233593
445.955564,-6203.721595,-3140.155375,10799.070925
445.955868,3293.333686,-2067.907198,12177.675724
445.956171,4901.705952,0.000000,11871.319102
445.956475,3906.046930,4518.760174,10569.303459
445.956778,5514.419196,1302.015643,10569.303459
445.957082,-1225.426488,-1072.248177,11411.784169
445.957385,-919.069866,229.767466,11258.605858
445.957692,-1531.783110,3216.744531,9114.109504
445.957995,-2527.442131,1302.015643,9650.233593
445.958298,-1761.550576,-612.713244,11258.605858
445.958601,1148.837332,229.767466,12024.497413
445.958904,1838.139732,1761.550576,11105.427547
445.959207,-2527.442131,-1378.604799,10952.249236
445.959510,-4135.814397,-3982.636086,12024.497413
445.959813,-3140.155375,-4288.992708,12560.621502
445.960136,229.767466,-153.178311,11258.605858
445.960436,-765.891555,689.302399,9650.233593
445.960737,1531.783110,1608.372265,11105.427547
445.961038,6663.256528,1148.837332,12024.497413
445.961339,3063.566220,7352.558928,10799.070925
445.961639,3063.566220,6127.132440,9114.109504
445.961940,1684.961421,2604.031287,10799.070925
445.962241,-4825.116796,-1225.426488,11258.605858
445.962548,-4595.349330,995.659021,11105.427547
445.962851,-5131.473418,-459.534933,9267.287815
445.963154,1148.837332,689.302399,10262.946837
445.963457,-1225.426488,-3140.155375,12024.497413
445.963759,689.302399,1761.550576,11564.962480
445.964062,2757.209598,1302.015643,10416.125148
445.964365,-153.178311,-153.178311,10262.946837
445.964668,-919.069866,-2986.977064,11871.319102
445.964978,0.000000,-2527.442131,12177.675724
445.965280,995.659021,1608.372265,9956.590215
445.965583,1148.837332,-1072.248177,10722.481770
445.965886,2144.496354,229.767466,12177.675724
445.966188,2910.387909,5131.473418,10722.481770
445.966491,0.000000,7505.737239,8654.574571
445.966794,-1914.728887,3063.566220,9803.411904
445.967096,-2986.977064,-1531.783110,11564.962480
445.967399,-1072.248177,-3293.333686,12407.443191
445.967703,-3216.744531,0.000000,10722.481770
445.968006,-3216.744531,-765.891555,9343.876971
445.968310,1455.193954,-2833.798753,12407.443191
445.968613,3063.566220,-306.356622,12024.497413
445.968917,1455.193954,3523.101153,10416.125148
445.969220,76.589155,229.767466,10109.768526
445.969524,1455.193954,-1378.604799,11411.784169
445.969834,-919.069866,-3752.868619,12866.978124
445.970137,-765.891555,1302.015643,11411.784169
445.970439,-1072.248177,229.767466,9956.590215
445.970742,382.945777,-306.356622,11411.784169
445.971044,1684.961421,536.124088,12177.675724
445.971347,-306.356622,6739.845684,9343.876971
445.971649,229.767466,4825.116796,8654.574571
445.971952,0.000000,0.000000,10569.303459
445.972255,-2221.085509,-2680.620442,12330.854035
445.972558,-2374.263820,-1225.426488,10952.249236
445.972862,-306.356622,-306.356622,9956.590215
445.973165,-459.534933,-3140.155375,10722.481770
445.973469,842.480710,-2374.263820,12024.497413
445.973772,995.659021,1761.550576,10569.303459
445.974076,0.000000,1991.318043,8960.931193
445.974379,-2680.620442,-2833.798753,10799.070925
445.974685,842.480710,-4595.349330,12330.854035
445.974988,382.945777,-3140.155375,12024.497413
445.975291,-4288.992708,-1531.783110,10262.946837
445.975594,-1072.248177,-2374.263820,10722.481770
445.975897,1455.193954,-3599.690308,12407.443191
445.976201,4365.581863,1302.015643,11258.605858
445.976504,3906.046930,3216.744531,9497.055282
445.976807,-1072.248177,2297.674665,9114.109504
445.977129,536.124088,-2067.907198,11105.427547
445.977430,-1072.248177,-2986.977064,11871.319102
445.977730,-2986.977064,-1072.248177,10262.946837
445.978031,-306.356622,-2067.907198,10569.303459
445.978332,-1072.248177,-3140.155375,11258.605858
445.978633,382.945777,0.000000,10952.249236
445.978934,76.589155,995.659021,10262.946837
445.979234,1148.837332,689.302399,10109.768526
445.979547,-2986.977064,-2986.977064,10952.249236
445.979850,-919.069866,-3293.333686,12024.497413
445.980152,842.480710,-1378.604799,10952.249236
445.980454,0.000000,-765.891555,10569.303459
445.980756,1838.139732,-1531.783110,11411.784169
445.981058,2144.496354,536.124088,11564.962480
445.981360,1148.837332,5437.830040,9650.233593
445.981662,3063.566220,4978.295107,9650.233593
445.981971,-306.356622,3676.279464,9343.876971
445.982274,-3982.636086,-1914.728887,11564.962480
445.982576,-3140.155375,229.767466,11871.319102
445.982879,-3216.744531,689.302399,9956.590215
445.983182,-459.534933,-1378.604799,11718.140791
445.983485,-306.356622,-459.534933,11258.605858
445.983787,382.945777,2910.387909,10722.481770
445.984090,1302.015643,1838.139732,10722.481770
445.984393,-612.713244,842.480710,10262.946837
445.984696,-1914.728887,-2527.442131,12177.675724
445.985000,1148.837332,-1531.783110,12866.978124
445.985303,2910.387909,1148.837332,10416.125148
445.985607,-2527.442131,-1531.783110,11871.319102
445.985910,229.767466,-153.178311,12024.497413
445.986214,5054.884263,4671.938485,10799.070925
445.986518,1148.837332,5973.954129,8960.931193
445.986828,-2833.798753,3523.101153,9267.287815
445.987131,-2986.977064,76.589155,10799.070925
445.987433,-306.356622,995.659021,11411.784169
445.987736,-765.891555,1302.015643,10416.125148
445.988038,-4135.814397,-1225.426488,10416.125148
445.988340,536.124088,-2067.907198,11564.962480
445.988643,3446.511997,-306.356622,11105.427547
445.988945,-153.178311,2910.387909,9343.876971
445.989248,-2680.620442,-153.178311,9956.590215
445.989552,1531.783110,-1914.728887,11411.784169
445.989855,2604.031287,-2986.977064,12560.621502
445.990159,-1761.550576,76.589155,10952.249236
445.990462,-1072.248177,-306.356622,10262.946837
445.990766,2144.496354,-612.713244,11564.962480
445.991069,536.124088,842.480710,11258.605858
445.991373,1455.193954,6739.845684,8807.752882
445.991676,-2067.907198,2910.387909,8654.574571
445.991979,-153.178311,0.000000,10799.070925
445.992283,76.589155,-2680.620442,12407.443191
445.992587,-1531.783110,-153.178311,11411.784169
445.992890,-1608.372265,-459.534933,10722.481770
445.993194,229.767466,-2680.620442,11564.962480
445.993497,76.589155,-2067.907198,12560.621502
445.993801,842.480710,2757.209598,10416.125148
445.994123,-306.356622,3676.279464,8807.752882
445.994424,-2680.620442,229.767466,10262.946837
445.994725,2144.496354,-2221.085509,12330.854035
445.995025,-765.891555,-1838.139732,12330.854035
445.995326,-1914.728887,-153.178311,10569.303459
445.995627,1148.837332,-2067.907198,11258.605858
445.995928,1148.837332,-1914.728887,12177.675724
445.996228,1302.015643,2757.209598,11258.605858
445.996542,-765.891555,5973.954129,8348.217949
445.996844,689.302399,2910.387909,9114.109504
445.997146,-612.713244,-2833.798753,11871.319102
445.997448,-3140.155375,-1684.961421,11871.319102
445.997750,-1761.550576,76.589155,10952.249236
445.998052,-612.713244,-1378.604799,10262.946837
445.998354,-306.356622,-2067.907198,11718.140791
445.998656,382.945777,-612.713244,11258.605858
445.998971,842.480710,4671.938485,8807.752882
445.999273,-919.069866,689.302399,8960.931193
445.999575,-1914.728887,-3446.511997,11718.140791
445.999877,76.589155,-4288.992708,12713.799813
446.000179,229.767466,-1378.604799,11564.962480
446.000480,995.659021,-1914.728887,10952.249236
446.000782,2144.496354,-2680.620442,12024.497413
446.001084,1455.193954,-306.356622,12024.497413
446.001387,0.000000,4978.295107,9114.109504
446.001690,2604.031287,4978.295107,7888.683016
446.001994,76.589155,-1072.248177,10952.249236
446.002297,-2833.798753,-3752.868619,11871.319102
446.002601,-2067.907198,-919.069866,11718.140791
446.002904,0.000000,0.000000,10262.946837
446.003208,0.000000,-1072.248177,10799.070925
446.003512,-1225.426488,-1684.961421,11718.140791
446.003822,1838.139732,2450.852976,10416.125148
446.004125,842.480710,2144.496354,9497.055282
446.004427,-1378.604799,-1072.248177,10569.303459
446.004730,-919.069866,-4748.527641,12407.443191
446.005032,1455.193954,-1225.426488,12024.497413
446.005334,-306.356622,-306.356622,10569.303459
446.005637,-2067.907198,-1225.426488,11105.427547
446.005939,1302.015643,-1378.604799,12024.497413
446.006243,2910.387909,3523.101153,10722.481770
446.006546,-919.069866,4978.295107,8348.217949
446.006850,-459.534933,1761.550576,9803.411904
446.007153,-1914.728887,-1072.248177,11258.605858
446.007457,382.945777,842.480710,11718.140791
446.007760,-1225.426488,1991.318043,10722.481770
446.008064,-2067.907198,1148.837332,9956.590215
446.008367,-306.356622,-1838.139732,12177.675724
446.008670,2144.496354,1455.193954,11718.140791
446.008974,382.945777,4978.295107,9114.109504
446.009277,-306.356622,2297.674665,9650.233593
446.009581,-1378.604799,-1072.248177,11411.784169
446.009884,536.124088,-1838.139732,12177.675724
446.010188,-1225.426488,-1914.728887,12713.799813
446.010491,-1914.728887,382.945777,11105.427547
446.010795,76.589155,-612.713244,11411.784169
446.011117,2144.496354,1148.837332,12330.854035
446.011418,1991.318043,7582.326394,8807.752882
446.011719,229.767466,5437.830040,8195.039638
446.012020,-2374.263820,536.124088,10722.481770
446.012320,-153.178311,-1838.139732,12560.621502
446.012621,-153.178311,536.124088,11411.784169
446.012922,-1761.550576,76.589155,9956.590215
446.013223,0.000000,-1225.426488,10952.249236
446.013531,1531.783110,-459.534933,11871.319102
446.013834,1684.961421,3676.279464,10416.125148
446.014137,-1225.426488,3369.922842,8348.217949
446.014439,-2221.085509,-1225.426488,10262.946837
446.014742,1684.961421,-4288.992708,12560.621502
446.015045,-1378.604799,-2221.085509,11718.140791
446.015348,-1378.604799,-1072.248177,10569.303459
446.015650,1531.783110,-1378.604799,11411.784169
446.015966,2144.496354,-1838.139732,11871.319102
446.016267,1991.318043,2757.209598,11105.427547
446.016569,-306.356622,4518.760174,8195.039638
446.016871,76.589155,2450.852976,9114.109504
446.017173,-306.356622,-3140.155375,12330.854035
446.017474,-2527.442131,0.000000,11564.962480
446.017776,-1531.783110,229.767466,10722.481770
446.018078,0.000000,-1072.248177,10799.070925
446.018381,-1072.248177,-1684.961421,11411.784169
446.018685,-306.356622,-612.713244,12330.854035
446.018988,1148.837332,4518.760174,9267.287815
446.019292,0.000000,1608.372265,9114.109504
446.019595,-765.891555,-2986.977064,11871.319102
446.019899,-1378.604799,-2374.263820,12330.854035
446.020202,842.480710,-153.178311,11258.605858
446.020506,1838.139732,-1072.248177,11105.427547
446.020817,995.659021,-1838.139732,11564.962480
446.021119,76.589155,76.589155,12024.497413
446.021422,1531.783110,5973.954129,9267.287815
446.021724,3063.566220,4365.581863,8654.574571
446.022026,-612.713244,-1072.248177,10952.249236
446.022329,-4135.814397,-1838.139732,11564.962480
446.022631,-1531.783110,382.945777,10952.249236
446.022934,0.000000,-306.356622,10262.946837
446.023236,-1225.426488,-2527.442131,11411.784169
446.023540,-1378.604799,-1838.139732,12177.675724
446.023844,1838.139732,3369.922842,10109.768526
446.024147,-153.178311,2604.031287,9114.109504
446.024451,-2067.907198,-765.891555,10416.125148
446.024754,-1378.604799,-3446.511997,11871.319102
446.025058,1455.193954,-1684.961421,12024.497413
446.025361,842.480710,-1378.604799,10952.249236
446.025667,-765.891555,-2986.977064,11564.962480
446.025970,76.589155,-2221.085509,12177.675724
446.026273,2604.031287,2757.209598,10799.070925
446.026576,995.659021,4671.938485,8807.752882
446.026880,-1761.550576,1148.837332,9343.876971
446.027183,76.589155,-2527.442131,12024.497413
446.027486,1455.193954,-1225.426488,12407.443191
446.027789,-2221.085509,536.124088,10416.125148
446.028105,-2067.907198,-612.713244,10416.125148
446.028407,1455.193954,-612.713244,11411.784169
446.028708,2144.496354,1148.837332,10952.249236
446.029010,536.124088,3063.566220,9956.590215
446.029312,-1378.604799,1302.015643,9267.287815
446.029613,842.480710,-3140.155375,11411.784169
446.029915,-1378.604799,-4288.992708,12866.978124
446.030217,-1072.248177,-612.713244,11411.784169
446.030525,382.945777,-1072.248177,10722.481770
446.030828,229.767466,-765.891555,11411.784169
446.031131,1302.015643,536.124088,11871.319102
446.031433,3599.690308,4978.295107,10109.768526
446.031736,-765.891555,3906.046930,8807.752882
446.032039,-2680.620442,689.302399,10569.303459
446.032342,1148.837332,-306.356622,11564.962480
446.032644,-765.891555,1302.015643,10952.249236
446.032960,-2833.798753,1302.015643,10799.070925
446.033262,382.945777,-153.178311,10262.946837
446.033563,2604.031287,-1072.248177,12330.854035
446.033865,995.659021,2604.031287,10799.070925
446.034167,-306.356622,4365.581863,8807.752882
446.034469,-2067.907198,-153.178311,10109.768526
446.034770,1148.837332,-1378.604799,12024.497413
446.035072,689.302399,-2374.263820,12177.675724
446.035375,-2680.620442,-1072.248177,11564.962480
446.035679,229.767466,-459.534933,10952.249236
446.035982,2297.674665,-919.069866,11564.962480
446.036286,2297.674665,4825.116796,10952.249236
446.036589,-2374.263820,4978.295107,8654.574571
446.036893,842.480710,2757.209598,9803.411904
446.037196,382.945777,-2527.442131,12177.675724
446.037500,-1531.783110,-306.356622,11718.140791
446.037805,-3140.155375,382.945777,10722.481770
446.038108,-612.713244,-612.713244,10799.070925
446.038412,1302.015643,-1225.426488,12024.497413
446.038715,229.767466,76.589155,11718.140791
446.039018,382.945777,3752.868619,9343.876971
446.039321,842.480710,76.589155,9497.055282
446.039624,382.945777,-2527.442131,11871.319102
446.039927,-1608.372265,-1838.139732,12024.497413
446.040242,536.124088,689.302399,10416.125148
446.040544,1148.837332,-2221.085509,11411.784169
446.040846,1148.837332,-1838.139732,12024.497413
446.041148,1302.015643,995.659021,11105.427547
446.041450,1148.837332,5437.830040,9267.287815
446.041752,0.000000,3676.279464,8348.217949
446.042054,0.000000,-1072.248177,11105.427547
446.042356,-3676.279464,-2527.442131,11718.140791
446.042658,-1531.783110,689.302399,10799.070925
446.042962,1302.015643,-1072.248177,10799.070925
446.043266,-1378.604799,-2067.907198,11258.605858
446.043569,-1072.248177,-1684.961421,11718.140791
446.043873,2297.674665,2450.852976,10416.125148
446.044176,536.124088,2144.496354,9267.287815
446.044480,-1914.728887,-919.069866,10569.303459
446.044783,536.124088,-2374.263820,12024.497413
446.045086,1455.193954,-1072.248177,11411.784169
446.045390,-1531.783110,-1225.426488,11258.605858
446.045693,-306.356622,-1531.783110,11105.427547
446.045997,1531.783110,-1531.783110,12024.497413
446.046300,2757.209598,1761.550576,11105.427547
446.046604,-1608.372265,3216.744531,8960.931193
446.046908,-153.178311,76.589155,10109.768526
446.047211,842.480710,-2221.085509,12024.497413
446.047514,-2374.263820,0.000000,10799.070925
446.047817,-2527.442131,76.589155,10799.070925
446.048121,76.589155,-306.356622,10722.481770
446.048424,995.659021,-1225.426488,11105.427547
446.048728,-612.713244,-765.891555,11871.319102
446.049031,1302.015643,3523.101153,9343.876971
446.049335,-612.713244,-612.713244,9650.233593
446.049638,-1225.426488,-3599.690308,12177.675724
446.049954,229.767466,-2986.977064,11718.140791
446.050256,-1378.604799,-1684.961421,11105.427547
446.050557,-306.356622,-1914.728887,10952.249236
446.050859,689.302399,-2374.263820,11564.962480
446.051161,1455.193954,76.589155,11871.319102
446.051463,1838.139732,4212.403552,9343.876971
446.051765,382.945777,3906.046930,8501.396260
446.052067,-459.534933,-919.069866,10799.070925
446.052370,-459.534933,-1684.961421,11564.962480
446.052673,-2221.085509,382.945777,10569.303459
446.052977,-919.069866,-459.534933,10569.303459
446.053280,689.302399,-1914.728887,11258.605858
446.053584,536.124088,-1378.604799,12177.675724
446.053887,382.945777,2144.496354,10569.303459
446.054191,536.124088,2297.674665,9343.876971
446.054494,689.302399,-2067.907198,11258.605858
446.054797,-1608.372265,-2680.620442,12024.497413
446.055101,-1225.426488,-919.069866,11411.784169
446.055404,0.000000,-1225.426488,11105.427547
446.055708,536.124088,-1225.426488,11411.784169
446.056011,1455.193954,-459.534933,11871.319102
446.056315,2450.852976,3523.101153,10799.070925
446.056618,229.767466,4212.403552,8654.574571
446.056922,842.480710,689.302399,10569.303459
446.057238,-1225.426488,-1378.604799,11718.140791
446.057539,-3982.636086,1148.837332,10416.125148
446.057841,-1761.550576,76.589155,10569.303459
446.058143,1455.193954,-1838.139732,11258.605858
446.058445,0.000000,-1838.139732,12177.675724
446.058746,0.000000,842.480710,11411.784169
446.059048,1148.837332,3906.046930,9267.287815
446.059350,842.480710,689.302399,10109.768526
446.059653,-1608.372265,-612.713244,11105.427547
446.059956,-306.356622,536.124088,10569.303459
446.060260,689.302399,76.589155,10799.070925
446.060563,229.767466,-1914.728887,11564.962480
446.060867,-306.356622,-1225.426488,11871.319102
446.061170,1148.837332,2604.031287,10952.249236
446.061474,1148.837332,4825.116796,9497.055282
446.061778,995.659021,3216.744531,9497.055282
446.062081,-1608.372265,-306.356622,10569.303459
446.062384,-3216.744531,-459.534933,11105.427547
446.062688,-612.713244,689.302399,10799.070925
446.062991,536.124088,689.302399,10722.481770
446.063295,-2680.620442,-1225.426488,11411.784169
446.063598,536.124088,-1225.426488,12024.497413
446.063902,3293.333686,1991.318043,10799.070925
446.064205,-919.069866,1991.318043,9267.287815
446.064508,-2374.263820,-612.713244,10722.481770
446.064812,1684.961421,-1914.728887,12024.497413
446.065115,229.767466,-765.891555,11564.962480
446.065419,-1608.372265,-1072.248177,10722.481770
446.065722,76.589155,-1914.728887,11411.784169
446.066026,842.480710,-2067.907198,12330.854035
446.066329,1991.318043,2144.496354,10952.249236
446.066633,-153.178311,3752.868619,8501.396260
446.066944,-765.891555,1148.837332,9956.590215
446.067246,76.589155,-1914.728887,11411.784169
446.067548,-306.356622,382.945777,11258.605858
446.067851,-2221.085509,229.767466,10416.125148
446.068153,-612.713244,-1838.139732,10722.481770
446.068456,1455.193954,-2374.263820,12407.443191
446.068758,1148.837332,995.659021,10952.249236
446.069061,995.659021,3676.279464,9114.109504
446.069364,-2527.442131,229.767466,9497.055282
446.069667,689.302399,-2374.263820,11258.605858
446.069971,0.000000,-2986.977064,11871.319102
446.070274,-2374.263820,-459.534933,10262.946837
446.070578,536.124088,-2221.085509,11258.605858
446.070881,382.945777,-2833.798753,12330.854035
446.071185,1455.193954,1608.372265,11411.784169
446.071488,995.659021,3216.744531,9650.233593
446.071794,0.000000,3216.744531,8807.752882
446.072097,229.767466,0.000000,10416.125148
446.072400,-2680.620442,-1838.139732,12024.497413
446.072703,-2374.263820,229.767466,10569.303459
446.073007,1684.961421,-1838.139732,11105.427547
446.073310,-306.356622,-3293.333686,12407.443191
446.073613,-1072.248177,-765.891555,11718.140791
446.073916,2144.496354,1761.550576,10569.303459
446.074224,842.480710,2144.496354,9343.876971
446.074527,-1608.372265,-919.069866,10569.303459
446.074830,-765.891555,-2374.263820,12407.443191
446.075133,-765.891555,-306.356622,10952.249236
446.075435,-919.069866,-612.713244,10722.481770
446.075738,842.480710,-2221.085509,11718.140791
446.076041,842.480710,-306.356622,11564.962480
446.076344,1302.015643,3063.566220,10569.303459
446.076647,229.767466,3752.868619,8807.752882
446.076950,382.945777,689.302399,9956.590215
446.077254,-765.891555,-1838.139732,11718.140791
446.077558,-2986.977064,76.589155,10722.481770
446.077861,-765.891555,-153.178311,10722.481770
446.078165,76.589155,-1684.961421,11258.605858
446.078468,-459.534933,-1684.961421,11718.140791
446.078772,536.124088,995.659021,11258.605858
446.079075,689.302399,3676.279464,9267.287815
446.079378,-306.356622,995.659021,9803.411904
446.079682,-1378.604799,-1838.139732,11258.605858
446.079985,-919.069866,-1838.139732,11718.140791
446.080289,229.767466,-1225.426488,11105.427547
446.080592,76.589155,-1914.728887,11718.140791
446.080896,0.000000,-2067.907198,12177.675724
446.081199,1302.015643,1761.550576,11718.140791
446.081503,2450.852976,5437.830040,9343.876971
446.081806,-919.069866,2297.674665,9803.411904
446.082110,-1378.604799,-153.178311,10952.249236
446.082413,995.659021,-1378.604799,11718.140791
446.082716,0.000000,1455.193954,10799.070925
446.083020,-2833.798753,382.945777,10262.946837
446.083323,-612.713244,-1072.248177,11105.427547
446.083627,2144.496354,-612.713244,11871.319102
446.083931,842.480710,2604.031287,10262.946837
446.084235,-2067.907198,2757.209598,9114.109504
446.084538,-919.069866,-612.713244,10416.125148
446.084842,1531.783110,-1225.426488,11564.962480
446.085145,-2374.263820,-919.069866,11411.784169
446.085448,-2833.798753,-153.178311,10952.249236
446.085752,842.480710,-612.713244,10799.070925
446.086055,2450.852976,0.000000,11411.784169
446.086358,1838.139732,3216.744531,10799.070925
446.086661,-1761.550576,4212.403552,8501.396260
446.086965,76.589155,2297.674665,9650.233593
446.087268,689.302399,-1225.426488,11411.784169
446.087572,-1072.248177,76.589155,11105.427547
446.087875,-2680.620442,-612.713244,10722.481770
446.088179,-459.534933,-1838.139732,11105.427547
446.088482,1148.837332,-2986.977064,13173.334746
446.088792,1302.015643,1761.550576,11411.784169
446.089095,76.589155,4212.403552,8807.752882
446.089397,-2221.085509,995.659021,10262.946837
446.089700,1148.837332,-919.069866,11258.605858
446.090002,-153.178311,-1378.604799,12330.854035
446.090305,-3369.922842,0.000000,10722.481770
446.090607,842.480710,-2833.798753,11411.784169
446.090910,536.124088,-3599.690308,13173.334746
446.091221,842.480710,2144.496354,11258.605858
446.091524,1148.837332,4059.225241,9497.055282
446.091826,-765.891555,1838.139732,9650.233593
446.092129,-153.178311,-1378.604799,11105.427547
446.092431,-1225.426488,-1531.783110,11258.605858
446.092733,-765.891555,536.124088,10569.303459
446.093036,-1225.426488,-2374.263820,10722.481770
446.093338,229.767466,-2527.442131,12407.443191
446.093658,1148.837332,-153.178311,11258.605858
446.093959,76.589155,3523.101153,9267.287815
446.094260,-459.534933,689.302399,9650.233593
446.094561,-306.356622,-153.178311,10262.946837
446.094862,-153.178311,-1684.961421,11411.784169
446.095164,-1761.550576,76.589155,10722.481770
446.095465,-919.069866,-1684.961421,10799.070925
446.095766,1684.961421,-2986.977064,11871.319102
446.096069,76.589155,-919.069866,11718.140791
446.096372,1148.837332,3216.744531,9956.590215
446.096676,0.000000,1991.318043,9497.055282
446.096979,-306.356622,-153.178311,10799.070925
446.097283,-919.069866,-1838.139732,11564.962480
446.097587,-612.713244,76.589155,10952.249236
446.097890,-612.713244,536.124088,10109.768526
446.098194,-459.534933,-1838.139732,11411.784169
446.098497,229.767466,-2374.263820,12713.799813
446.098800,842.480710,1302.015643,10952.249236
446.099104,-153.178311,2910.387909,9497.055282
446.099407,-1072.248177,-919.069866,9803.411904
446.099711,536.124088,-3140.155375,12330.854035
446.100014,-1378.604799,-1914.728887,12177.675724
446.100317,-1225.426488,-459.534933,10722.481770
446.100621,1148.837332,-2680.620442,11411.784169
446.101228,842.480710,2450.852976,11105.427547
446.101531,1148.837332,5820.775818,8807.752882
446.101835,-612.713244,2910.387909,8960.931193
446.102138,-1225.426488,-1378.604799,11564.962480
446.102442,689.302399,-1072.248177,11718.140791
446.102745,-919.069866,1148.837332,10569.303459
446.103049,-2067.907198,-153.178311,10109.768526
446.103353,76.589155,-1531.783110,11564.962480
446.103655,1302.015643,-459.534933,11564.962480
446.103959,-306.356622,2604.031287,9650.233593
446.104262,-1225.426488,1148.837332,9343.876971
446.104566,995.659021,-1378.604799,11105.427547
446.104870,-1225.426488,-1531.783110,12024.497413
446.105173,-1608.372265,229.767466,11105.427547
446.105477,842.480710,382.945777,10569.303459
446.105780,76.589155,-1531.783110,11718.140791
446.106083,-153.178311,-153.178311,12177.675724
446.106387,2450.852976,4518.760174,9343.876971
446.106690,995.659021,3369.922842,9267.287815
446.106994,-1608.372265,-612.713244,11258.605858
446.107297,-612.713244,-919.069866,12024.497413
446.107601,995.659021,536.124088,11718.140791
446.107904,-1761.550576,382.945777,10722.481770
446.108208,-1914.728887,-1072.248177,11258.605858
446.108511,1302.015643,-1225.426488,12330.854035
446.108814,1455.193954,1608.372265,10952.249236
446.109118,-306.356622,3216.744531,9803.411904
446.109421,-1761.550576,-306.356622,10416.125148
446.109725,1531.783110,-153.178311,11564.962480
446.110029,689.302399,-459.534933,11411.784169
446.110332,-2986.977064,76.589155,10799.070925
446.110636,-919.069866,-1072.248177,10952.249236
446.110946,1302.015643,-1072.248177,12024.497413
446.111249,1838.139732,3369.922842,10722.481770
446.111551,382.945777,4365.581863,8807.752882
446.111854,76.589155,2604.031287,9803.411904
446.112156,-1225.426488,-306.356622,10952.249236
446.112459,-2067.907198,1302.015643,10799.070925
446.112761,-153.178311,1302.015643,10722.481770
446.113063,-306.356622,-612.713244,10262.946837
446.113366,-1378.604799,-1531.783110,11564.962480
446.113670,1531.783110,-1072.248177,12407.443191
446.113973,1684.961421,3676.279464,9803.411904
446.114277,-1761.550576,1455.193954,9497.055282
446.114580,-612.713244,-1378.604799,11258.605858
446.114884,995.659021,-1838.139732,11871.319102
446.115187,-919.069866,-765.891555,11411.784169
446.115490,-765.891555,-1378.604799,11718.140791
446.115799,1148.837332,-2221.085509,11718.140791
446.116102,1302.015643,-612.713244,12713.799813
446.116404,-612.713244,3752.868619,9956.590215
446.116707,842.480710,4212.403552,8807.752882
446.117010,842.480710,-459.534933,11258.605858
446.117313,-2067.907198,-765.891555,11718.140791
446.117615,-2067.907198,689.302399,10952.249236
446.117918,0.000000,-459.534933,10416.125148
446.118224,76.589155,-2067.907198,11105.427547
446.118527,-1072.248177,-2680.620442,12407.443191
446.118830,1148.837332,1608.372265,10952.249236
446.119133,1455.193954,2144.496354,9497.055282
446.119437,-1608.372265,-919.069866,10262.946837
446.119740,0.000000,-2221.085509,11411.784169
446.120043,689.302399,-1225.426488,11105.427547
446.120346,-153.178311,0.000000,10799.070925
446.120649,-765.891555,-1072.248177,10952.249236
446.120953,-306.356622,-1684.961421,11871.319102
446.121256,1455.193954,2910.387909,10416.125148
446.121560,1148.837332,5591.008351,8195.039638
446.121863,-459.534933,1838.139732,9114.109504
446.122167,-1378.604799,-2374.263820,11564.962480
446.122470,-2374.263820,-1225.426488,11871.319102
446.122774,382.945777,-459.534933,10799.070925
446.123077,-153.178311,-1378.604799,10569.303459
446.123380,-1531.783110,-2986.977064,12024.497413
446.123684,1455.193954,-765.891555,11871.319102
446.123987,1684.961421,2757.209598,9956.590215
446.124291,-765.891555,995.659021,9650.233593
446.124594,-612.713244,-2527.442131,11411.784169
446.124898,842.480710,-2527.442131,12407.443191
446.125202,-306.356622,842.480710,10799.070925
446.125505,-919.069866,0.000000,10569.303459
446.125808,995.659021,-1914.728887,12330.854035
446.126112,689.302399,-765.891555,12024.497413
446.126415,382.945777,3216.744531,9650.233593
446.126718,76.589155,3216.744531,9114.109504
446.127022,76.589155,0.000000,10416.125148
446.127325,-1531.783110,-1531.783110,11871.319102
446.127629,-1914.728887,229.767466,11411.784169
446.127936,536.124088,382.945777,10262.946837
446.128239,-306.356622,-2221.085509,11411.784169
446.128542,-153.178311,-1914.728887,11871.319102
446.128845,1684.961421,3063.566220,10416.125148
446.129148,689.302399,3906.046930,9114.109504
446.129451,-1761.550576,0.000000,10416.125148
446.129754,536.124088,-1684.961421,11564.962480
446.130057,1148.837332,-765.891555,11105.427547
446.130360,-1914.728887,-459.534933,10799.070925
446.130663,-1072.248177,-1072.248177,10799.070925
446.130967,1148.837332,-1378.604799,12177.675724
446.131271,1302.015643,2450.852976,10952.249236
446.131574,-919.069866,4059.225241,8960.931193
446.131878,-306.356622,1761.550576,9650.233593
446.132181,0.000000,-1072.248177,11411.784169
446.132485,-765.891555,76.589155,11411.784169
446.132789,-1761.550576,689.302399,11105.427547
446.133092,0.000000,229.767466,10416.125148
446.133395,536.124088,-1684.961421,11871.319102
446.133699,382.945777,0.000000,12024.497413
446.134002,2297.674665,3523.101153,10109.768526
446.134305,-1225.426488,1302.015643,9956.590215
446.134609,-1378.604799,-1684.961421,11105.427547
446.134912,1838.139732,-2374.263820,12560.621502
446.135223,-306.356622,-306.356622,11411.784169
446.135526,-2221.085509,76.589155,10799.070925
446.135828,76.589155,-1378.604799,11564.962480
446.136131,1838.139732,1991.318043,11718.140791
446.136433,-153.178311,4059.225241,9267.287815
446.136735,-919.069866,3676.279464,9114.109504
446.137038,1684.961421,536.124088,10416.125148
446.137340,-1531.783110,-1914.728887,11871.319102
446.137655,-2527.442131,76.589155,11258.605858
446.137957,842.480710,382.945777,10109.768526
446.138259,382.945777,-2067.907198,11564.962480
446.138561,-1378.604799,-1684.961421,11718.140791
446.138862,689.302399,1302.015643,10799.070925
446.139164,2144.496354,2604.031287,10109.768526
446.139466,-306.356622,382.945777,9343.876971
446.139768,-459.534933,-2374.263820,11871.319102
446.140071,382.945777,-765.891555,11718.140791
446.140375,-306.356622,995.659021,10109.768526
446.140678,-612.713244,-1225.426488,10952.249236
446.140982,-306.356622,-1531.783110,11871.319102
446.141285,1455.193954,2297.674665,10416.125148
446.141589,689.302399,2757.209598,9497.055282
446.141892,-919.069866,995.659021,10109.768526
446.142196,-919.069866,-2374.263820,11871.319102
446.142499,-1225.426488,-919.069866,12024.497413
446.142803,-919.069866,-306.356622,10952.249236
446.143106,-1072.248177,-3140.155375,11411.784169
446.143410,229.767466,-3982.636086,12560.621502
446.143713,1684.961421,76.589155,11871.319102
446.144017,536.124088,2910.387909,9650.233593
446.144320,-153.178311,1608.372265,9956.590215
446.144624,536.124088,-919.069866,11411.784169
446.144928,536.124088,-612.713244,11258.605858
446.145231,-153.178311,-1225.426488,11258.605858
446.145534,-1225.426488,-2067.907198,11411.784169
446.145838,229.767466,-1914.728887,11718.140791
446.146141,995.659021,995.659021,11411.784169
446.146445,-306.356622,5284.651729,8654.574571
446.146748,-153.178311,2144.496354,9114.109504
446.147051,229.767466,-1684.961421,11411.784169
446.147355,-1072.248177,-1914.728887,11564.962480
446.147658,-1378.604799,-459.534933,10722.481770
446.147962,-1225.426488,-612.713244,10569.303459
446.148266,536.124088,-1684.961421,10952.249236
446.148569,1531.783110,-1531.783110,12560.621502
446.148873,229.767466,3369.922842,9650.233593
446.149176,382.945777,2910.387909,8807.752882
446.149480,995.659021,-1225.426488,11105.427547
446.149784,-153.178311,-1914.728887,11718.140791
446.150087,-1531.783110,-919.069866,11718.140791
446.150390,-1761.550576,-612.713244,10799.070925
446.150694,382.945777,-1072.248177,11258.605858
446.150997,536.124088,-1914.728887,12560.621502
446.151300,1302.015643,3676.279464,10262.946837
446.151603,689.302399,3523.101153,8960.931193
446.151906,-459.534933,-306.356622,10799.070925
446.152220,-459.534933,-1531.783110,12024.497413
446.152522,229.767466,0.000000,11411.784169
446.152824,-1761.550576,229.767466,10569.303459
446.153126,229.767466,-1684.961421,10952.249236
446.153429,1684.961421,-3140.155375,12713.799813
446.153731,689.302399,1761.550576,11411.784169
446.154033,0.000000,3752.868619,9114.109504
446.154335,-306.356622,1302.015643,10109.768526
446.154649,536.124088,-1225.426488,11105.427547
446.154951,0.000000,-1378.604799,11871.319102
446.155253,-2680.620442,229.767466,10722.481770
446.155555,0.000000,0.000000,10109.768526
446.155857,229.767466,-1914.728887,11718.140791
446.156159,229.767466,2144.496354,11105.427547
446.156461,1455.193954,4978.295107,8960.931193
446.156762,-306.356622,2450.852976,9343.876971
446.157072,689.302399,382.945777,10799.070925
446.157374,-1225.426488,-1225.426488,11258.605858
446.157677,-2067.907198,995.659021,10569.303459
446.157980,-459.534933,229.767466,10109.768526
446.158282,229.767466,-2067.907198,12024.497413
446.158585,229.767466,-1531.783110,12560.621502
446.158887,1455.193954,3063.566220,10262.946837
446.159190,995.659021,2757.209598,9650.233593
446.159493,-1531.783110,-612.713244,10569.303459
446.159796,536.124088,-1378.604799,12560.621502
446.160100,229.767466,0.000000,11718.140791
446.160404,-765.891555,536.124088,10722.481770
446.160707,-765.891555,-1914.728887,11564.962480
446.161011,76.589155,-612.713244,12330.854035
446.161314,1455.193954,3752.868619,10569.303459
446.161618,536.124088,4212.403552,8960.931193
446.161922,-153.178311,536.124088,10722.481770
446.162225,0.000000,-2221.085509,12407.443191
446.162529,-1761.550576,-306.356622,11258.605858
446.162832,-1378.604799,536.124088,10262.946837
446.163135,0.000000,-1914.728887,11258.605858
446.163439,229.767466,-1684.961421,12330.854035
446.163742,1148.837332,1761.550576,10722.481770
446.164046,536.124088,2757.209598,9343.876971
446.164349,229.767466,76.589155,9650.233593
446.164652,229.767466,-2221.085509,11564.962480
446.164956,76.589155,-1531.783110,11871.319102
446.165259,-1378.604799,229.767466,10262.946837
446.165562,-153.178311,-1531.783110,10952.249236
446.165865,0.000000,-2067.907198,11564.962480
446.166168,1531.783110,842.480710,10952.249236
446.166472,1148.837332,3369.922842,9497.055282
446.166781,0.000000,2144.496354,9114.109504
446.167084,76.589155,-1072.248177,11105.427547
446.167386,-2833.798753,-2374.263820,11564.962480
446.167689,-765.891555,-153.178311,11258.605858
446.167992,-153.178311,-1838.139732,10569.303459
446.168295,-153.178311,-3446.511997,12024.497413
446.168598,382.945777,-2067.907198,12330.854035
446.168901,1838.139732,2757.209598,10262.946837
446.169218,76.589155,2297.674665,9650.233593
446.169519,-919.069866,-459.534933,10569.303459
446.169821,76.589155,-1914.728887,12024.497413
446.170122,382.945777,-459.534933,11105.427547
446.170424,-306.356622,-1225.426488,10799.070925
446.170725,-306.356622,-2986.977064,12024.497413
446.171027,76.589155,-1225.426488,12024.497413
446.171328,1302.015643,3369.922842,10262.946837
446.171654,536.124088,4059.225241,8960.931193
446.171954,995.659021,1302.015643,9803.411904
446.172255,-3216.744531,-1914.728887,11564.962480
446.172555,-2986.977064,0.000000,10952.249236
446.172855,1455.193954,-306.356622,10799.070925
446.173156,-1761.550576,-2527.442131,11258.605858
446.173456,-1072.248177,-1531.783110,11871.319102
446.173756,3140.155375,1148.837332,11258.605858
446.174060,1302.015643,3216.744531,9497.055282
446.174363,-2221.085509,382.945777,9956.590215
446.174666,0.000000,-2374.263820,11718.140791
446.174970,1148.837332,-153.178311,11258.605858
446.175273,-306.356622,382.945777,10722.481770
446.175577,-153.178311,-919.069866,11258.605858
446.175880,-765.891555,-612.713244,11258.605858
446.176184,1531.783110,1608.372265,11258.605858
446.176487,229.767466,4212.403552,9267.287815
446.176790,76.589155,2297.674665,9267.287815
446.177094,-306.356622,-1072.248177,11105.427547
446.177397,-765.891555,-612.713244,11411.784169
446.177701,-1378.604799,382.945777,11258.605858
446.178004,-1608.372265,-1072.248177,10952.249236
446.178308,382.945777,-1684.961421,11564.962480
446.178611,2297.674665,-612.713244,12330.854035
446.178916,382.945777,3063.566220,9803.411904
446.179220,-459.534933,2144.496354,9343.876971
446.179523,536.124088,-919.069866,11105.427547
446.179826,-306.356622,-1838.139732,11564.962480
446.180130,-1608.372265,-1225.426488,11411.784169
446.180433,-459.534933,-1225.426488,11258.605858
446.180736,689.302399,-1531.783110,11411.784169
446.181039,0.000000,-612.713244,12177.675724
446.181342,1455.193954,4671.938485,9803.411904
446.181646,229.767466,3906.046930,8807.752882
446.181949,-612.713244,1608.372265,10416.125148
446.182253,-1608.372265,-765.891555,10722.481770
446.182556,-1914.728887,0.000000,11258.605858
446.182860,689.302399,76.589155,10569.303459
446.183164,382.945777,-1531.783110,10952.249236
446.183467,-612.713244,-1684.961421,12330.854035
446.183770,995.659021,1838.139732,10799.070925
446.184073,995.659021,3752.868619,9114.109504
446.184377,-765.891555,382.945777,10109.768526
446.184681,-919.069866,-1378.604799,11105.427547
446.184984,536.124088,-1531.783110,11871.319102
446.185288,-1225.426488,-459.534933,11258.605858
446.185591,-1072.248177,-1838.139732,11105.427547
446.185895,536.124088,-2067.907198,12330.854035
446.186212,1531.783110,1991.318043,11105.427547
446.186513,-612.713244,5284.651729,8960.931193
446.186815,1684.961421,2757.209598,9803.411904
446.187116,-612.713244,-153.178311,10952.249236
446.187418,-3829.457775,-1072.248177,10799.070925
446.187719,-1608.372265,-459.534933,11718.140791
446.188021,2297.674665,0.000000,10722.481770
446.188322,-1608.372265,-2374.263820,11718.140791
