#time,accel_x,accel_y,accel_z
443.187043,229.767466,0.000000,10799.070925
443.187346,76.589155,0.000000,10799.070925
443.187650,-153.178311,0.000000,10952.249236
443.187953,-153.178311,0.000000,10799.070925
443.188256,76.589155,382.945777,10799.070925
443.188560,76.589155,76.589155,10952.249236
443.188863,-153.178311,0.000000,10722.481770
443.189166,76.589155,229.767466,10952.249236
443.189472,382.945777,-153.178311,10952.249236
443.189775,76.589155,0.000000,10799.070925
443.190078,-612.713244,-306.356622,10799.070925
443.190382,229.767466,76.589155,11105.427547
443.190685,229.767466,229.767466,10569.303459
443.190988,-459.534933,0.000000,10722.481770
443.191291,-306.356622,229.767466,10799.070925
443.191594,229.767466,382.945777,10799.070925
443.191897,229.767466,229.767466,10799.070925
443.192201,-765.891555,0.000000,10952.249236
443.192504,-153.178311,76.589155,11105.427547
443.192808,382.945777,0.000000,11105.427547
443.193112,-306.356622,0.000000,11105.427547
443.193415,-612.713244,76.589155,10952.249236
443.193719,-153.178311,76.589155,10799.070925
443.194022,382.945777,229.767466,10952.249236
443.194325,-306.356622,0.000000,10952.249236
443.194629,-153.178311,-153.178311,10799.070925
443.194932,229.767466,-306.356622,11105.427547
443.195236,0.000000,76.589155,10799.070925
443.195539,-612.713244,-153.178311,10952.249236
443.195843,0.000000,0.000000,10722.481770
443.196146,76.589155,382.945777,10799.070925
443.196450,76.589155,76.589155,10952.249236
443.196753,-459.534933,0.000000,10722.481770
443.197057,76.589155,76.589155,10799.070925
443.197360,0.000000,0.000000,10952.249236
443.197664,-153.178311,76.589155,10952.249236
443.197967,-153.178311,0.000000,10799.070925
443.198271,76.589155,229.767466,10952.249236
443.198574,0.000000,229.767466,10722.481770
443.198878,-153.178311,0.000000,10722.481770
443.199181,76.589155,229.767466,10799.070925
443.199484,-306.356622,0.000000,10799.070925
443.199788,0.000000,0.000000,10952.249236
443.200091,0.000000,-153.178311,10952.249236
443.200395,-153.178311,0.000000,11105.427547
443.200698,76.589155,76.589155,10799.070925
443.201002,382.945777,229.767466,10722.481770
443.201305,-459.534933,76.589155,10722.481770
443.201608,76.589155,76.589155,10799.070925
443.201912,0.000000,0.000000,10952.249236
443.202215,-459.534933,-153.178311,10799.070925
443.202519,229.767466,-153.178311,11105.427547
443.202822,76.589155,76.589155,11105.427547
443.203126,0.000000,536.124088,10799.070925
443.203429,-306.356622,76.589155,10799.070925
443.203733,0.000000,229.767466,10952.249236
443.204036,0.000000,229.767466,10952.249236
443.204339,-153.178311,76.589155,10799.070925
443.204643,-306.356622,0.000000,11258.605858
443.204946,382.945777,229.767466,10799.070925
443.205250,-153.178311,0.000000,10799.070925
443.205553,-153.178311,76.589155,10952.249236
443.205857,229.767466,0.000000,10722.481770
443.206160,0.000000,-153.178311,10799.070925
443.206469,-153.178311,0.000000,10952.249236
443.206772,-153.178311,-153.178311,10952.249236
443.207075,76.589155,0.000000,10799.070925
443.207377,-306.356622,0.000000,10799.070925
443.207680,-153.178311,76.589155,10799.070925
443.207983,0.000000,76.589155,10799.070925
443.208286,0.000000,382.945777,10799.070925
443.208589,-306.356622,0.000000,10952.249236
443.208914,0.000000,76.589155,10952.249236
443.209215,229.767466,0.000000,10799.070925
443.209515,-153.178311,76.589155,10799.070925
443.209815,-306.356622,229.767466,10799.070925
443.210115,229.767466,0.000000,10952.249236
443.210416,0.000000,0.000000,10799.070925
443.210716,-306.356622,76.589155,11258.605858
443.211016,0.000000,76.589155,10799.070925
443.211325,229.767466,76.589155,10799.070925
443.211628,0.000000,-153.178311,11105.427547
443.211931,-153.178311,-153.178311,10799.070925
443.212233,76.589155,76.589155,11105.427547
443.212536,0.000000,76.589155,11105.427547
443.212839,-306.356622,0.000000,10722.481770
443.213141,0.000000,0.000000,10799.070925
443.213444,-153.178311,76.589155,10952.249236
443.213747,-153.178311,0.000000,10799.070925
443.214051,-306.356622,76.589155,10952.249236
443.214354,76.589155,0.000000,10722.481770
443.214658,76.589155,0.000000,10952.249236
443.214961,-153.178311,0.000000,10569.303459
443.215265,0.000000,536.124088,10722.481770
443.215568,0.000000,229.767466,10722.481770
443.215872,-306.356622,0.000000,10722.481770
443.216175,-153.178311,76.589155,10722.481770
443.216478,229.767466,0.000000,10799.070925
443.216782,-306.356622,76.589155,10799.070925
443.217085,0.000000,76.589155,10952.249236
443.217389,0.000000,0.000000,11105.427547
443.217693,-306.356622,229.767466,10722.481770
443.217996,-306.356622,229.767466,10799.070925
443.218300,0.000000,76.589155,10799.070925
443.218603,76.589155,76.589155,10799.070925
443.218906,0.000000,0.000000,10952.249236
443.219209,-153.178311,0.000000,10799.070925
443.219513,-153.178311,-153.178311,11105.427547
443.219816,229.767466,76.589155,11258.605858
443.220120,76.589155,229.767466,10722.481770
443.220423,-306.356622,76.589155,10799.070925
443.220726,229.767466,229.767466,10722.481770
443.221035,0.000000,0.000000,10799.070925
443.221338,0.000000,-153.178311,11105.427547
443.221641,-153.178311,-153.178311,11105.427547
443.221944,229.767466,0.000000,11105.427547
443.222247,0.000000,0.000000,10952.249236
443.222549,0.000000,0.000000,10722.481770
443.222852,-306.356622,76.589155,10799.070925
443.223155,0.000000,229.767466,10722.481770
443.223472,76.589155,76.589155,10722.481770
443.223774,0.000000,-153.178311,11105.427547
443.224075,-153.178311,0.000000,10799.070925
443.224377,76.589155,76.589155,10952.249236
443.224678,-153.178311,0.000000,10952.249236
443.224980,-306.356622,76.589155,10569.303459
443.225281,229.767466,382.945777,10799.070925
443.225583,76.589155,382.945777,10799.070925
443.225890,0.000000,76.589155,10799.070925
443.226193,76.589155,-153.178311,10952.249236
443.226496,0.000000,-153.178311,10952.249236
443.226799,0.000000,76.589155,10722.481770
443.227102,-153.178311,0.000000,10952.249236
443.227405,76.589155,229.767466,11105.427547
443.227708,0.000000,382.945777,10722.481770
443.228010,-153.178311,229.767466,10799.070925
443.228320,0.000000,76.589155,10799.070925
443.228622,229.767466,-153.178311,10952.249236
443.228925,-153.178311,-306.356622,11105.427547
443.229228,0.000000,-153.178311,11105.427547
443.229530,0.000000,-153.178311,10799.070925
443.229833,0.000000,229.767466,10799.070925
443.230136,0.000000,229.767466,10952.249236
443.230438,76.589155,229.767466,10952.249236
443.230741,-153.178311,76.589155,10952.249236
443.231045,76.589155,0.000000,10799.070925
443.231348,-306.356622,-153.178311,11258.605858
443.231651,-306.356622,0.000000,10952.249236
443.231955,76.589155,76.589155,10799.070925
443.232258,-153.178311,0.000000,10952.249236
443.232562,-153.178311,536.124088,10722.481770
443.232865,76.589155,76.589155,10799.070925
443.233171,0.000000,0.000000,10569.303459
443.233474,0.000000,-153.178311,10722.481770
443.233778,76.589155,-153.178311,10799.070925
443.234081,0.000000,0.000000,11105.427547
443.234384,-153.178311,0.000000,10722.481770
443.234687,-306.356622,0.000000,10799.070925
443.234990,0.000000,0.000000,10722.481770
443.235293,-306.356622,229.767466,10722.481770
443.235597,-306.356622,76.589155,10952.249236
443.235900,0.000000,-153.178311,10799.070925
443.236204,0.000000,76.589155,10799.070925
443.236507,76.589155,0.000000,10799.070925
443.236811,-153.178311,76.589155,10952.249236
443.237114,0.000000,0.000000,10799.070925
443.237418,76.589155,229.767466,10722.481770
443.237721,0.000000,229.767466,10799.070925
443.238027,-153.178311,0.000000,11105.427547
443.238330,76.589155,76.589155,11105.427547
443.238633,0.000000,-153.178311,10952.249236
443.238937,76.589155,76.589155,10952.249236
443.239240,-153.178311,0.000000,10952.249236
443.239543,-153.178311,229.767466,10799.070925
443.239846,0.000000,0.000000,10722.481770
443.240149,-153.178311,76.589155,10722.481770
443.240466,0.000000,0.000000,10799.070925
443.240768,0.000000,0.000000,10952.249236
443.241069,-306.356622,0.000000,10952.249236
443.241371,0.000000,76.589155,10952.249236
443.241672,0.000000,76.589155,10722.481770
443.241974,-153.178311,229.767466,10722.481770
443.242275,-153.178311,76.589155,10722.481770
443.242577,0.000000,76.589155,10799.070925
443.242884,-153.178311,0.000000,10952.249236
443.243187,0.000000,76.589155,10799.070925
443.243490,0.000000,76.589155,10722.481770
443.243793,0.000000,76.589155,10722.481770
443.244096,-153.178311,76.589155,10952.249236
443.244399,0.000000,382.945777,10952.249236
443.244702,76.589155,76.589155,10799.070925
443.245005,76.589155,229.767466,10799.070925
443.245314,-153.178311,0.000000,10799.070925
443.245616,0.000000,-153.178311,10952.249236
443.245919,536.124088,-153.178311,10952.249236
443.246222,76.589155,-153.178311,10952.249236
443.246524,-306.356622,76.589155,10952.249236
443.246827,229.767466,229.767466,10952.249236
443.247130,76.589155,229.767466,10799.070925
443.247432,-306.356622,76.589155,10799.070925
443.247735,0.000000,76.589155,10952.249236
443.248039,229.767466,0.000000,10799.070925
443.248342,-153.178311,76.589155,10799.070925
443.248646,-153.178311,-153.178311,10799.070925
443.248949,0.000000,229.767466,10799.070925
443.249253,0.000000,229.767466,10799.070925
443.249556,-153.178311,382.945777,10722.481770
443.249860,-306.356622,76.589155,10569.303459
443.250166,229.767466,76.589155,10799.070925
443.250469,0.000000,0.000000,10952.249236
443.250772,0.000000,-153.178311,10952.249236
443.251075,0.000000,229.767466,10799.070925
443.251378,76.589155,0.000000,10952.249236
443.251681,-306.356622,76.589155,10799.070925
443.251985,-153.178311,229.767466,10799.070925
443.252288,76.589155,76.589155,10799.070925
443.252591,229.767466,229.767466,10722.481770
443.252895,0.000000,-306.356622,10799.070925
443.253198,76.589155,-153.178311,10952.249236
443.253502,382.945777,0.000000,10952.249236
443.253805,-153.178311,0.000000,10952.249236
443.254109,-306.356622,0.000000,10952.249236
443.254412,-153.178311,76.589155,10952.249236
443.254715,-306.356622,76.589155,10722.481770
443.255022,-153.178311,0.000000,10952.249236
443.255325,-306.356622,0.000000,10952.249236
443.255628,0.000000,0.000000,11105.427547
443.255931,-153.178311,76.589155,10799.070925
443.256234,-306.356622,76.589155,10952.249236
443.256537,-306.356622,229.767466,10799.070925
443.256840,76.589155,229.767466,10799.070925
443.257143,0.000000,0.000000,10799.070925
443.257460,-153.178311,382.945777,10952.249236
443.257762,0.000000,0.000000,10799.070925
443.258063,76.589155,-153.178311,10799.070925
443.258365,0.000000,-153.178311,11105.427547
443.258666,-153.178311,-153.178311,10799.070925
443.258968,0.000000,0.000000,10952.249236
443.259270,76.589155,229.767466,10799.070925
443.259571,76.589155,76.589155,10799.070925
443.259890,0.000000,76.589155,10799.070925
443.260191,229.767466,0.000000,10799.070925
443.260492,76.589155,-153.178311,10799.070925
443.260794,-153.178311,-153.178311,10952.249236
443.261095,0.000000,-153.178311,11105.427547
443.261396,229.767466,0.000000,10799.070925
443.261698,-306.356622,76.589155,10799.070925
443.261999,0.000000,382.945777,10799.070925
443.262303,76.589155,76.589155,10952.249236
443.262606,0.000000,229.767466,10799.070925
443.262910,-306.356622,76.589155,10952.249236
443.263213,-153.178311,0.000000,10952.249236
443.263516,-153.178311,0.000000,11105.427547
443.263820,76.589155,229.767466,11105.427547
443.264123,-306.356622,229.767466,10952.249236
443.264426,-153.178311,229.767466,10799.070925
443.264729,0.000000,0.000000,10799.070925
443.265033,76.589155,0.000000,10799.070925
443.265336,76.589155,0.000000,10799.070925
443.265640,-153.178311,-306.356622,10799.070925
443.265943,-153.178311,0.000000,10799.070925
443.266247,0.000000,0.000000,10799.070925
443.266550,76.589155,76.589155,10799.070925
443.266854,-306.356622,229.767466,10722.481770
443.267159,-153.178311,229.767466,10799.070925
443.267462,0.000000,76.589155,10799.070925
443.267766,76.589155,-153.178311,10799.070925
443.268069,-153.178311,-153.178311,10799.070925
443.268372,-153.178311,0.000000,10952.249236
443.268675,76.589155,229.767466,10799.070925
443.268979,-153.178311,76.589155,10722.481770
443.269282,-306.356622,382.945777,10722.481770
443.269585,76.589155,229.767466,10799.070925
443.269888,76.589155,0.000000,11105.427547
443.270192,0.000000,76.589155,10952.249236
443.270495,-306.356622,76.589155,10952.249236
443.270799,76.589155,0.000000,10952.249236
443.271103,-153.178311,0.000000,10952.249236
443.271406,-306.356622,0.000000,10799.070925
443.271710,0.000000,76.589155,10799.070925
443.272013,0.000000,76.589155,10799.070925
443.272316,-153.178311,-153.178311,11105.427547
443.272620,-153.178311,0.000000,11105.427547
443.272923,229.767466,76.589155,10722.481770
443.273227,229.767466,76.589155,10952.249236
443.273530,-153.178311,76.589155,10722.481770
443.273834,0.000000,76.589155,10722.481770
443.274137,76.589155,76.589155,10799.070925
443.274460,-153.178311,0.000000,10799.070925
443.274761,-153.178311,0.000000,10799.070925
443.275061,-153.178311,-153.178311,10799.070925
443.275362,382.945777,76.589155,10799.070925
443.275663,-153.178311,-153.178311,10799.070925
443.275964,-612.713244,229.767466,10799.070925
443.276264,-153.178311,76.589155,10722.481770
443.276565,229.767466,229.767466,10569.303459
443.276884,-306.356622,229.767466,10722.481770
443.277185,-153.178311,229.767466,10952.249236
443.277486,229.767466,-153.178311,10952.249236
443.277788,0.000000,-153.178311,10799.070925
443.278089,-306.356622,-153.178311,10952.249236
443.278390,-153.178311,76.589155,11105.427547
443.278691,229.767466,229.767466,10799.070925
443.278993,0.000000,76.589155,10722.481770
443.279303,0.000000,0.000000,10799.070925
443.279605,76.589155,229.767466,10952.249236
443.279908,229.767466,0.000000,10952.249236
443.280210,-153.178311,-153.178311,10952.249236
443.280513,0.000000,76.589155,10952.249236
443.280815,76.589155,-153.178311,11105.427547
443.281118,0.000000,76.589155,10799.070925
443.281421,-306.356622,0.000000,10722.481770
443.281724,76.589155,382.945777,10799.070925
443.282027,76.589155,76.589155,10952.249236
443.282331,0.000000,76.589155,10722.481770
443.282634,-306.356622,-153.178311,10952.249236
443.282938,0.000000,382.945777,10799.070925
443.283241,-153.178311,0.000000,10722.481770
443.283544,0.000000,382.945777,10722.481770
443.283848,-306.356622,229.767466,10569.303459
443.284158,0.000000,76.589155,10799.070925
443.284460,76.589155,-153.178311,10722.481770
443.284763,-306.356622,-306.356622,10799.070925
443.285066,-153.178311,-153.178311,10952.249236
443.285368,0.000000,382.945777,10799.070925
443.285671,-153.178311,0.000000,10952.249236
443.285973,0.000000,76.589155,10799.070925
443.286276,0.000000,229.767466,10799.070925
443.286579,0.000000,76.589155,10799.070925
443.286882,-153.178311,76.589155,10799.070925
443.287186,-306.356622,-306.356622,10799.070925
443.287489,229.767466,76.589155,11105.427547
443.287793,0.000000,0.000000,10799.070925
443.288097,-153.178311,0.000000,10799.070925
443.288400,76.589155,0.000000,10799.070925
443.288704,229.767466,229.767466,10799.070925
443.289009,-153.178311,0.000000,11105.427547
443.289313,-153.178311,76.589155,10952.249236
443.289616,229.767466,0.000000,10952.249236
443.289919,-153.178311,0.000000,10952.249236
443.290222,-153.178311,76.589155,10799.070925
443.290525,-153.178311,-153.178311,11105.427547
443.290828,0.000000,76.589155,10799.070925
443.291131,-153.178311,76.589155,10416.125148
443.291442,-612.713244,0.000000,11105.427547
443.291745,0.000000,229.767466,10799.070925
443.292047,-153.178311,0.000000,10722.481770
443.292350,-459.534933,0.000000,10952.249236
443.292652,-153.178311,76.589155,10722.481770
443.292954,0.000000,0.000000,10799.070925
443.293257,-306.356622,229.767466,10799.070925
443.293559,0.000000,229.767466,10569.303459
443.293878,-153.178311,0.000000,10952.249236
443.294179,-153.178311,76.589155,10799.070925
443.294480,0.000000,0.000000,10799.070925
443.294782,0.000000,0.000000,10952.249236
443.295083,76.589155,0.000000,10799.070925
443.295384,229.767466,-153.178311,10799.070925
443.295685,76.589155,0.000000,10722.481770
443.295986,-306.356622,76.589155,10799.070925
443.296299,0.000000,76.589155,10952.249236
443.296601,229.767466,0.000000,10952.249236
443.296903,-153.178311,0.000000,10952.249236
443.297206,0.000000,0.000000,11105.427547
443.297508,0.000000,229.767466,10799.070925
443.297810,0.000000,76.589155,10952.249236
443.298112,-612.713244,76.589155,10952.249236
443.298415,76.589155,229.767466,10952.249236
443.298718,229.767466,76.589155,10799.070925
443.299021,-306.356622,-153.178311,11105.427547
443.299325,-306.356622,0.000000,10952.249236
443.299628,0.000000,0.000000,10952.249236
443.299932,-153.178311,76.589155,10722.481770
443.300235,-153.178311,229.767466,10799.070925
443.300539,-306.356622,76.589155,10569.303459
443.300842,0.000000,76.589155,10722.481770
443.301154,0.000000,229.767466,10722.481770
443.301456,-306.356622,76.589155,10799.070925
443.301758,76.589155,76.589155,10952.249236
443.302061,76.589155,76.589155,10952.249236
443.302363,0.000000,0.000000,10799.070925
443.302665,0.000000,229.767466,10569.303459
443.302968,229.767466,76.589155,10722.481770
443.303270,76.589155,-306.356622,10799.070925
443.303573,-459.534933,76.589155,10722.481770
443.303877,0.000000,-153.178311,10952.249236
443.304180,76.589155,76.589155,10799.070925
443.304484,0.000000,-153.178311,10799.070925
443.304787,-306.356622,0.000000,10722.481770
443.305091,76.589155,536.124088,10952.249236
443.305394,76.589155,382.945777,10799.070925
443.305698,-306.356622,-153.178311,10799.070925
443.306001,-153.178311,0.000000,10799.070925
443.306304,0.000000,-153.178311,10952.249236
443.306608,0.000000,-459.534933,10952.249236
443.306911,-612.713244,0.000000,10952.249236
443.307215,0.000000,0.000000,10799.070925
443.307519,76.589155,536.124088,10799.070925
443.307822,-306.356622,382.945777,10799.070925
443.308126,-153.178311,382.945777,10799.070925
443.308437,76.589155,76.589155,10722.481770
443.308739,0.000000,76.589155,10722.481770
443.309041,-153.178311,-459.534933,11258.605858
443.309344,0.000000,-306.356622,11105.427547
443.309646,0.000000,-153.178311,10952.249236
443.309949,-153.178311,76.589155,10952.249236
443.310251,-306.356622,229.767466,10799.070925
443.310553,76.589155,229.767466,10799.070925
443.310867,0.000000,76.589155,10569.303459
443.311169,0.000000,0.000000,10952.249236
443.311471,-153.178311,-306.356622,10799.070925
443.311773,-153.178311,-153.178311,10952.249236
443.312075,0.000000,-153.178311,11105.427547
443.312377,-153.178311,0.000000,10799.070925
443.312679,-153.178311,76.589155,10952.249236
443.312981,76.589155,229.767466,10722.481770
443.313296,76.589155,382.945777,10722.481770
443.313598,-306.356622,0.000000,10799.070925
443.313900,76.589155,229.767466,10952.249236
443.314202,76.589155,0.000000,10952.249236
443.314503,-306.356622,0.000000,11105.427547
443.314805,-153.178311,76.589155,10952.249236
443.315107,76.589155,76.589155,10799.070925
443.315409,76.589155,229.767466,10799.070925
443.315712,0.000000,382.945777,10722.481770
443.316015,0.000000,0.000000,10952.249236
443.316319,76.589155,0.000000,10952.249236
443.316622,0.000000,0.000000,10952.249236
443.316926,-153.178311,-153.178311,10799.070925
443.317229,-306.356622,229.767466,10952.249236
443.317533,0.000000,382.945777,10799.070925
443.317836,0.000000,0.000000,10952.249236
443.318142,0.000000,382.945777,10722.481770
443.318445,-153.178311,229.767466,10722.481770
443.318748,0.000000,0.000000,10799.070925
443.319051,0.000000,0.000000,10799.070925
443.319354,0.000000,-153.178311,10952.249236
443.319658,-459.534933,76.589155,10952.249236
443.319961,-153.178311,76.589155,10722.481770
443.320264,0.000000,229.767466,10722.481770
443.320567,76.589155,382.945777,10799.070925
443.320871,0.000000,76.589155,10952.249236
443.321174,76.589155,-153.178311,11105.427547
443.321478,0.000000,-153.178311,10952.249236
443.321781,-306.356622,-153.178311,11105.427547
443.322085,-153.178311,-153.178311,10952.249236
443.322388,-153.178311,0.000000,10952.249236
443.322692,76.589155,382.945777,10952.249236
443.322998,-153.178311,229.767466,10722.481770
443.323301,0.000000,382.945777,10952.249236
443.323604,76.589155,0.000000,10952.249236
443.323907,76.589155,-153.178311,10799.070925
443.324210,-306.356622,-306.356622,10952.249236
443.324513,-459.534933,-153.178311,11105.427547
443.324817,76.589155,76.589155,10722.481770
443.325120,-153.178311,229.767466,10799.070925
443.325442,-153.178311,382.945777,10952.249236
443.325743,-153.178311,0.000000,10799.070925
443.326043,229.767466,0.000000,11105.427547
443.326344,76.589155,-153.178311,11105.427547
443.326645,-153.178311,0.000000,10799.070925
443.326946,0.000000,-306.356622,10799.070925
443.327247,229.767466,76.589155,10799.070925
443.327547,-459.534933,76.589155,10722.481770
443.327850,-306.356622,76.589155,10799.070925
443.328154,0.000000,76.589155,10722.481770
443.328457,76.589155,0.000000,10952.249236
443.328761,-153.178311,-153.178311,11105.427547
443.329064,76.589155,76.589155,11105.427547
443.329368,76.589155,-153.178311,10799.070925
443.329671,-306.356622,76.589155,10952.249236
443.329975,-459.534933,76.589155,11105.427547
443.330290,76.589155,382.945777,10952.249236
443.330592,0.000000,76.589155,10799.070925
443.330894,0.000000,229.767466,10799.070925
443.331195,0.000000,0.000000,10952.249236
443.331497,76.589155,-153.178311,10799.070925
443.331799,0.000000,76.589155,11105.427547
443.332101,-306.356622,76.589155,10952.249236
443.332402,-306.356622,76.589155,10799.070925
443.332705,0.000000,229.767466,10722.481770
443.333009,76.589155,76.589155,10799.070925
443.333312,0.000000,0.000000,10952.249236
443.333616,76.589155,0.000000,10799.070925
443.333920,382.945777,0.000000,11105.427547
443.334223,-306.356622,0.000000,10799.070925
443.334527,-153.178311,76.589155,10722.481770
443.334830,0.000000,76.589155,10722.481770
443.335141,-306.356622,76.589155,10569.303459
443.335444,-612.713244,0.000000,10799.070925
443.335746,-153.178311,0.000000,10952.249236
443.336048,76.589155,76.589155,10952.249236
443.336351,-306.356622,-306.356622,11105.427547
443.336653,0.000000,229.767466,10799.070925
443.336956,76.589155,76.589155,10952.249236
443.337258,-153.178311,76.589155,10722.481770
443.337561,-153.178311,76.589155,10722.481770
443.337865,0.000000,229.767466,10952.249236
443.338168,76.589155,76.589155,10952.249236
443.338472,-153.178311,-153.178311,10952.249236
443.338775,-153.178311,-306.356622,11105.427547
443.339079,229.767466,0.000000,11411.784169
443.339382,76.589155,76.589155,11105.427547
443.339686,-459.534933,229.767466,10952.249236
443.339992,0.000000,0.000000,10952.249236
443.340295,0.000000,76.589155,10799.070925
443.340598,-153.178311,-153.178311,10952.249236
443.340901,0.000000,76.589155,10952.249236
443.341204,-153.178311,-153.178311,10952.249236
443.341507,-153.178311,0.000000,10799.070925
443.341810,-153.178311,0.000000,10799.070925
443.342113,-153.178311,76.589155,10799.070925
443.342436,-153.178311,536.124088,10799.070925
443.342736,-153.178311,382.945777,10569.303459
443.343037,-306.356622,0.000000,10799.070925
443.343338,76.589155,76.589155,10799.070925
443.343639,-153.178311,0.000000,11105.427547
443.343940,0.000000,76.589155,10799.070925
443.344240,0.000000,0.000000,10799.070925
443.344541,0.000000,0.000000,10799.070925
443.344844,-153.178311,76.589155,10722.481770
443.345148,76.589155,229.767466,10722.481770
443.345451,229.767466,76.589155,10952.249236
443.345755,76.589155,0.000000,10952.249236
443.346058,-153.178311,0.000000,10952.249236
443.346362,76.589155,76.589155,10952.249236
443.346666,-153.178311,-306.356622,11105.427547
443.346969,-153.178311,76.589155,10799.070925
443.347284,-153.178311,0.000000,11105.427547
443.347586,229.767466,229.767466,10799.070925
443.347888,-153.178311,0.000000,10952.249236
443.348190,-306.356622,76.589155,10799.070925
443.348492,76.589155,0.000000,10952.249236
443.348793,76.589155,0.000000,10952.249236
443.349095,-153.178311,229.767466,10722.481770
443.349397,-153.178311,76.589155,10952.249236
443.349700,0.000000,229.767466,10952.249236
443.350004,0.000000,76.589155,10952.249236
443.350307,-306.356622,382.945777,10799.070925
443.350611,-153.178311,0.000000,10722.481770
443.350914,229.767466,0.000000,10952.249236
443.351218,0.000000,-153.178311,10952.249236
443.351522,-153.178311,-153.178311,11105.427547
443.351825,-153.178311,76.589155,11105.427547
443.352136,76.589155,76.589155,10799.070925
443.352439,-153.178311,76.589155,10799.070925
443.352741,-153.178311,229.767466,10569.303459
443.353043,76.589155,76.589155,10799.070925
443.353345,-153.178311,0.000000,11105.427547
443.353648,-153.178311,0.000000,10952.249236
443.353950,0.000000,76.589155,10952.249236
443.354252,76.589155,76.589155,10722.481770
443.354556,-153.178311,76.589155,10569.303459
443.354859,-153.178311,76.589155,10722.481770
443.355163,0.000000,-153.178311,10952.249236
443.355466,0.000000,-153.178311,10952.249236
443.355770,0.000000,0.000000,10722.481770
443.356073,0.000000,76.589155,10952.249236
443.356377,0.000000,76.589155,10799.070925
443.356680,-153.178311,0.000000,10799.070925
443.356983,-459.534933,229.767466,10799.070925
443.357287,382.945777,0.000000,10799.070925
443.357590,76.589155,76.589155,10952.249236
443.357894,0.000000,76.589155,10952.249236
443.358197,-153.178311,0.000000,11105.427547
443.358501,76.589155,0.000000,10722.481770
443.358804,76.589155,0.000000,10952.249236
443.359108,-306.356622,0.000000,10799.070925
443.359411,-153.178311,76.589155,10952.249236
443.359714,229.767466,229.767466,10722.481770
443.360018,-153.178311,0.000000,10952.249236
443.360321,-153.178311,76.589155,10722.481770
443.360625,76.589155,76.589155,10952.249236
443.360928,76.589155,0.000000,10952.249236
443.361232,-153.178311,0.000000,10952.249236
443.361535,0.000000,0.000000,10799.070925
443.361844,229.767466,76.589155,10722.481770
443.362147,-153.178311,76.589155,10722.481770
443.362449,-153.178311,76.589155,10569.303459
443.362752,0.000000,76.589155,11105.427547
443.363055,76.589155,-153.178311,10952.249236
443.363358,-153.178311,0.000000,10799.070925
443.363661,-153.178311,76.589155,10799.070925
443.363963,0.000000,76.589155,10722.481770
443.364273,0.000000,76.589155,10722.481770
443.364576,-306.356622,0.000000,10952.249236
443.364878,0.000000,0.000000,10952.249236
443.365181,0.000000,0.000000,10799.070925
443.365483,76.589155,0.000000,10952.249236
443.365786,-153.178311,76.589155,10799.070925
443.366088,76.589155,76.589155,11105.427547
443.366391,0.000000,76.589155,10952.249236
443.366694,-153.178311,76.589155,11105.427547
443.366997,-306.356622,229.767466,10799.070925
443.367301,0.000000,229.767466,10952.249236
443.367604,0.000000,76.589155,10952.249236
443.367908,-153.178311,76.589155,10799.070925
443.368211,-153.178311,76.589155,10799.070925
443.368515,76.589155,76.589155,10952.249236
443.368819,76.589155,0.000000,10722.481770
443.369134,-306.356622,76.589155,11105.427547
443.369436,76.589155,76.589155,10722.481770
443.369737,229.767466,229.767466,10569.303459
443.370039,-306.356622,0.000000,10952.249236
443.370341,-153.178311,76.589155,10799.070925
443.370642,229.767466,0.000000,11105.427547
443.370944,0.000000,0.000000,10799.070925
443.371246,-153.178311,229.767466,10799.070925
443.371561,-153.178311,-153.178311,10799.070925
443.371863,0.000000,0.000000,10952.249236
443.372165,-306.356622,76.589155,10952.249236
443.372466,-306.356622,76.589155,10722.481770
443.372768,0.000000,0.000000,10722.481770
443.373070,0.000000,76.589155,10722.481770
443.373372,-153.178311,0.000000,10799.070925
443.373674,-306.356622,76.589155,10799.070925
443.373977,76.589155,76.589155,10799.070925
443.374280,0.000000,229.767466,10799.070925
443.374584,0.000000,76.589155,10799.070925
443.374887,76.589155,0.000000,10799.070925
443.375191,76.589155,76.589155,10799.070925
443.375494,0.000000,76.589155,10952.249236
443.375798,0.000000,76.589155,11105.427547
443.376101,0.000000,0.000000,10799.070925
443.376404,-153.178311,229.767466,10799.070925
443.376708,-306.356622,0.000000,10799.070925
443.377011,76.589155,0.000000,10722.481770
443.377315,-153.178311,-153.178311,10799.070925
443.377619,0.000000,-153.178311,10952.249236
443.377922,0.000000,76.589155,10799.070925
443.378226,-153.178311,76.589155,10952.249236
443.378529,0.000000,76.589155,10722.481770
443.378833,-306.356622,76.589155,10722.481770
443.379136,0.000000,229.767466,10722.481770
443.379440,0.000000,0.000000,11105.427547
443.379743,-153.178311,229.767466,10952.249236
443.380047,-153.178311,0.000000,10952.249236
443.380350,76.589155,229.767466,10799.070925
443.380654,-306.356622,76.589155,11105.427547
443.380957,0.000000,76.589155,10952.249236
443.381277,76.589155,229.767466,10952.249236
443.381578,76.589155,-153.178311,10799.070925
443.381879,0.000000,0.000000,10952.249236
443.382180,0.000000,0.000000,10799.070925
443.382481,229.767466,0.000000,10799.070925
443.382783,76.589155,76.589155,10952.249236
443.383084,-306.356622,0.000000,10722.481770
443.383385,-153.178311,0.000000,10799.070925
443.383688,76.589155,229.767466,10799.070925
443.383992,-153.178311,0.000000,10799.070925
443.384295,-306.356622,0.000000,10799.070925
443.384599,0.000000,76.589155,10722.481770
443.384902,76.589155,-153.178311,10799.070925
443.385206,-612.713244,0.000000,10799.070925
443.385509,-306.356622,229.767466,10569.303459
443.385813,76.589155,76.589155,10952.249236
443.386119,-153.178311,0.000000,10722.481770
443.386422,-306.356622,76.589155,10952.249236
443.386725,-153.178311,76.589155,11105.427547
443.387028,76.589155,76.589155,10799.070925
443.387331,0.000000,76.589155,10952.249236
443.387634,-612.713244,0.000000,10952.249236
443.387937,-153.178311,382.945777,11105.427547
443.388240,229.767466,76.589155,10799.070925
443.388557,-306.356622,-153.178311,10799.070925
443.388858,76.589155,0.000000,10722.481770
443.389160,76.589155,-153.178311,11105.427547
443.389462,0.000000,0.000000,11105.427547
443.389763,-306.356622,-153.178311,10952.249236
443.390065,0.000000,-153.178311,10952.249236
443.390366,0.000000,76.589155,10799.070925
443.390668,-153.178311,0.000000,10722.481770
443.390971,0.000000,229.767466,10952.249236
443.391274,76.589155,229.767466,10722.481770
443.391578,0.000000,0.000000,10799.070925
443.391882,0.000000,0.000000,10952.249236
443.392185,0.000000,0.000000,10799.070925
443.392489,0.000000,-153.178311,10722.481770
443.392792,-306.356622,382.945777,10799.070925
443.393096,-306.356622,382.945777,10799.070925
443.393399,0.000000,229.767466,10722.481770
443.393702,0.000000,76.589155,10722.481770
443.394006,0.000000,229.767466,10952.249236
443.394309,0.000000,-153.178311,10799.070925
443.394613,0.000000,0.000000,10799.070925
443.394916,76.589155,0.000000,10722.481770
443.395220,-153.178311,0.000000,10799.070925
443.395523,-153.178311,-306.356622,10799.070925
443.395827,382.945777,76.589155,10799.070925
443.396130,0.000000,76.589155,10799.070925
443.396434,-306.356622,-153.178311,10799.070925
443.396737,76.589155,229.767466,10799.070925
443.397041,76.589155,-153.178311,10799.070925
443.397344,-306.356622,76.589155,11105.427547
443.397647,-153.178311,-153.178311,10799.070925
443.397951,0.000000,0.000000,10799.070925
443.398261,0.000000,76.589155,10799.070925
443.398564,-153.178311,229.767466,10722.481770
443.398866,0.000000,76.589155,11105.427547
443.399169,76.589155,0.000000,11105.427547
443.399471,76.589155,0.000000,10952.249236
443.399774,0.000000,-153.178311,10952.249236
443.400076,0.000000,-153.178311,10799.070925
443.400379,0.000000,229.767466,10799.070925
443.400682,-153.178311,0.000000,10799.070925
443.400986,229.767466,229.767466,10799.070925
443.401289,0.000000,229.767466,10799.070925
443.401592,76.589155,229.767466,10952.249236
443.401896,0.000000,0.000000,10799.070925
443.402199,76.589155,229.767466,10952.249236
443.402502,76.589155,229.767466,10722.481770
443.402806,-306.356622,0.000000,10799.070925
443.403113,-153.178311,229.767466,10722.481770
443.403416,0.000000,76.589155,10722.481770
443.403719,229.767466,76.589155,10952.249236
443.404022,-306.356622,0.000000,10799.070925
443.404325,0.000000,76.589155,10952.249236
443.404628,76.589155,76.589155,10799.070925
443.404931,0.000000,0.000000,10952.249236
443.405234,-306.356622,-153.178311,10799.070925
443.405545,-153.178311,76.589155,10799.070925
443.405848,76.589155,0.000000,10799.070925
443.406150,0.000000,0.000000,10952.249236
443.406452,-153.178311,0.000000,10952.249236
443.406755,76.589155,0.000000,11105.427547
443.407057,-153.178311,0.000000,10799.070925
443.407359,-153.178311,229.767466,10952.249236
443.407662,0.000000,76.589155,10722.481770
443.407965,76.589155,229.767466,10952.249236
443.408268,-306.356622,76.589155,10799.070925
443.408572,0.000000,229.767466,10952.249236
443.408875,76.589155,-153.178311,10952.249236
443.409179,0.000000,0.000000,10952.249236
443.409482,-459.534933,0.000000,10799.070925
443.409786,76.589155,76.589155,10722.481770
443.410090,76.589155,229.767466,10799.070925
443.410392,-153.178311,76.589155,10799.070925
443.410696,-153.178311,229.767466,10722.481770
443.410999,76.589155,76.589155,11105.427547
443.411303,0.000000,-306.356622,10722.481770
443.411607,-306.356622,-306.356622,10799.070925
443.411910,-306.356622,76.589155,11105.427547
443.412214,76.589155,229.767466,10799.070925
443.412517,0.000000,76.589155,10799.070925
443.412821,-153.178311,76.589155,10722.481770
443.413124,0.000000,0.000000,10799.070925
443.413427,76.589155,0.000000,10952.249236
443.413731,0.000000,-153.178311,10952.249236
443.414034,-153.178311,-153.178311,10952.249236
443.414338,76.589155,0.000000,10952.249236
443.414641,0.000000,229.767466,10952.249236
443.414944,-612.713244,76.589155,10722.481770
443.415256,-153.178311,76.589155,10722.481770
443.415558,0.000000,76.589155,10722.481770
443.415861,-153.178311,-153.178311,11105.427547
443.416163,-306.356622,-153.178311,11105.427547
443.416465,0.000000,-306.356622,11105.427547
443.416768,229.767466,-153.178311,11105.427547
443.417070,0.000000,76.589155,10952.249236
443.417373,-306.356622,382.945777,10722.481770
443.417675,76.589155,229.767466,10799.070925
443.417979,-153.178311,229.767466,10952.249236
443.418283,76.589155,0.000000,10952.249236
443.418586,0.000000,76.589155,10799.070925
443.418890,-153.178311,0.000000,10569.303459
443.419193,76.589155,-153.178311,11105.427547
443.419497,-153.178311,-153.178311,10722.481770
443.419800,-306.356622,76.589155,10569.303459
443.420103,76.589155,382.945777,10569.303459
443.420407,76.589155,536.124088,10722.481770
443.420710,-459.534933,-306.356622,10799.070925
443.421014,229.767466,-153.178311,10799.070925
443.421317,0.000000,-153.178311,10952.249236
443.421620,-153.178311,-306.356622,10952.249236
443.421924,-306.356622,0.000000,10722.481770
443.422227,76.589155,76.589155,10952.249236
443.422539,-153.178311,382.945777,10722.481770
443.422841,-153.178311,536.124088,10799.070925
443.423144,0.000000,76.589155,10952.249236
443.423446,76.589155,-153.178311,10952.249236
443.423749,0.000000,-306.356622,10799.070925
443.424051,-153.178311,-306.356622,11105.427547
443.424353,-153.178311,-153.178311,10952.249236
443.424656,0.000000,76.589155,10799.070925
443.424959,-153.178311,76.589155,10799.070925
443.425262,76.589155,382.945777,10722.481770
443.425566,76.589155,76.589155,10799.070925
443.425869,0.000000,229.767466,11105.427547
443.426173,0.000000,0.000000,10952.249236
443.426476,229.767466,-306.356622,10952.249236
443.426780,0.000000,0.000000,10799.070925
443.427084,-153.178311,0.000000,10799.070925
443.427386,0.000000,229.767466,10799.070925
443.427690,-153.178311,76.589155,10569.303459
443.427994,0.000000,-153.178311,10799.070925
443.428297,0.000000,-153.178311,10799.070925
443.428601,0.000000,0.000000,10952.249236
443.428904,0.000000,0.000000,10952.249236
443.429208,-153.178311,0.000000,10952.249236
443.429511,76.589155,382.945777,10952.249236
443.429814,-153.178311,229.767466,10722.481770
443.430118,-306.356622,76.589155,10799.070925
443.430421,0.000000,76.589155,10799.070925
443.430725,229.767466,-153.178311,10952.249236
443.431028,0.000000,-153.178311,10952.249236
443.431332,-306.356622,-153.178311,11105.427547
443.431636,382.945777,76.589155,11105.427547
443.431939,76.589155,0.000000,10799.070925
443.432243,-612.713244,76.589155,10799.070925
443.432546,-153.178311,76.589155,10722.481770
443.432850,229.767466,76.589155,10952.249236
443.433153,76.589155,0.000000,10799.070925
443.433457,-153.178311,-306.356622,10952.249236
443.433760,229.767466,-306.356622,10952.249236
443.434063,76.589155,76.589155,10799.070925
443.434367,-153.178311,229.767466,10799.070925
443.434670,-612.713244,76.589155,10569.303459
443.434973,0.000000,76.589155,10799.070925
443.435277,0.000000,76.589155,10722.481770
443.435580,0.000000,76.589155,10799.070925
443.435884,76.589155,0.000000,11105.427547
443.436187,0.000000,0.000000,10799.070925
443.436491,76.589155,76.589155,10952.249236
443.436794,-306.356622,0.000000,10799.070925
443.437098,-153.178311,382.945777,10722.481770
443.437402,0.000000,76.589155,10722.481770
443.437705,0.000000,0.000000,10722.481770
443.438008,-153.178311,76.589155,10952.249236
443.438312,0.000000,76.589155,10799.070925
443.438615,229.767466,0.000000,10799.070925
443.438918,229.767466,0.000000,11258.605858
443.439222,-153.178311,76.589155,10799.070925
443.439528,0.000000,229.767466,10799.070925
443.439832,-153.178311,76.589155,10952.249236
443.440135,-153.178311,76.589155,10722.481770
443.440438,0.000000,0.000000,10799.070925
443.440741,0.000000,76.589155,11258.605858
443.441044,229.767466,76.589155,10799.070925
443.441347,0.000000,-153.178311,10952.249236
443.441650,229.767466,76.589155,10799.070925
443.441976,-153.178311,76.589155,10799.070925
443.442276,-153.178311,76.589155,10952.249236
443.442577,-153.178311,-153.178311,10799.070925
443.442877,76.589155,0.000000,10799.070925
443.443177,-153.178311,76.589155,10799.070925
443.443478,0.000000,76.589155,10952.249236
443.443778,76.589155,76.589155,10799.070925
443.444078,76.589155,229.767466,10722.481770
443.444387,-153.178311,76.589155,10722.481770
443.444690,-306.356622,229.767466,10799.070925
443.444993,-153.178311,-153.178311,10952.249236
443.445295,0.000000,-153.178311,10799.070925
443.445598,0.000000,0.000000,10722.481770
443.445901,76.589155,0.000000,10952.249236
443.446203,76.589155,229.767466,10952.249236
443.446506,0.000000,-153.178311,10952.249236
443.446809,-153.178311,76.589155,10952.249236
443.447112,0.000000,382.945777,10799.070925
443.447416,-153.178311,229.767466,10952.249236
443.447719,-459.534933,0.000000,10952.249236
443.448023,0.000000,382.945777,11105.427547
443.448327,229.767466,0.000000,10799.070925
443.448630,-153.178311,76.589155,10722.481770
443.448934,-153.178311,76.589155,10952.249236
443.449238,76.589155,0.000000,10952.249236
443.449541,76.589155,76.589155,10952.249236
443.449844,0.000000,0.000000,10799.070925
443.450148,0.000000,0.000000,10952.249236
443.450451,229.767466,0.000000,10952.249236
443.450755,-153.178311,-153.178311,10799.070925
443.451058,-153.178311,0.000000,10799.070925
443.451361,-306.356622,76.589155,10952.249236
443.451664,76.589155,229.767466,10952.249236
443.451968,-153.178311,-153.178311,10952.249236
443.452271,-153.178311,0.000000,10799.070925
443.452575,76.589155,-153.178311,10952.249236
443.452878,-153.178311,76.589155,10952.249236
443.453181,0.000000,76.589155,10799.070925
443.453485,0.000000,76.589155,10799.070925
443.453788,0.000000,229.767466,10799.070925
443.454097,-306.356622,229.767466,10799.070925
443.454400,-153.178311,0.000000,10799.070925
443.454703,0.000000,229.767466,10952.249236
443.455005,-153.178311,-153.178311,10799.070925
443.455308,-153.178311,0.000000,10952.249236
443.455611,-153.178311,0.000000,10799.070925
443.455914,76.589155,-153.178311,10952.249236
443.456217,76.589155,76.589155,10952.249236
443.456522,-306.356622,0.000000,10952.249236
443.456825,0.000000,229.767466,10952.249236
443.457129,76.589155,229.767466,10799.070925
443.457432,-459.534933,76.589155,10952.249236
443.457735,0.000000,0.000000,11105.427547
443.458038,76.589155,76.589155,10952.249236
443.458341,0.000000,0.000000,10952.249236
443.458644,-306.356622,0.000000,10799.070925
443.458970,229.767466,0.000000,10799.070925
443.459270,382.945777,0.000000,10799.070925
443.459571,-153.178311,76.589155,10952.249236
443.459871,0.000000,76.589155,10569.303459
443.460171,76.589155,76.589155,10799.070925
443.460472,-153.178311,76.589155,10799.070925
443.460772,-306.356622,76.589155,11258.605858
443.461072,0.000000,76.589155,10722.481770
443.461381,0.000000,0.000000,10722.481770
443.461684,-306.356622,76.589155,10799.070925
443.461987,-153.178311,76.589155,10722.481770
443.462289,76.589155,76.589155,10952.249236
443.462592,0.000000,-153.178311,10799.070925
443.462895,-153.178311,-153.178311,10799.070925
443.463197,-153.178311,-153.178311,10952.249236
443.463500,229.767466,229.767466,10799.070925
443.463803,-153.178311,0.000000,10799.070925
443.464106,-306.356622,76.589155,10952.249236
443.464410,0.000000,382.945777,10799.070925
443.464713,0.000000,76.589155,10799.070925
443.465017,-153.178311,76.589155,11105.427547
443.465320,0.000000,0.000000,10952.249236
443.465624,-153.178311,0.000000,11258.605858
443.465927,-153.178311,0.000000,10799.070925
443.466230,0.000000,76.589155,11105.427547
443.466534,0.000000,229.767466,10952.249236
443.466838,76.589155,229.767466,10799.070925
443.467141,0.000000,76.589155,10799.070925
443.467445,382.945777,229.767466,10952.249236
443.467748,0.000000,0.000000,11105.427547
443.468052,-306.356622,-153.178311,10952.249236
443.468355,-153.178311,-153.178311,11105.427547
443.468658,76.589155,0.000000,10952.249236
443.468962,0.000000,-306.356622,10952.249236
443.469265,-153.178311,0.000000,10952.249236
443.469569,229.767466,229.767466,10799.070925
443.469872,229.767466,229.767466,10799.070925
443.470176,-612.713244,0.000000,10799.070925
443.470480,-153.178311,-153.178311,10799.070925
443.470783,0.000000,76.589155,10952.249236
443.471089,-153.178311,76.589155,10799.070925
443.471392,0.000000,0.000000,10799.070925
443.471695,0.000000,0.000000,10799.070925
443.471998,229.767466,382.945777,10952.249236
443.472302,-153.178311,0.000000,10799.070925
443.472605,-306.356622,76.589155,10952.249236
443.472908,382.945777,229.767466,10722.481770
443.473211,0.000000,0.000000,11105.427547
443.473528,-153.178311,229.767466,10952.249236
443.473829,0.000000,229.767466,10952.249236
443.474131,229.767466,76.589155,10952.249236
443.474432,76.589155,0.000000,10952.249236
443.474734,-306.356622,76.589155,10799.070925
443.475035,0.000000,0.000000,11105.427547
443.475337,0.000000,0.000000,10952.249236
443.475638,-306.356622,-306.356622,10799.070925
443.475946,-153.178311,0.000000,10952.249236
443.476249,0.000000,229.767466,10722.481770
443.476552,-153.178311,229.767466,10722.481770
443.476855,-306.356622,229.767466,10799.070925
443.477157,0.000000,229.767466,10722.481770
443.477460,-153.178311,0.000000,10952.249236
443.477763,-306.356622,76.589155,10952.249236
443.478066,-153.178311,-153.178311,10952.249236
443.478375,-153.178311,0.000000,10799.070925
443.478678,76.589155,229.767466,10569.303459
443.478981,-153.178311,0.000000,10722.481770
443.479283,-153.178311,382.945777,10569.303459
443.479586,229.767466,76.589155,10799.070925
443.479888,76.589155,0.000000,10952.249236
443.480191,-153.178311,0.000000,10952.249236
443.480494,0.000000,76.589155,10799.070925
443.480797,76.589155,76.589155,10799.070925
443.481100,0.000000,0.000000,10799.070925
443.481404,0.000000,-153.178311,10799.070925
443.481707,-153.178311,0.000000,10799.070925
443.482011,76.589155,-153.178311,10799.070925
443.482314,0.000000,-306.356622,10952.249236
443.482618,0.000000,76.589155,10799.070925
443.482922,0.000000,0.000000,10799.070925
443.483232,-153.178311,0.000000,10952.249236
443.483534,-153.178311,76.589155,10799.070925
443.483837,0.000000,76.589155,10722.481770
443.484139,0.000000,382.945777,10799.070925
443.484442,-153.178311,76.589155,10952.249236
443.484744,-306.356622,0.000000,11105.427547
443.485047,76.589155,76.589155,10799.070925
443.485349,0.000000,0.000000,10952.249236
443.485653,-306.356622,0.000000,10799.070925
443.485956,-153.178311,76.589155,11105.427547
443.486260,76.589155,0.000000,10799.070925
443.486563,0.000000,76.589155,10952.249236
443.486867,-306.356622,229.767466,10952.249236
443.487170,76.589155,76.589155,10952.249236
443.487473,76.589155,76.589155,10952.249236
443.487777,-153.178311,-153.178311,10952.249236
443.488082,-153.178311,76.589155,10952.249236
443.488385,0.000000,229.767466,10722.481770
443.488688,-153.178311,76.589155,10722.481770
443.488992,-153.178311,0.000000,10799.070925
443.489295,0.000000,0.000000,10952.249236
443.489598,76.589155,76.589155,10722.481770
443.489901,-153.178311,76.589155,10722.481770
443.490205,76.589155,76.589155,10799.070925
443.490521,0.000000,-153.178311,10952.249236
443.490823,0.000000,76.589155,10722.481770
443.491125,-153.178311,76.589155,10952.249236
443.491426,229.767466,0.000000,10952.249236
443.491728,-153.178311,76.589155,10952.249236
443.492029,76.589155,0.000000,10952.249236
443.492331,76.589155,-153.178311,10722.481770
443.492632,-153.178311,-153.178311,11105.427547
443.492951,229.767466,0.000000,10952.249236
443.493252,0.000000,0.000000,10952.249236
443.493553,-153.178311,229.767466,10722.481770
443.493855,76.589155,229.767466,10952.249236
443.494156,0.000000,76.589155,10952.249236
443.494457,0.000000,76.589155,10799.070925
443.494759,0.000000,0.000000,10722.481770
443.495060,0.000000,76.589155,10952.249236
443.495363,-306.356622,-153.178311,10952.249236
443.495667,-153.178311,76.589155,10722.481770
443.495970,0.000000,76.589155,10799.070925
443.496274,0.000000,229.767466,10799.070925
443.496577,-153.178311,229.767466,10799.070925
443.496881,-153.178311,76.589155,10722.481770
443.497184,-153.178311,0.000000,10722.481770
443.497488,-153.178311,0.000000,10799.070925
443.497791,-153.178311,0.000000,10799.070925
443.498094,229.767466,76.589155,10952.249236
443.498398,-153.178311,-306.356622,10952.249236
443.498701,-306.356622,0.000000,10799.070925
443.499005,0.000000,382.945777,10722.481770
443.499308,0.000000,229.767466,10799.070925
443.499612,-153.178311,76.589155,10799.070925
443.499915,0.000000,0.000000,10952.249236
443.500218,229.767466,76.589155,10799.070925
443.500522,0.000000,0.000000,10952.249236
443.500825,-153.178311,76.589155,10952.249236
443.501129,76.589155,76.589155,10722.481770
443.501432,0.000000,229.767466,10952.249236
443.501736,-153.178311,229.767466,10952.249236
443.502039,-153.178311,-153.178311,10799.070925
443.502343,536.124088,229.767466,10799.070925
443.502646,76.589155,0.000000,10952.249236
443.502950,0.000000,0.000000,10952.249236
443.503253,-153.178311,76.589155,10799.070925
443.503557,0.000000,76.589155,10952.249236
443.503860,-153.178311,229.767466,10799.070925
443.504164,-306.356622,76.589155,10799.070925
443.504467,0.000000,0.000000,10952.249236
443.504770,-153.178311,0.000000,10952.249236
443.505077,76.589155,-153.178311,11105.427547
443.505380,-153.178311,-306.356622,10952.249236
443.505683,0.000000,76.589155,10799.070925
443.505986,0.000000,76.589155,10722.481770
443.506289,0.000000,229.767466,10952.249236
443.506592,0.000000,229.767466,10799.070925
443.506895,0.000000,76.589155,10952.249236
443.507198,76.589155,76.589155,11105.427547
443.507520,-153.178311,76.589155,11105.427547
443.507821,-153.178311,0.000000,10952.249236
443.508122,0.000000,229.767466,10952.249236
443.508423,-153.178311,0.000000,10722.481770
443.508723,0.000000,229.767466,10952.249236
443.509024,-153.178311,76.589155,10799.070925
443.509325,0.000000,0.000000,10952.249236
443.509626,229.767466,-306.356622,10952.249236
443.509944,0.000000,-153.178311,10952.249236
443.510246,76.589155,-153.178311,10952.249236
443.510547,-153.178311,76.589155,10722.481770
443.510848,0.000000,0.000000,10799.070925
443.511149,76.589155,229.767466,10722.481770
443.511451,0.000000,76.589155,10722.481770
443.511752,-306.356622,76.589155,10952.249236
443.512053,76.589155,76.589155,10952.249236
443.512357,-153.178311,-153.178311,10799.070925
443.512661,-306.356622,76.589155,10952.249236
443.512964,0.000000,0.000000,10799.070925
443.513268,-153.178311,229.767466,10722.481770
443.513571,-153.178311,229.767466,10722.481770
443.513874,0.000000,76.589155,10799.070925
443.514178,229.767466,229.767466,10799.070925
443.514481,0.000000,-153.178311,10722.481770
443.514784,-153.178311,0.000000,10952.249236
443.515087,0.000000,0.000000,10799.070925
443.515391,76.589155,-306.356622,10952.249236
443.515694,0.000000,76.589155,10952.249236
443.515998,0.000000,76.589155,10722.481770
443.516301,0.000000,76.589155,11105.427547
443.516605,0.000000,76.589155,10952.249236
443.516908,76.589155,-153.178311,10722.481770
443.517217,-153.178311,-306.356622,11258.605858
443.517520,76.589155,0.000000,11105.427547
443.517823,76.589155,76.589155,10799.070925
443.518125,-153.178311,229.767466,10799.070925
443.518428,-459.534933,382.945777,10799.070925
443.518731,76.589155,382.945777,10799.070925
443.519034,0.000000,76.589155,10722.481770
443.519337,-153.178311,0.000000,11105.427547
443.519639,0.000000,0.000000,10952.249236
443.519943,0.000000,0.000000,10952.249236
443.520247,-306.356622,76.589155,10952.249236
443.520550,-306.356622,76.589155,10799.070925
443.520854,76.589155,229.767466,10799.070925
443.521157,76.589155,76.589155,10799.070925
443.521461,-153.178311,229.767466,10799.070925
443.521764,-153.178311,-153.178311,10952.249236
443.522067,76.589155,0.000000,10952.249236
443.522371,0.000000,-306.356622,10799.070925
443.522674,-153.178311,0.000000,10799.070925
443.522978,0.000000,229.767466,10799.070925
443.523281,76.589155,229.767466,10952.249236
443.523585,0.000000,229.767466,10799.070925
443.523888,0.000000,76.589155,10952.249236
443.524192,76.589155,0.000000,10799.070925
443.524514,76.589155,0.000000,10952.249236
443.524815,-153.178311,-306.356622,11105.427547
443.525116,-459.534933,0.000000,10952.249236
443.525417,229.767466,76.589155,10722.481770
443.525717,-153.178311,76.589155,10722.481770
443.526018,-306.356622,382.945777,10799.070925
443.526319,0.000000,0.000000,10952.249236
443.526620,229.767466,0.000000,11105.427547
443.526938,0.000000,0.000000,10799.070925
443.527240,-153.178311,-153.178311,10799.070925
443.527541,76.589155,0.000000,10952.249236
443.527842,0.000000,76.589155,10799.070925
443.528143,-153.178311,0.000000,10799.070925
443.528444,-153.178311,76.589155,10799.070925
443.528746,-153.178311,76.589155,10799.070925
443.529047,0.000000,-306.356622,10952.249236
443.529359,-306.356622,-153.178311,10799.070925
443.529661,0.000000,0.000000,10952.249236
443.529964,0.000000,0.000000,10799.070925
443.530266,0.000000,76.589155,10799.070925
443.530568,-153.178311,0.000000,10569.303459
443.530870,0.000000,382.945777,10722.481770
443.531173,-153.178311,229.767466,10722.481770
443.531475,0.000000,0.000000,10799.070925
443.531779,229.767466,76.589155,10799.070925
443.532082,76.589155,0.000000,10799.070925
443.532386,-153.178311,76.589155,10952.249236
443.532689,-153.178311,0.000000,10799.070925
443.532992,229.767466,76.589155,10799.070925
443.533296,0.000000,76.589155,10722.481770
443.533599,-153.178311,229.767466,10799.070925
443.533903,76.589155,76.589155,10952.249236
443.534214,76.589155,0.000000,10952.249236
443.534516,-306.356622,-153.178311,10799.070925
443.534819,-153.178311,0.000000,10952.249236
443.535121,-153.178311,76.589155,10952.249236
443.535423,-153.178311,76.589155,10952.249236
443.535726,-306.356622,-153.178311,10799.070925
443.536028,-306.356622,382.945777,10799.070925
443.536331,0.000000,-153.178311,10952.249236
443.536633,76.589155,229.767466,10952.249236
443.536937,-153.178311,0.000000,10799.070925
443.537241,-153.178311,229.767466,11105.427547
443.537544,229.767466,229.767466,10799.070925
443.537848,-153.178311,0.000000,10722.481770
443.538151,0.000000,76.589155,10722.481770
443.538455,-153.178311,76.589155,10722.481770
443.538758,382.945777,0.000000,10722.481770
443.539064,-306.356622,76.589155,10952.249236
443.539368,0.000000,76.589155,10952.249236
443.539671,0.000000,0.000000,10952.249236
443.539974,-153.178311,0.000000,10952.249236
443.540277,-306.356622,229.767466,10952.249236
443.540580,76.589155,0.000000,10799.070925
443.540883,0.000000,0.000000,10952.249236
443.541186,0.000000,-153.178311,10952.249236
443.541497,0.000000,0.000000,10952.249236
443.541799,-306.356622,0.000000,10722.481770
443.542102,0.000000,0.000000,10722.481770
443.542404,-459.534933,76.589155,10952.249236
443.542707,-153.178311,76.589155,10952.249236
443.543009,-153.178311,229.767466,10722.481770
443.543311,-153.178311,229.767466,10799.070925
443.543614,-153.178311,76.589155,10799.070925
443.543927,-153.178311,0.000000,10799.070925
443.544229,229.767466,76.589155,10952.249236
443.544531,-153.178311,0.000000,10799.070925
443.544833,0.000000,76.589155,11105.427547
443.545135,76.589155,76.589155,10799.070925
443.545437,229.767466,76.589155,10799.070925
443.545740,-306.356622,-153.178311,10799.070925
443.546042,229.767466,76.589155,10799.070925
443.546357,76.589155,-153.178311,10952.249236
443.546659,-153.178311,0.000000,10952.249236
443.546960,0.000000,0.000000,10799.070925
443.547262,76.589155,-153.178311,10952.249236
443.547564,-153.178311,76.589155,10799.070925
443.547866,-153.178311,76.589155,10722.481770
443.548168,-153.178311,229.767466,10569.303459
443.548469,0.000000,0.000000,10569.303459
443.548773,-306.356622,0.000000,10952.249236
443.549076,-153.178311,-153.178311,10799.070925
443.549380,-153.178311,76.589155,10952.249236
443.549683,-153.178311,0.000000,10799.070925
443.549987,-306.356622,-153.178311,10799.070925
443.550290,0.000000,229.767466,10799.070925
443.550594,0.000000,76.589155,10722.481770
443.550897,-153.178311,76.589155,10952.249236
443.551208,0.000000,-153.178311,10952.249236
443.551510,229.767466,-153.178311,10952.249236
443.551813,76.589155,76.589155,11105.427547
443.552115,0.000000,76.589155,10952.249236
443.552418,76.589155,-306.356622,11258.605858
443.552720,76.589155,0.000000,10952.249236
443.553022,76.589155,76.589155,10952.249236
443.553325,-153.178311,-153.178311,11105.427547
443.553628,0.000000,229.767466,10722.481770
443.553931,76.589155,0.000000,10952.249236
443.554235,0.000000,382.945777,10799.070925
443.554538,-153.178311,76.589155,10722.481770
443.554842,-153.178311,382.945777,10952.249236
443.555145,-306.356622,76.589155,10722.481770
443.555449,-153.178311,76.589155,10799.070925
443.555753,0.000000,0.000000,10799.070925
443.556059,-153.178311,0.000000,10722.481770
443.556362,0.000000,0.000000,10952.249236
443.556665,0.000000,229.767466,10799.070925
443.556968,-153.178311,76.589155,10799.070925
443.557271,-153.178311,76.589155,11105.427547
443.557574,-306.356622,229.767466,10799.070925
443.557877,-153.178311,229.767466,10952.249236
443.558180,0.000000,0.000000,10799.070925
443.558491,76.589155,0.000000,11105.427547
443.558794,229.767466,-153.178311,11105.427547
443.559096,0.000000,0.000000,10952.249236
443.559399,-153.178311,0.000000,10799.070925
443.559701,0.000000,76.589155,10952.249236
443.560003,76.589155,76.589155,10569.303459
443.560306,0.000000,0.000000,10799.070925
443.560608,-153.178311,76.589155,10799.070925
443.560921,0.000000,76.589155,10799.070925
443.561223,229.767466,76.589155,10952.249236
443.561525,-306.356622,-153.178311,10952.249236
443.561828,-306.356622,-153.178311,10799.070925
443.562130,0.000000,76.589155,10722.481770
443.562432,76.589155,0.000000,10799.070925
443.562734,-153.178311,229.767466,10722.481770
443.563036,0.000000,229.767466,10952.249236
443.563351,229.767466,76.589155,10952.249236
443.563653,76.589155,-153.178311,10952.249236
443.563955,-306.356622,76.589155,11105.427547
443.564257,-153.178311,0.000000,11105.427547
443.564558,229.767466,76.589155,10952.249236
443.564860,-306.356622,0.000000,10799.070925
443.565162,-153.178311,0.000000,10952.249236
443.565464,76.589155,0.000000,10799.070925
443.565767,0.000000,76.589155,10952.249236
443.566070,-306.356622,0.000000,10722.481770
443.566374,0.000000,76.589155,10952.249236
443.566677,229.767466,76.589155,10799.070925
443.566981,0.000000,0.000000,10722.481770
443.567284,-153.178311,0.000000,10722.481770
443.567588,0.000000,0.000000,11105.427547
443.567891,76.589155,76.589155,10799.070925
443.568196,-153.178311,0.000000,10799.070925
443.568499,-153.178311,0.000000,10799.070925
443.568803,229.767466,-153.178311,10952.249236
443.569106,0.000000,0.000000,10799.070925
443.569409,-306.356622,76.589155,10799.070925
443.569712,76.589155,76.589155,10952.249236
443.570016,76.589155,0.000000,10799.070925
443.570319,-153.178311,0.000000,10952.249236
443.570622,-306.356622,0.000000,10799.070925
443.570925,76.589155,76.589155,10799.070925
443.571229,0.000000,76.589155,10952.249236
443.571533,-153.178311,0.000000,10799.070925
443.571836,-153.178311,229.767466,10799.070925
443.572140,76.589155,76.589155,10799.070925
443.572443,-153.178311,76.589155,10952.249236
443.572747,-153.178311,76.589155,10799.070925
443.573053,-153.178311,229.767466,10799.070925
443.573356,0.000000,76.589155,10799.070925
443.573659,-153.178311,0.000000,10952.249236
443.573962,-153.178311,0.000000,10799.070925
443.574265,0.000000,229.767466,10722.481770
443.574568,-153.178311,76.589155,10952.249236
443.574871,-459.534933,0.000000,10952.249236
443.575175,0.000000,0.000000,10722.481770
443.575497,76.589155,0.000000,10799.070925
443.575798,-153.178311,0.000000,11105.427547
443.576098,-306.356622,0.000000,10722.481770
443.576399,76.589155,0.000000,11105.427547
443.576700,76.589155,0.000000,10952.249236
443.577001,-153.178311,76.589155,11105.427547
443.577301,0.000000,76.589155,10722.481770
443.577602,229.767466,0.000000,10799.070925
443.577905,-153.178311,-153.178311,11105.427547
443.578209,-153.178311,76.589155,10799.070925
443.578512,76.589155,0.000000,10799.070925
443.578816,229.767466,229.767466,10952.249236
443.579119,-306.356622,76.589155,10799.070925
443.579423,0.000000,229.767466,10952.249236
443.579726,0.000000,229.767466,10722.481770
443.580030,-153.178311,229.767466,10722.481770
443.580345,-153.178311,0.000000,10799.070925
443.580647,-153.178311,76.589155,10952.249236
443.580949,229.767466,-153.178311,11105.427547
443.581251,0.000000,0.000000,10799.070925
443.581552,-153.178311,0.000000,10799.070925
443.581854,-153.178311,76.589155,10722.481770
443.582156,382.945777,382.945777,10952.249236
443.582458,0.000000,0.000000,10799.070925
443.582761,-612.713244,76.589155,10952.249236
443.583064,229.767466,76.589155,10799.070925
443.583367,76.589155,76.589155,10799.070925
443.583671,-153.178311,-153.178311,11105.427547
443.583974,-306.356622,0.000000,10799.070925
443.584278,382.945777,76.589155,11105.427547
443.584581,229.767466,76.589155,10799.070925
443.584885,-153.178311,0.000000,10952.249236
443.585196,-153.178311,76.589155,11105.427547
443.585498,0.000000,0.000000,11105.427547
443.585801,229.767466,76.589155,10799.070925
443.586103,-306.356622,76.589155,10952.249236
443.586406,-153.178311,0.000000,10952.249236
443.586708,-306.356622,76.589155,10799.070925
443.587011,-153.178311,76.589155,10722.481770
443.587313,-306.356622,0.000000,10799.070925
443.587617,0.000000,0.000000,10799.070925
443.587920,229.767466,76.589155,10952.249236
443.588224,-306.356622,0.000000,10952.249236
443.588527,-153.178311,229.767466,10799.070925
443.588831,76.589155,229.767466,10799.070925
443.589134,0.000000,0.000000,10952.249236
443.589438,-153.178311,0.000000,10722.481770
443.589741,0.000000,0.000000,10952.249236
443.590044,229.767466,76.589155,10799.070925
443.590348,76.589155,-153.178311,10799.070925
443.590651,-306.356622,229.767466,10799.070925
443.590955,-153.178311,229.767466,10722.481770
443.591258,76.589155,0.000000,10952.249236
443.591562,0.000000,76.589155,10722.481770
443.591865,-153.178311,76.589155,10799.070925
443.592169,76.589155,0.000000,10799.070925
443.592472,76.589155,0.000000,10952.249236
443.592775,-153.178311,0.000000,10799.070925
443.593079,-153.178311,0.000000,10952.249236
443.593382,229.767466,229.767466,10952.249236
443.593686,-153.178311,229.767466,10952.249236
443.593989,-153.178311,0.000000,10952.249236
443.594293,0.000000,229.767466,11105.427547
443.594596,76.589155,-153.178311,11105.427547
443.594905,-153.178311,-153.178311,10799.070925
443.595208,0.000000,0.000000,10952.249236
443.595510,0.000000,76.589155,10722.481770
443.595813,-153.178311,229.767466,10952.249236
443.596116,0.000000,382.945777,10722.481770
443.596419,76.589155,76.589155,10952.249236
443.596721,76.589155,76.589155,10799.070925
443.597024,-153.178311,229.767466,10722.481770
443.597334,0.000000,-153.178311,10952.249236
443.597636,0.000000,76.589155,10799.070925
443.597939,0.000000,76.589155,10722.481770
443.598241,-153.178311,0.000000,11105.427547
443.598544,-306.356622,229.767466,10569.303459
443.598847,0.000000,76.589155,10569.303459
443.599149,0.000000,0.000000,10799.070925
443.599452,0.000000,0.000000,10952.249236
443.599755,-153.178311,-153.178311,10799.070925
443.600058,-306.356622,0.000000,10799.070925
443.600362,-153.178311,0.000000,10799.070925
443.600665,-153.178311,0.000000,10952.249236
443.600969,0.000000,76.589155,10722.481770
443.601272,229.767466,76.589155,10799.070925
443.601576,0.000000,76.589155,10952.249236
443.601879,-153.178311,0.000000,10952.249236
443.602184,-153.178311,0.000000,11105.427547
443.602487,-153.178311,0.000000,10799.070925
443.602790,-153.178311,-153.178311,10952.249236
443.603094,76.589155,76.589155,10799.070925
443.603397,0.000000,382.945777,11258.605858
443.603700,76.589155,382.945777,10799.070925
443.604003,0.000000,76.589155,11105.427547
443.604307,0.000000,76.589155,10952.249236
443.604611,0.000000,-153.178311,10722.481770
443.604914,-153.178311,76.589155,11105.427547
443.605218,-459.534933,76.589155,10799.070925
443.605521,76.589155,76.589155,10799.070925
443.605825,229.767466,76.589155,10799.070925
443.606128,76.589155,229.767466,10952.249236
443.606432,0.000000,76.589155,10952.249236
443.606735,0.000000,-153.178311,11105.427547
443.607038,76.589155,76.589155,10799.070925
443.607342,-306.356622,-153.178311,11105.427547
443.607645,-153.178311,76.589155,10722.481770
443.607949,0.000000,229.767466,10569.303459
443.608252,-306.356622,229.767466,10799.070925
443.608556,0.000000,229.767466,10799.070925
443.608859,-153.178311,76.589155,10799.070925
443.609163,-153.178311,0.000000,11105.427547
443.609466,0.000000,0.000000,10799.070925
443.609769,-153.178311,0.000000,10952.249236
443.610073,0.000000,-153.178311,11105.427547
443.610376,0.000000,229.767466,10799.070925
443.610680,76.589155,76.589155,10799.070925
443.610983,76.589155,229.767466,10799.070925
443.611287,0.000000,0.000000,10799.070925
443.611591,0.000000,-153.178311,10952.249236
443.611894,76.589155,0.000000,10952.249236
443.612197,-153.178311,0.000000,10799.070925
443.612501,-306.356622,0.000000,11105.427547
443.612804,0.000000,0.000000,10722.481770
443.613108,-153.178311,229.767466,10799.070925
443.613411,-153.178311,229.767466,10569.303459
443.613714,-306.356622,76.589155,10799.070925
443.614018,76.589155,-153.178311,10952.249236
443.614332,0.000000,76.589155,10952.249236
443.614634,76.589155,-153.178311,10799.070925
443.614936,-153.178311,0.000000,10952.249236
443.615238,0.000000,76.589155,10722.481770
443.615540,-153.178311,229.767466,10722.481770
443.615842,-612.713244,0.000000,10799.070925
443.616144,76.589155,382.945777,10722.481770
443.616446,229.767466,0.000000,10799.070925
443.616749,76.589155,-153.178311,10952.249236
443.617053,-153.178311,0.000000,10722.481770
443.617356,0.000000,76.589155,11105.427547
443.617660,76.589155,76.589155,10722.481770
443.617963,-459.534933,229.767466,10722.481770
443.618267,0.000000,76.589155,10722.481770
443.618570,0.000000,76.589155,10799.070925
443.618874,76.589155,-153.178311,10952.249236
443.619180,-153.178311,0.000000,10952.249236
443.619483,0.000000,0.000000,11105.427547
443.619786,76.589155,0.000000,11105.427547
443.620089,0.000000,76.589155,10952.249236
443.620392,-153.178311,229.767466,10799.070925
443.620695,0.000000,382.945777,10722.481770
443.620998,229.767466,229.767466,10799.070925
443.621301,0.000000,-153.178311,10952.249236
443.621616,0.000000,-153.178311,10799.070925
443.621918,76.589155,0.000000,10952.249236
443.622220,0.000000,0.000000,11105.427547
443.622522,-306.356622,76.589155,10952.249236
443.622824,-306.356622,382.945777,10952.249236
443.623125,0.000000,382.945777,10799.070925
443.623427,229.767466,0.000000,10799.070925
443.623729,-153.178311,76.589155,11105.427547
443.624049,0.000000,0.000000,10799.070925
443.624350,76.589155,-153.178311,10952.249236
443.624651,0.000000,0.000000,10952.249236
443.624952,-153.178311,0.000000,10799.070925
443.625254,0.000000,76.589155,10722.481770
443.625555,76.589155,76.589155,10722.481770
443.625856,-153.178311,76.589155,10569.303459
443.626157,0.000000,0.000000,10952.249236
443.626460,-153.178311,-153.178311,10799.070925
443.626763,0.000000,76.589155,10952.249236
443.627067,0.000000,-306.356622,10799.070925
443.627371,-153.178311,229.767466,10799.070925
443.627674,0.000000,76.589155,10799.070925
443.627978,76.589155,382.945777,10799.070925
443.628281,0.000000,76.589155,10799.070925
443.628585,-306.356622,0.000000,10799.070925
443.628888,0.000000,0.000000,10952.249236
443.629191,229.767466,-306.356622,10799.070925
443.629495,-306.356622,-153.178311,10799.070925
443.629798,-153.178311,76.589155,10799.070925
443.630102,76.589155,229.767466,10799.070925
443.630405,76.589155,76.589155,10952.249236
443.630709,-459.534933,229.767466,10952.249236
443.631012,0.000000,229.767466,10799.070925
443.631323,229.767466,-153.178311,10952.249236
443.631625,-459.534933,-153.178311,11105.427547
443.631928,-306.356622,0.000000,10799.070925
443.632230,76.589155,0.000000,10952.249236
443.632533,76.589155,229.767466,10722.481770
443.632835,-153.178311,229.767466,10722.481770
443.633138,0.000000,76.589155,10799.070925
443.633440,0.000000,76.589155,10569.303459
443.633744,-153.178311,76.589155,10799.070925
443.634047,-153.178311,-153.178311,11105.427547
443.634350,0.000000,76.589155,10722.481770
443.634654,0.000000,0.000000,11105.427547
443.634957,-459.534933,76.589155,10799.070925
443.635261,-153.178311,229.767466,10722.481770
443.635564,229.767466,0.000000,10952.249236
443.635867,0.000000,-153.178311,10952.249236
443.636173,-459.534933,-153.178311,10799.070925
443.636476,0.000000,0.000000,10799.070925
443.636780,76.589155,0.000000,10952.249236
443.637083,-153.178311,76.589155,10952.249236
443.637386,-153.178311,76.589155,10952.249236
443.637689,76.589155,229.767466,10952.249236
443.637992,76.589155,229.767466,10799.070925
443.638295,-459.534933,76.589155,10799.070925
443.638607,76.589155,0.000000,10799.070925
443.638909,76.589155,0.000000,10952.249236
443.639211,76.589155,0.000000,10952.249236
443.639514,-306.356622,0.000000,11105.427547
443.639816,76.589155,229.767466,10799.070925
443.640119,0.000000,76.589155,10722.481770
443.640421,-306.356622,229.767466,10799.070925
443.640723,-153.178311,0.000000,10952.249236
443.641043,229.767466,229.767466,10952.249236
443.641344,0.000000,0.000000,11105.427547
443.641646,-306.356622,0.000000,10952.249236
443.641947,76.589155,76.589155,10722.481770
443.642248,76.589155,0.000000,10799.070925
443.642549,-459.534933,-153.178311,10722.481770
443.642850,-306.356622,0.000000,10952.249236
443.643151,229.767466,229.767466,10799.070925
443.643454,0.000000,229.767466,10799.070925
443.643758,-459.534933,76.589155,10952.249236
443.644061,0.000000,76.589155,10799.070925
443.644365,0.000000,76.589155,11105.427547
443.644668,0.000000,76.589155,10952.249236
443.644972,-306.356622,229.767466,10722.481770
443.645275,0.000000,76.589155,10569.303459
443.645579,76.589155,0.000000,10799.070925
443.645882,0.000000,76.589155,10799.070925
443.646186,0.000000,0.000000,10722.481770
443.646489,229.767466,76.589155,10799.070925
443.646792,382.945777,76.589155,10799.070925
443.647096,-459.534933,0.000000,10799.070925
443.647399,-153.178311,229.767466,10799.070925
443.647703,0.000000,76.589155,10722.481770
443.648006,76.589155,76.589155,10799.070925
443.648317,-459.534933,-153.178311,10799.070925
443.648619,76.589155,0.000000,10799.070925
443.648922,382.945777,-153.178311,10799.070925
443.649224,-765.891555,-306.356622,10799.070925
443.649527,-153.178311,229.767466,10799.070925
443.649829,76.589155,229.767466,10799.070925
443.650132,-153.178311,76.589155,10952.249236
443.650434,-459.534933,76.589155,10722.481770
443.650738,76.589155,76.589155,10952.249236
443.651041,229.767466,76.589155,10799.070925
443.651345,0.000000,0.000000,10799.070925
443.651648,-306.356622,-153.178311,10952.249236
443.651952,76.589155,0.000000,10952.249236
443.652255,229.767466,76.589155,10722.481770
443.652558,-306.356622,76.589155,10799.070925
443.652862,-153.178311,0.000000,10952.249236
443.653166,382.945777,76.589155,10799.070925
443.653469,76.589155,-153.178311,11105.427547
443.653773,-153.178311,0.000000,10952.249236
443.654076,-153.178311,-153.178311,11105.427547
443.654379,76.589155,-153.178311,10952.249236
443.654682,-306.356622,0.000000,10799.070925
443.654986,-306.356622,-153.178311,10799.070925
443.655289,0.000000,76.589155,10799.070925
443.655601,76.589155,-153.178311,10799.070925
443.655903,-153.178311,0.000000,10799.070925
443.656205,-306.356622,-153.178311,10569.303459
443.656508,0.000000,0.000000,10799.070925
443.656810,-153.178311,76.589155,10799.070925
443.657113,-306.356622,229.767466,10799.070925
443.657415,76.589155,229.767466,10569.303459
443.657717,76.589155,229.767466,10722.481770
443.658020,-153.178311,382.945777,10722.481770
443.658324,76.589155,0.000000,10799.070925
443.658627,382.945777,0.000000,10952.249236
443.658931,0.000000,76.589155,10952.249236
443.659234,229.767466,0.000000,10799.070925
443.659538,-153.178311,76.589155,11105.427547
443.659841,76.589155,76.589155,10799.070925
443.660145,-153.178311,-306.356622,10952.249236
443.660448,76.589155,0.000000,10952.249236
443.660751,-153.178311,-306.356622,10952.249236
443.661055,-153.178311,-153.178311,10952.249236
443.661359,0.000000,-153.178311,10799.070925
443.661662,0.000000,-153.178311,10799.070925
443.661966,76.589155,229.767466,11105.427547
443.662269,0.000000,76.589155,10722.481770
443.662573,-306.356622,76.589155,10952.249236
443.662876,-153.178311,76.589155,10952.249236
443.663180,-153.178311,382.945777,10952.249236
443.663483,-153.178311,-153.178311,10799.070925
443.663787,0.000000,382.945777,10799.070925
443.664090,0.000000,76.589155,10569.303459
443.664394,0.000000,229.767466,10799.070925
443.664697,-306.356622,0.000000,10722.481770
443.665000,-153.178311,229.767466,10799.070925
443.665304,382.945777,0.000000,10799.070925
443.665608,0.000000,-153.178311,10799.070925
443.665911,-153.178311,-153.178311,10952.249236
443.666215,76.589155,0.000000,10799.070925
443.666518,0.000000,-153.178311,10799.070925
443.666821,0.000000,-153.178311,10799.070925
443.667125,-153.178311,0.000000,10722.481770
443.667428,76.589155,-153.178311,10722.481770
443.667731,-153.178311,0.000000,10799.070925
443.668035,-153.178311,-153.178311,10799.070925
443.668338,76.589155,0.000000,11105.427547
443.668642,0.000000,76.589155,10722.481770
443.668945,0.000000,76.589155,10952.249236
443.669249,-153.178311,0.000000,10799.070925
443.669552,229.767466,229.767466,10722.481770
443.669856,0.000000,76.589155,10799.070925
443.670159,-153.178311,229.767466,10952.249236
443.670462,76.589155,76.589155,11105.427547
443.670766,76.589155,0.000000,10952.249236
443.671070,0.000000,0.000000,11105.427547
443.671373,0.000000,0.000000,11105.427547
443.671677,-306.356622,76.589155,10799.070925
443.671980,-153.178311,229.767466,10799.070925
443.672284,-153.178311,0.000000,10799.070925
443.672594,229.767466,76.589155,10952.249236
443.672896,0.000000,76.589155,10799.070925
443.673199,-153.178311,0.000000,10952.249236
443.673501,-153.178311,0.000000,10952.249236
443.673804,-153.178311,-153.178311,10952.249236
443.674106,-153.178311,76.589155,10799.070925
443.674409,-306.356622,76.589155,10799.070925
443.674711,0.000000,229.767466,10799.070925
443.675037,0.000000,76.589155,10799.070925
443.675338,-153.178311,76.589155,10799.070925
443.675638,-153.178311,76.589155,10952.249236
443.675938,-153.178311,0.000000,10799.070925
443.676238,-153.178311,-153.178311,10799.070925
443.676539,0.000000,76.589155,10722.481770
443.676839,0.000000,76.589155,10722.481770
443.677139,0.000000,76.589155,10799.070925
443.677448,0.000000,0.000000,10799.070925
443.677751,0.000000,-153.178311,10952.249236
443.678053,382.945777,0.000000,10952.249236
443.678356,0.000000,0.000000,10952.249236
443.678659,-153.178311,-306.356622,11258.605858
443.678961,-306.356622,382.945777,10952.249236
443.679264,76.589155,-153.178311,10952.249236
443.679567,0.000000,76.589155,10952.249236
443.679870,-306.356622,229.767466,10722.481770
443.680173,229.767466,0.000000,11105.427547
443.680477,229.767466,76.589155,10952.249236
443.680780,-306.356622,-153.178311,10722.481770
443.681084,-459.534933,-153.178311,10952.249236
443.681387,0.000000,229.767466,10799.070925
443.681691,76.589155,76.589155,10799.070925
443.681994,0.000000,76.589155,10952.249236
443.682298,0.000000,382.945777,10569.303459
443.682602,229.767466,76.589155,10799.070925
443.682905,-153.178311,76.589155,10722.481770
443.683208,-306.356622,0.000000,10952.249236
443.683512,-153.178311,-306.356622,11105.427547
443.683815,229.767466,0.000000,10799.070925
443.684119,-153.178311,0.000000,10799.070925
443.684422,-459.534933,0.000000,10722.481770
443.684725,0.000000,76.589155,10799.070925
443.685028,229.767466,-153.178311,10952.249236
443.685332,-153.178311,-153.178311,11105.427547
443.685635,-306.356622,0.000000,10952.249236
443.685939,0.000000,0.000000,10799.070925
443.686242,-153.178311,76.589155,10799.070925
443.686546,-612.713244,76.589155,10799.070925
443.686849,-306.356622,382.945777,10799.070925
443.687156,229.767466,229.767466,10799.070925
443.687459,0.000000,0.000000,10952.249236
443.687762,0.000000,76.589155,11105.427547
443.688065,76.589155,0.000000,10722.481770
443.688368,229.767466,-153.178311,11105.427547
443.688671,-306.356622,76.589155,10799.070925
443.688974,0.000000,76.589155,11105.427547
443.689277,0.000000,229.767466,10722.481770
443.689589,-459.534933,-153.178311,10799.070925
443.689892,-1378.604799,-153.178311,11105.427547
443.690194,382.945777,0.000000,11105.427547
443.690496,995.659021,0.000000,10952.249236
443.690798,-1378.604799,-306.356622,10952.249236
443.691101,-1531.783110,0.000000,10799.070925
443.691403,536.124088,229.767466,10569.303459
443.691705,-153.178311,0.000000,10799.070925
443.692031,-306.356622,76.589155,10799.070925
443.692331,-1531.783110,-153.178311,10722.481770
443.692632,-612.713244,382.945777,11105.427547
443.692932,-1225.426488,0.000000,10799.070925
443.693232,-919.069866,229.767466,10799.070925
443.693532,-2527.442131,-306.356622,10722.481770
443.693833,-2221.085509,689.302399,10569.303459
443.694133,-2833.798753,-459.534933,10799.070925
443.694442,-2680.620442,229.767466,10569.303459
443.694745,-2374.263820,76.589155,10569.303459
443.695047,-3216.744531,-153.178311,10952.249236
443.695350,-2527.442131,-612.713244,11105.427547
443.695653,-2986.977064,0.000000,10952.249236
443.695955,-3140.155375,229.767466,10799.070925
443.696258,-1914.728887,536.124088,10799.070925
443.696561,-2374.263820,0.000000,10799.070925
443.696864,-3369.922842,536.124088,10952.249236
443.697167,-3676.279464,76.589155,10722.481770
443.697471,-5284.651729,382.945777,10952.249236
443.697774,-4288.992708,382.945777,10952.249236
443.698077,-2986.977064,76.589155,11105.427547
443.698381,-2986.977064,689.302399,11258.605858
443.698684,-3523.101153,1455.193954,10799.070925
443.698988,-3829.457775,1148.837332,10722.481770
443.699291,-3216.744531,689.302399,10722.481770
443.699595,-3216.744531,229.767466,10799.070925
443.699898,-1914.728887,76.589155,11105.427547
443.700202,-1225.426488,382.945777,11105.427547
443.700506,-306.356622,-612.713244,11258.605858
443.700809,-765.891555,-1072.248177,11718.140791
443.701113,-1761.550576,-1225.426488,11105.427547
443.701416,-1225.426488,-1072.248177,11564.962480
443.701719,-2067.907198,-1378.604799,11258.605858
443.702023,-1914.728887,-1531.783110,11258.605858
443.702326,-2833.798753,-2374.263820,11411.784169
443.702630,-3140.155375,-1378.604799,10952.249236
443.702933,-2527.442131,-919.069866,10416.125148
443.703237,-765.891555,-919.069866,10799.070925
443.703541,-153.178311,-306.356622,10952.249236
443.703844,76.589155,382.945777,10722.481770
443.704147,2144.496354,1455.193954,10722.481770
443.704451,1531.783110,1455.193954,10416.125148
443.704754,1455.193954,689.302399,10569.303459
443.705058,2297.674665,382.945777,10799.070925
443.705361,1531.783110,-153.178311,10569.303459
443.705665,-459.534933,-765.891555,10569.303459
443.705968,-1531.783110,-1072.248177,10569.303459
443.706272,-2221.085509,-1684.961421,10722.481770
443.706578,-3216.744531,-1531.783110,10799.070925
443.706881,-4288.992708,-1378.604799,10569.303459
443.707184,-4135.814397,-1531.783110,10722.481770
443.707487,-2680.620442,-1072.248177,11105.427547
443.707790,-1378.604799,1302.015643,10799.070925
443.708093,536.124088,2757.209598,10799.070925
443.708397,2604.031287,4212.403552,10416.125148
443.708700,4518.760174,4365.581863,10799.070925
443.709019,4059.225241,3369.922842,10799.070925
443.709320,2910.387909,2450.852976,10722.481770
443.709621,1531.783110,1761.550576,10799.070925
443.709922,-306.356622,382.945777,10952.249236
443.710224,-1608.372265,-1225.426488,11105.427547
443.710525,-3523.101153,-2374.263820,11564.962480
443.710826,-5744.186662,-3599.690308,11564.962480
443.711127,-6050.543284,-3599.690308,11871.319102
443.711437,-5744.186662,-2680.620442,11871.319102
443.711739,-5897.364973,-1684.961421,11718.140791
443.712042,-5437.830040,229.767466,11105.427547
443.712345,-5591.008351,1761.550576,10262.946837
443.712647,-5284.651729,2604.031287,9956.590215
443.712950,-3982.636086,3216.744531,9650.233593
443.713253,-2374.263820,3216.744531,9267.287815
443.713555,-612.713244,3063.566220,10109.768526
443.713858,1838.139732,3369.922842,10799.070925
443.714162,2757.209598,2297.674665,11411.784169
443.714465,2604.031287,1148.837332,11564.962480
443.714769,1531.783110,-459.534933,12177.675724
443.715072,-1378.604799,-1914.728887,12177.675724
443.715376,-2986.977064,-1914.728887,11411.784169
443.715679,-3829.457775,-2374.263820,11105.427547
443.715983,-3369.922842,-1914.728887,11105.427547
443.716288,-1608.372265,-765.891555,10799.070925
443.716591,-1072.248177,-306.356622,10722.481770
443.716894,-1531.783110,842.480710,10569.303459
443.717198,-3140.155375,-765.891555,10722.481770
443.717501,-4978.295107,-2067.907198,10799.070925
443.717804,-7046.202306,-3293.333686,10799.070925
443.718108,-7888.683016,-2986.977064,10416.125148
443.718411,-6433.489062,-2374.263820,10262.946837
443.718714,-4671.938485,-1531.783110,10569.303459
443.719017,-1761.550576,1608.372265,10569.303459
443.719321,1991.318043,3752.868619,10416.125148
443.719624,4748.527641,4518.760174,10722.481770
443.719928,5361.240885,3063.566220,11258.605858
443.720231,4212.403552,1455.193954,11564.962480
443.720535,3752.868619,1761.550576,11258.605858
443.720838,2910.387909,1608.372265,10722.481770
443.721144,76.589155,1455.193954,10109.768526
443.721447,-1608.372265,-153.178311,10109.768526
443.721750,-3829.457775,-2986.977064,10799.070925
443.722053,-5744.186662,-5054.884263,11871.319102
443.722357,-7352.558928,-5897.364973,11871.319102
443.722660,-4135.814397,-5208.062574,12330.854035
443.722963,-2986.977064,-6356.899906,12713.799813
443.723266,-3140.155375,842.480710,11564.962480
443.723583,-2986.977064,2450.852976,10722.481770
443.723885,1302.015643,4518.760174,9343.876971
443.724186,2757.209598,5667.597507,8960.931193
443.724488,4671.938485,4059.225241,10109.768526
443.724789,6356.899906,5591.008351,10262.946837
443.725091,6663.256528,5820.775818,10109.768526
443.725392,4518.760174,4212.403552,9803.411904
443.725694,-153.178311,842.480710,10416.125148
443.726001,-6586.667373,-4748.527641,11564.962480
443.726304,-11258.605858,-5361.240885,11411.784169
443.726607,-12177.675724,-6356.899906,10952.249236
443.726910,-9803.411904,-4748.527641,11718.140791
443.727213,-5591.008351,-1378.604799,11564.962480
443.727516,-1225.426488,1455.193954,11411.784169
443.727819,689.302399,1991.318043,11258.605858
443.728122,2450.852976,1991.318043,11105.427547
443.728431,3293.333686,2604.031287,11105.427547
443.728733,2297.674665,2910.387909,10799.070925
443.729036,1302.015643,4212.403552,9497.055282
443.729339,-2067.907198,1455.193954,9803.411904
443.729641,-2680.620442,-612.713244,10799.070925
443.729944,-2067.907198,-1531.783110,11718.140791
443.730247,-2067.907198,-765.891555,11411.784169
443.730549,-4288.992708,-2374.263820,12024.497413
443.730852,-4288.992708,-2986.977064,12713.799813
443.731156,-2221.085509,-1838.139732,12407.443191
443.731459,-153.178311,-919.069866,11564.962480
443.731763,536.124088,382.945777,11258.605858
443.732066,-1608.372265,1991.318043,10569.303459
443.732370,-4135.814397,3369.922842,9114.109504
443.732673,-2833.798753,2604.031287,8807.752882
443.732977,-153.178311,536.124088,9803.411904
443.733282,1148.837332,-459.534933,11105.427547
443.733585,-1072.248177,-153.178311,11564.962480
443.733889,-3523.101153,229.767466,10416.125148
443.734192,-6433.489062,-4288.992708,10722.481770
443.734495,-8654.574571,-6050.543284,12407.443191
443.734798,-9267.287815,-5667.597507,11718.140791
443.735101,-9267.287815,-1838.139732,10722.481770
443.735404,-6739.845684,-153.178311,9497.055282
443.735708,-612.713244,1991.318043,9497.055282
443.736011,6356.899906,2757.209598,10569.303459
443.736315,7735.504705,3906.046930,12177.675724
443.736618,6969.613150,6433.489062,10569.303459
443.736922,2604.031287,4212.403552,9956.590215
443.737225,2757.209598,689.302399,10952.249236
443.737529,3599.690308,-1684.961421,12024.497413
443.737832,-153.178311,-919.069866,11871.319102
443.738137,-7505.737239,-306.356622,9497.055282
443.738440,-11718.140791,-4288.992708,10416.125148
443.738743,-4978.295107,-5897.364973,12560.621502
443.739047,2297.674665,-2680.620442,13173.334746
443.739350,2450.852976,995.659021,12177.675724
443.739653,536.124088,3369.922842,10799.070925
443.739957,536.124088,1838.139732,11105.427547
443.740260,1838.139732,76.589155,11258.605858
443.740582,-8195.039638,1302.015643,9267.287815
443.740883,-9803.411904,2757.209598,7352.558928
443.741184,-4288.992708,842.480710,9114.109504
443.741484,-765.891555,842.480710,10109.768526
443.741785,-612.713244,1302.015643,11105.427547
443.742086,-612.713244,1761.550576,10952.249236
443.742387,-1072.248177,-306.356622,11105.427547
443.742688,1531.783110,-4442.171019,13173.334746
443.742995,-1914.728887,-3982.636086,13786.047990
443.743298,-5284.651729,229.767466,10262.946837
443.743601,-5131.473418,995.659021,9650.233593
443.743904,7122.791461,1761.550576,10799.070925
443.744207,13709.458834,4059.225241,12330.854035
443.744509,9343.876971,7352.558928,10722.481770
443.744812,3906.046930,6433.489062,8654.574571
443.745115,3599.690308,-1684.961421,11564.962480
443.745425,1531.783110,-4288.992708,13479.691368
443.745728,-8960.931193,-3829.457775,10569.303459
443.746030,-13020.156435,-6050.543284,9956.590215
443.746333,-6433.489062,-8271.628794,11718.140791
443.746635,-2833.798753,-5208.062574,12407.443191
443.746938,-2833.798753,-153.178311,11105.427547
443.747240,536.124088,3906.046930,9803.411904
443.747543,6127.132440,2910.387909,10952.249236
443.747846,4059.225241,1761.550576,11718.140791
443.748149,-306.356622,4059.225241,9497.055282
443.748453,-4288.992708,2450.852976,7735.504705
443.748756,-612.713244,76.589155,9956.590215
443.749060,5973.954129,689.302399,10722.481770
443.749363,5208.062574,2297.674665,10262.946837
443.749667,229.767466,1455.193954,10262.946837
443.749970,536.124088,-1914.728887,11871.319102
443.750276,1148.837332,-3982.636086,13326.513057
443.750579,-4442.171019,-4442.171019,12177.675724
443.750882,-6280.310751,-3599.690308,10799.070925
443.751185,-1761.550576,-2833.798753,11105.427547
443.751489,2910.387909,0.000000,11105.427547
443.751792,3446.511997,5437.830040,9956.590215
443.752095,3752.868619,8041.861327,8195.039638
443.752398,7122.791461,5284.651729,9956.590215
443.752702,7965.272172,3523.101153,11871.319102
443.753005,4518.760174,2450.852976,11105.427547
443.753309,-4135.814397,-459.534933,10262.946837
443.753612,-7505.737239,-3829.457775,10569.303459
443.753916,-2374.263820,-4288.992708,11564.962480
443.754219,-2067.907198,-3599.690308,11718.140791
443.754523,-4288.992708,-919.069866,10416.125148
443.754826,-3982.636086,-153.178311,10722.481770
443.755133,-1072.248177,-1225.426488,11564.962480
443.755436,-919.069866,-1914.728887,12407.443191
443.755739,-1531.783110,-306.356622,10952.249236
443.756042,382.945777,842.480710,9650.233593
443.756345,3752.868619,1761.550576,10262.946837
443.756648,3446.511997,2604.031287,10416.125148
443.756951,2757.209598,5667.597507,9267.287815
443.757254,1531.783110,3063.566220,9956.590215
443.757557,5361.240885,995.659021,11411.784169
443.757860,5208.062574,-919.069866,12407.443191
443.758164,-3829.457775,-2833.798753,12024.497413
443.758467,-8041.861327,-3293.333686,10722.481770
443.758771,-3676.279464,-4748.527641,10952.249236
443.759075,-612.713244,-3446.511997,11718.140791
443.759378,-1531.783110,229.767466,10109.768526
443.759682,-4288.992708,2910.387909,8654.574571
443.760001,-4671.938485,1302.015643,9803.411904
443.760302,-765.891555,76.589155,11105.427547
443.760603,2297.674665,0.000000,10799.070925
443.760904,-3676.279464,-919.069866,10416.125148
443.761205,-4135.814397,-2067.907198,10416.125148
443.761507,1302.015643,-1225.426488,11718.140791
443.761808,-765.891555,689.302399,10952.249236
443.762109,-3140.155375,2910.387909,9803.411904
443.762413,229.767466,689.302399,10799.070925
443.762716,5208.062574,-153.178311,12866.978124
443.763020,1991.318043,-765.891555,12560.621502
443.763323,-2680.620442,1302.015643,10569.303459
443.763627,76.589155,0.000000,11105.427547
443.763930,5973.954129,76.589155,12024.497413
443.764234,5820.775818,2910.387909,10799.070925
443.764537,-153.178311,4671.938485,9267.287815
443.764840,-4825.116796,1838.139732,8960.931193
443.765144,-1378.604799,-1531.783110,11564.962480
443.765447,-612.713244,-3599.690308,12560.621502
443.765751,-4825.116796,-3293.333686,11105.427547
443.766054,-7352.558928,-3982.636086,10952.249236
443.766358,-3140.155375,-2986.977064,11411.784169
443.766661,-1531.783110,-612.713244,11411.784169
443.766965,-1608.372265,3752.868619,9114.109504
443.767276,382.945777,4671.938485,8807.752882
443.767578,4365.581863,1991.318043,10722.481770
443.767881,4748.527641,1608.372265,11564.962480
443.768183,1302.015643,3063.566220,10722.481770
443.768485,382.945777,536.124088,10109.768526
443.768788,5208.062574,995.659021,11411.784169
443.769090,6969.613150,-459.534933,12024.497413
443.769393,4748.527641,2450.852976,11105.427547
443.769695,-2374.263820,1455.193954,9497.055282
443.769999,-3523.101153,-2527.442131,11105.427547
443.770303,-612.713244,-4748.527641,12713.799813
443.770606,-2374.263820,-5208.062574,12407.443191
443.770910,-4135.814397,-3293.333686,11258.605858
443.771213,-1914.728887,-3140.155375,11105.427547
443.771517,2144.496354,0.000000,11564.962480
443.771820,1302.015643,3216.744531,10569.303459
443.772123,1302.015643,6433.489062,8654.574571
443.772427,3752.868619,4212.403552,9650.233593
443.772730,3906.046930,76.589155,11411.784169
443.773034,1684.961421,382.945777,11718.140791
443.773337,-4595.349330,-459.534933,10569.303459
443.773641,-6433.489062,-2833.798753,10109.768526
443.773944,0.000000,-2374.263820,11411.784169
443.774248,4365.581863,-1531.783110,11411.784169
443.774570,-612.713244,1455.193954,9956.590215
443.774871,-3829.457775,842.480710,9343.876971
443.775172,-1531.783110,-1225.426488,11258.605858
443.775473,-153.178311,-3752.868619,12024.497413
443.775773,-765.891555,-1531.783110,10799.070925
443.776074,229.767466,-2067.907198,10262.946837
443.776375,2297.674665,-1072.248177,11564.962480
443.776676,3752.868619,2450.852976,10722.481770
443.776989,1991.318043,5973.954129,9803.411904
443.777291,2144.496354,4518.760174,9114.109504
443.777593,4059.225241,1761.550576,10952.249236
443.777895,2144.496354,-2221.085509,12560.621502
443.778197,-3982.636086,-919.069866,11411.784169
443.778499,-7658.915550,-2680.620442,10416.125148
443.778801,-2680.620442,-3293.333686,11258.605858
443.779103,1991.318043,-1838.139732,11871.319102
443.779419,1455.193954,1302.015643,11105.427547
443.779721,-3523.101153,2604.031287,9267.287815
443.780022,-3140.155375,689.302399,9803.411904
443.780324,76.589155,-2986.977064,12330.854035
443.780626,1148.837332,-1531.783110,11718.140791
443.780928,-3676.279464,-765.891555,10416.125148
443.781229,-3676.279464,-1531.783110,10416.125148
443.781531,1531.783110,76.589155,11411.784169
443.781835,1531.783110,1991.318043,10722.481770
443.782138,382.945777,4518.760174,9497.055282
443.782442,1684.961421,2297.674665,9650.233593
443.782745,5361.240885,382.945777,12330.854035
443.783048,1838.139732,-1225.426488,12177.675724
443.783352,-3140.155375,382.945777,10722.481770
443.783655,-1225.426488,-2221.085509,10952.249236
443.783959,5208.062574,-1378.604799,11718.140791
443.784270,4518.760174,1302.015643,11105.427547
443.784572,-153.178311,3906.046930,9114.109504
443.784875,-3829.457775,1838.139732,8960.931193
443.785177,-1225.426488,-1531.783110,11105.427547
443.785479,-919.069866,-3599.690308,12024.497413
443.785782,-3829.457775,-2833.798753,11258.605858
443.786084,-5591.008351,-4135.814397,10952.249236
443.786387,-1225.426488,-5054.884263,11411.784169
443.786689,-612.713244,1761.550576,11105.427547
443.786993,-765.891555,5284.651729,8807.752882
443.787297,1531.783110,4059.225241,8960.931193
443.787600,5514.419196,3063.566220,10416.125148
443.787904,4748.527641,689.302399,11871.319102
443.788207,-612.713244,382.945777,10722.481770
443.788511,-4135.814397,-612.713244,10262.946837
443.788814,2144.496354,-2374.263820,11105.427547
443.789121,5514.419196,-306.356622,11718.140791
443.789424,1455.193954,2297.674665,9956.590215
443.789727,-4671.938485,1761.550576,9114.109504
443.790030,-4595.349330,-1838.139732,10799.070925
443.790333,-765.891555,-3599.690308,12177.675724
443.790636,-306.356622,-4748.527641,12177.675724
443.790939,-6739.845684,-4442.171019,10952.249236
443.791242,-3982.636086,-2680.620442,10952.249236
443.791553,3293.333686,-612.713244,11871.319102
443.791855,3063.566220,5437.830040,9650.233593
443.792158,689.302399,7199.380617,8195.039638
443.792460,3293.333686,3752.868619,9267.287815
443.792763,5667.597507,1991.318043,11564.962480
443.793065,2450.852976,-459.534933,11564.962480
443.793367,-4978.295107,382.945777,10722.481770
443.793670,-4825.116796,-2527.442131,10262.946837
443.793983,229.767466,-2986.977064,12024.497413
443.794285,1302.015643,-1531.783110,11411.784169
443.794587,-3216.744531,689.302399,10109.768526
443.794889,-6280.310751,-153.178311,9803.411904
443.795191,-1761.550576,-1225.426488,11105.427547
443.795493,229.767466,-3829.457775,12713.799813
443.795795,-1608.372265,-1838.139732,11564.962480
443.796098,-1608.372265,-1378.604799,10569.303459
443.796418,2144.496354,-765.891555,11871.319102
443.796719,4671.938485,2144.496354,11105.427547
443.797020,3063.566220,6127.132440,9343.876971
443.797321,1531.783110,5667.597507,8807.752882
443.797622,6203.721595,2297.674665,10722.481770
443.797923,5973.954129,-1531.783110,12866.978124
443.798224,-1914.728887,-2833.798753,12330.854035
443.798525,-6739.845684,-2833.798753,11105.427547
443.798828,-2221.085509,-3293.333686,10799.070925
443.799132,3293.333686,-2986.977064,11871.319102
443.799435,536.124088,0.000000,11105.427547
443.799739,-4135.814397,3063.566220,8654.574571
443.800042,-3140.155375,76.589155,9650.233593
443.800346,76.589155,-2374.263820,11871.319102
443.800649,1684.961421,-1914.728887,12177.675724
443.800953,-2067.907198,-1072.248177,10569.303459
443.801264,-612.713244,-459.534933,10722.481770
443.801566,3446.511997,0.000000,11411.784169
443.801869,2757.209598,3906.046930,10569.303459
443.802171,-153.178311,6127.132440,8501.396260
443.802474,2450.852976,3063.566220,9497.055282
443.802776,5820.775818,-612.713244,12177.675724
443.803078,1684.961421,-1914.728887,12407.443191
443.803381,-3982.636086,-919.069866,10799.070925
443.803684,-1072.248177,-2527.442131,10952.249236
443.803987,6203.721595,-1378.604799,12560.621502
443.804291,4059.225241,229.767466,11258.605858
443.804594,-1608.372265,4825.116796,8501.396260
443.804898,-4671.938485,689.302399,9497.055282
443.805201,1302.015643,-1225.426488,11564.962480
443.805505,1838.139732,-3140.155375,12330.854035
443.805809,-3216.744531,-1684.961421,11258.605858
443.806112,-2986.977064,-2221.085509,11105.427547
443.806415,1531.783110,-1072.248177,11871.319102
443.806719,689.302399,1991.318043,11105.427547
443.807022,-919.069866,6127.132440,8348.217949
443.807326,689.302399,4059.225241,9114.109504
443.807629,3293.333686,995.659021,11564.962480
443.807933,2450.852976,842.480710,11564.962480
443.808236,-4135.814397,-919.069866,10416.125148
443.808547,-5591.008351,-2680.620442,11105.427547
443.808850,536.124088,-3446.511997,12177.675724
443.809152,4212.403552,1148.837332,11411.784169
443.809455,-1608.372265,3523.101153,9267.287815
443.809757,-4288.992708,1608.372265,9343.876971
443.810059,-2986.977064,-1378.604799,11411.784169
443.810362,-765.891555,-2527.442131,12407.443191
443.810664,-2833.798753,-2067.907198,11258.605858
443.810972,-4288.992708,-2986.977064,11105.427547
443.811275,-612.713244,-1838.139732,11718.140791
443.811578,2757.209598,1761.550576,11411.784169
443.811881,1991.318043,5973.954129,9497.055282
443.812184,842.480710,5820.775818,8348.217949
443.812486,2757.209598,1991.318043,10109.768526
443.812789,3446.511997,995.659021,12024.497413
443.813092,-1608.372265,-1225.426488,11105.427547
443.813407,-6739.845684,-2527.442131,10952.249236
443.813709,-5591.008351,-4595.349330,11411.784169
443.814011,1684.961421,-2374.263820,11871.319102
443.814312,229.767466,536.124088,10952.249236
443.814614,-3829.457775,2144.496354,9497.055282
443.814916,-4595.349330,689.302399,10416.125148
443.815218,-919.069866,-919.069866,11564.962480
443.815519,229.767466,-1684.961421,12177.675724
443.815822,-1225.426488,-1838.139732,10799.070925
443.816126,-765.891555,-1914.728887,11258.605858
443.816429,2910.387909,229.767466,12024.497413
443.816733,5667.597507,4978.295107,10262.946837
443.817037,2604.031287,7046.202306,8960.931193
443.817340,4365.581863,4365.581863,9650.233593
443.817644,4365.581863,536.124088,11411.784169
443.817947,-919.069866,-1378.604799,11871.319102
443.818252,-3829.457775,-2986.977064,10952.249236
443.818555,-6280.310751,-4135.814397,10799.070925
443.818859,-2986.977064,-5054.884263,12330.854035
443.819162,2757.209598,-1378.604799,11718.140791
443.819465,536.124088,3369.922842,9497.055282
443.819769,-3216.744531,1302.015643,9114.109504
443.820072,-2986.977064,76.589155,10799.070925
443.820375,1991.318043,-1531.783110,12024.497413
443.820678,1148.837332,-459.534933,10952.249236
443.820981,-2221.085509,-1378.604799,10569.303459
443.821285,1455.193954,-1225.426488,11564.962480
443.821589,3140.155375,1838.139732,11564.962480
443.821892,3140.155375,5667.597507,9497.055282
443.822196,3140.155375,5437.830040,8960.931193
443.822499,3293.333686,2297.674665,10722.481770
443.822803,3140.155375,-765.891555,12407.443191
443.823109,-919.069866,-1378.604799,11411.784169
443.823412,-5591.008351,-2374.263820,10952.249236
443.823715,-3216.744531,-3982.636086,11411.784169
443.824018,2604.031287,-1914.728887,11718.140791
443.824321,2910.387909,1302.015643,10722.481770
443.824624,-1072.248177,3523.101153,9114.109504
443.824928,-2067.907198,1302.015643,9803.411904
443.825231,689.302399,-1378.604799,11871.319102
443.825534,2604.031287,-1838.139732,11871.319102
443.825837,-1914.728887,-2527.442131,11258.605858
443.826141,-3140.155375,-1838.139732,10569.303459
443.826444,229.767466,-1072.248177,11411.784169
443.826748,1148.837332,2144.496354,10799.070925
443.827051,1531.783110,6280.310751,8654.574571
443.827355,2910.387909,3676.279464,9497.055282
443.827658,3599.690308,689.302399,11871.319102
443.827961,2757.209598,-919.069866,12713.799813
443.828265,-2527.442131,-1225.426488,11564.962480
443.828568,-4825.116796,-1914.728887,10569.303459
443.828872,689.302399,-2374.263820,10952.249236
443.829175,2910.387909,-1072.248177,12177.675724
443.829479,689.302399,2757.209598,9803.411904
443.829783,-4595.349330,2450.852976,8654.574571
443.830086,-1914.728887,-919.069866,10952.249236
443.830401,1838.139732,-3446.511997,12713.799813
443.830703,-1531.783110,-3293.333686,12407.443191
443.831005,-3676.279464,-1072.248177,10952.249236
443.831307,-1914.728887,-919.069866,9956.590215
443.831609,1148.837332,536.124088,11564.962480
443.831910,1531.783110,4978.295107,9803.411904
443.832212,995.659021,6127.132440,8501.396260
443.832514,1991.318043,2144.496354,10262.946837
443.832817,3063.566220,229.767466,11871.319102
443.833120,1531.783110,-612.713244,12024.497413
443.833424,-5897.364973,-1225.426488,10569.303459
443.833727,-6050.543284,-2680.620442,10569.303459
443.834031,1991.318043,-2986.977064,12330.854035
443.834334,0.000000,229.767466,10799.070925
443.834638,-3982.636086,3063.566220,8960.931193
443.834941,-4825.116796,0.000000,10262.946837
443.835261,-459.534933,-1531.783110,12177.675724
443.835562,1838.139732,-4442.171019,13326.513057
443.835863,-1225.426488,-1225.426488,11718.140791
443.836164,-3829.457775,-1531.783110,10416.125148
443.836465,2910.387909,76.589155,11564.962480
443.836767,3140.155375,3752.868619,10722.481770
443.837068,382.945777,7582.326394,8501.396260
443.837369,3446.511997,4365.581863,9497.055282
443.837673,6127.132440,1148.837332,11564.962480
443.837976,1991.318043,-1225.426488,12560.621502
443.838280,-4288.992708,-1072.248177,11411.784169
443.838583,-5897.364973,-1684.961421,9956.590215
443.838887,-1914.728887,-4748.527641,11871.319102
443.839190,2757.209598,-2221.085509,11871.319102
443.839494,-1225.426488,2297.674665,9650.233593
443.839797,-4442.171019,1608.372265,8960.931193
443.840100,-2527.442131,-1225.426488,11105.427547
443.840404,842.480710,-2986.977064,12713.799813
443.840707,229.767466,-2680.620442,11871.319102
443.841011,-1608.372265,-1072.248177,10722.481770
443.841314,842.480710,-612.713244,10952.249236
443.841618,2910.387909,1455.193954,11105.427547
443.841921,1838.139732,5973.954129,9343.876971
443.842225,842.480710,5820.775818,8501.396260
443.842528,2450.852976,2144.496354,10262.946837
443.842831,4212.403552,-765.891555,12560.621502
443.843135,995.659021,-306.356622,11871.319102
443.843438,-4825.116796,-612.713244,10799.070925
443.843742,-2221.085509,-2067.907198,10799.070925
443.844045,4518.760174,-1684.961421,12024.497413
443.844349,1302.015643,1455.193954,10722.481770
443.844653,-3523.101153,3523.101153,8654.574571
443.844955,-4595.349330,0.000000,10109.768526
443.845259,689.302399,-2986.977064,12024.497413
443.845562,0.000000,-4288.992708,13173.334746
443.845866,-2527.442131,-1531.783110,11564.962480
443.846169,-1225.426488,-1684.961421,10952.249236
443.846473,-459.534933,-1225.426488,12024.497413
443.846776,382.945777,4365.581863,10569.303459
443.847080,1455.193954,5667.597507,8807.752882
443.847396,1531.783110,4059.225241,9343.876971
443.847698,3599.690308,1608.372265,11258.605858
443.847999,2910.387909,-765.891555,12713.799813
443.848301,-1378.604799,-459.534933,10952.249236
443.848603,-3140.155375,-1225.426488,10569.303459
443.848905,3446.511997,-1072.248177,11411.784169
443.849206,3752.868619,-919.069866,12177.675724
443.849508,-1072.248177,3676.279464,9343.876971
443.849811,-5897.364973,995.659021,9114.109504
443.850115,-2221.085509,-1838.139732,10952.249236
443.850418,-306.356622,-4442.171019,12713.799813
443.850722,-1761.550576,-4442.171019,12407.443191
443.851025,-3676.279464,-1531.783110,11105.427547
443.851329,536.124088,-2680.620442,11411.784169
443.851632,2450.852976,1455.193954,11411.784169
443.851936,995.659021,5591.008351,9650.233593
443.852242,1684.961421,5437.830040,8654.574571
443.852545,2450.852976,2604.031287,10262.946837
443.852848,3752.868619,-153.178311,11564.962480
443.853151,1531.783110,-1225.426488,11871.319102
443.853454,-5437.830040,-1225.426488,10416.125148
443.853757,-2986.977064,-2221.085509,10722.481770
443.854060,4671.938485,-1914.728887,12177.675724
443.854363,842.480710,689.302399,10262.946837
443.854667,-3829.457775,2757.209598,8960.931193
443.854970,-3982.636086,-1378.604799,10262.946837
443.855274,-153.178311,-2680.620442,11871.319102
443.855577,-1608.372265,-4595.349330,12407.443191
443.855881,-3140.155375,-2680.620442,11411.784169
443.856184,-765.891555,-1684.961421,11258.605858
443.856488,2297.674665,229.767466,11718.140791
443.856791,2757.209598,4518.760174,10799.070925
443.857094,1838.139732,7505.737239,8807.752882
443.857398,3906.046930,5437.830040,9497.055282
443.857701,4748.527641,1608.372265,11411.784169
443.858005,229.767466,-612.713244,12024.497413
443.858308,-3369.922842,-919.069866,11258.605858
443.858612,-7046.202306,-2374.263820,10952.249236
443.858915,229.767466,-2221.085509,11871.319102
443.859219,2757.209598,-1225.426488,11718.140791
443.859522,-1072.248177,2757.209598,9803.411904
443.859825,-4442.171019,1608.372265,9497.055282
443.860129,-2221.085509,-1684.961421,11105.427547
443.860432,-306.356622,-3829.457775,12866.978124
443.860736,-2374.263820,-2986.977064,11564.962480
443.861040,-2986.977064,-2221.085509,11258.605858
443.861343,-459.534933,-1914.728887,11258.605858
443.861647,2144.496354,2450.852976,11105.427547
443.861950,2297.674665,6280.310751,9343.876971
443.862253,2757.209598,6280.310751,8807.752882
443.862557,4671.938485,3063.566220,10569.303459
443.862860,3446.511997,-612.713244,12330.854035
443.863164,0.000000,-153.178311,11718.140791
443.863467,-4595.349330,-1684.961421,10569.303459
443.863771,-2986.977064,-2527.442131,10952.249236
443.864074,2297.674665,-2374.263820,12024.497413
443.864379,1455.193954,842.480710,10416.125148
443.864682,-3982.636086,2910.387909,8960.931193
443.864986,-3676.279464,-1225.426488,9956.590215
443.865289,-153.178311,-2986.977064,12330.854035
443.865592,-1914.728887,-3829.457775,12560.621502
443.865896,-4442.171019,-2221.085509,10952.249236
443.866199,-3369.922842,-3140.155375,11105.427547
443.866502,1148.837332,76.589155,11411.784169
443.866805,1991.318043,3906.046930,10109.768526
443.867108,1302.015643,6433.489062,8960.931193
443.867412,3293.333686,4671.938485,9343.876971
443.867715,6127.132440,1455.193954,11871.319102
443.868019,3140.155375,0.000000,12866.978124
443.868322,-1531.783110,536.124088,10569.303459
443.868626,-2374.263820,-2680.620442,10722.481770
443.868929,-459.534933,-3446.511997,11718.140791
443.869235,3140.155375,-306.356622,11105.427547
443.869538,-1072.248177,0.000000,10262.946837
443.869841,-5437.830040,1148.837332,9267.287815
443.870145,-1608.372265,-2680.620442,11105.427547
443.870448,-612.713244,-3829.457775,12866.978124
443.870751,-1531.783110,-2374.263820,11871.319102
443.871054,-2374.263820,-3293.333686,11411.784169
443.871357,536.124088,-459.534933,11258.605858
443.871676,3599.690308,2144.496354,10799.070925
443.871978,2450.852976,6586.667373,9267.287815
443.872279,1684.961421,7046.202306,8195.039638
443.872580,4365.581863,2450.852976,10109.768526
443.872881,4748.527641,0.000000,12024.497413
443.873183,-1761.550576,-153.178311,10952.249236
443.873484,-5744.186662,-1684.961421,10722.481770
443.873785,-3369.922842,-3829.457775,11564.962480
443.874105,1838.139732,-2527.442131,11411.784169
443.874406,-153.178311,-612.713244,10722.481770
443.874707,-5284.651729,1991.318043,8960.931193
443.875008,-4442.171019,-1072.248177,10262.946837
443.875309,-612.713244,-3829.457775,12866.978124
443.875611,76.589155,-2527.442131,12407.443191
443.875912,-2067.907198,-1531.783110,11105.427547
443.876213,689.302399,-1225.426488,11411.784169
443.876516,5973.954129,1455.193954,11411.784169
443.876819,5514.419196,5437.830040,10416.125148
443.877123,1684.961421,7046.202306,8501.396260
443.877426,2910.387909,4365.581863,9343.876971
443.877730,4212.403552,229.767466,11718.140791
443.878033,842.480710,-1072.248177,12024.497413
443.878337,-5744.186662,-2067.907198,10952.249236
443.878641,-5591.008351,-4442.171019,11258.605858
443.878944,-306.356622,-3293.333686,12177.675724
443.879247,995.659021,-1072.248177,11564.962480
443.879551,-2680.620442,2297.674665,9267.287815
443.879854,-6050.543284,382.945777,9343.876971
443.880158,-1761.550576,-2067.907198,11564.962480
443.880461,842.480710,-2221.085509,12330.854035
443.880764,-2067.907198,-1684.961421,11105.427547
443.881068,-919.069866,-919.069866,11105.427547
443.881378,3752.868619,-306.356622,11718.140791
443.881681,5820.775818,3523.101153,11258.605858
443.881983,2297.674665,6893.023995,9114.109504
443.882286,1531.783110,5973.954129,8348.217949
443.882588,4059.225241,2144.496354,10799.070925
443.882891,2144.496354,-1684.961421,12713.799813
443.883194,-1608.372265,-1225.426488,11105.427547
443.883496,-7505.737239,-4135.814397,10799.070925
443.883800,-4135.814397,-5054.884263,11564.962480
443.884103,2604.031287,-2067.907198,11871.319102
443.884407,382.945777,1302.015643,9803.411904
443.884710,-4288.992708,2450.852976,8807.752882
443.885013,-3982.636086,-1378.604799,10109.768526
443.885317,0.000000,-2986.977064,12407.443191
443.885620,-919.069866,-3293.333686,11718.140791
443.885924,-3140.155375,-2067.907198,10799.070925
443.886234,76.589155,-1531.783110,11411.784169
443.886537,3446.511997,1761.550576,11411.784169
443.886839,3063.566220,5667.597507,9956.590215
443.887141,1684.961421,7888.683016,8195.039638
443.887444,2757.209598,4212.403552,9343.876971
443.887746,3906.046930,0.000000,12024.497413
443.888049,1148.837332,-459.534933,11564.962480
443.888351,-5284.651729,-1378.604799,10569.303459
443.888663,-6050.543284,-4748.527641,10952.249236
443.888965,536.124088,-4135.814397,12407.443191
443.889267,1148.837332,-1072.248177,11411.784169
443.889570,-3523.101153,2144.496354,9114.109504
443.889872,-4442.171019,382.945777,9803.411904
443.890175,76.589155,-1531.783110,11411.784169
443.890477,0.000000,-2833.798753,12713.799813
443.890779,-3216.744531,-1914.728887,11105.427547
443.891082,-2221.085509,-459.534933,10722.481770
443.891386,3063.566220,-153.178311,11564.962480
443.891689,4671.938485,3752.868619,11258.605858
443.891993,2450.852976,8501.396260,9114.109504
443.892297,1455.193954,6433.489062,8807.752882
443.892600,4518.760174,2910.387909,10569.303459
443.892904,4901.705952,-1531.783110,12560.621502
443.893207,-1914.728887,-1914.728887,11718.140791
443.893510,-6203.721595,-2680.620442,10569.303459
443.893814,-3829.457775,-4748.527641,11718.140791
443.894117,0.000000,-2986.977064,12177.675724
443.894421,-612.713244,229.767466,10262.946837
443.894724,-3369.922842,1761.550576,8960.931193
443.895028,-3369.922842,-919.069866,10262.946837
443.895331,382.945777,-1914.728887,12024.497413
443.895635,-612.713244,-3829.457775,12407.443191
443.895938,-153.178311,-459.534933,10799.070925
443.896242,689.302399,-1531.783110,11258.605858
443.896545,4901.705952,1608.372265,11411.784169
443.896849,3293.333686,4365.581863,10262.946837
443.897152,2144.496354,6127.132440,9114.109504
443.897456,3906.046930,4978.295107,9343.876971
443.897759,5361.240885,689.302399,11718.140791
443.898063,3140.155375,-765.891555,12024.497413
443.898378,-2833.798753,-459.534933,10569.303459
443.898679,-6203.721595,-3829.457775,10722.481770
443.898981,-306.356622,-3140.155375,12024.497413
443.899283,2144.496354,-459.534933,10799.070925
443.899585,-2527.442131,1761.550576,9497.055282
443.899887,-6050.543284,0.000000,9114.109504
443.900188,-919.069866,-2221.085509,11564.962480
443.900490,1531.783110,-3599.690308,13173.334746
443.900794,-1608.372265,-2221.085509,11564.962480
443.901097,-1914.728887,-1914.728887,11411.784169
443.901401,2604.031287,-306.356622,11718.140791
443.901704,5514.419196,2450.852976,11258.605858
443.902008,2450.852976,6433.489062,9497.055282
443.902311,1684.961421,6586.667373,8195.039638
443.902614,4671.938485,2910.387909,10262.946837
443.902918,4518.760174,-765.891555,12560.621502
443.903222,229.767466,0.000000,11105.427547
443.903525,-4978.295107,-1838.139732,10262.946837
443.903829,-2067.907198,-2374.263820,11105.427547
443.904132,2910.387909,-2374.263820,11718.140791
443.904436,689.302399,76.589155,10262.946837
443.904739,-5744.186662,1991.318043,8654.574571
443.905042,-4825.116796,-2527.442131,10569.303459
443.905346,-612.713244,-3829.457775,12560.621502
443.905656,-2067.907198,-4135.814397,12177.675724
443.905958,-2833.798753,-2067.907198,10799.070925
443.906261,-459.534933,-1225.426488,10952.249236
443.906563,3446.511997,1608.372265,11411.784169
443.906866,3140.155375,4059.225241,10569.303459
443.907168,1531.783110,7505.737239,8348.217949
443.907471,2910.387909,4671.938485,9343.876971
443.907774,4671.938485,382.945777,12024.497413
443.908100,1991.318043,-306.356622,12024.497413
443.908400,-4135.814397,-1378.604799,10952.249236
443.908700,-4595.349330,-2833.798753,10722.481770
443.909000,-153.178311,-2833.798753,11564.962480
443.909301,1531.783110,-1378.604799,11411.784169
443.909601,-3676.279464,2297.674665,9650.233593
443.909901,-7505.737239,842.480710,8960.931193
443.910201,-3216.744531,-3140.155375,11411.784169
443.910505,-1225.426488,-4595.349330,12407.443191
443.910808,-2067.907198,-3140.155375,11871.319102
443.911112,-3676.279464,-2680.620442,11411.784169
443.911415,382.945777,0.000000,11105.427547
443.911719,4365.581863,2910.387909,11258.605858
443.912022,3293.333686,7046.202306,9497.055282
443.912325,2450.852976,6433.489062,8807.752882
443.912629,5361.240885,2910.387909,10799.070925
443.912932,3599.690308,-459.534933,12560.621502
443.913235,-153.178311,536.124088,11411.784169
443.913539,-5284.651729,-1684.961421,10262.946837
443.913843,-3676.279464,-2833.798753,10952.249236
443.914146,995.659021,-2221.085509,11564.962480
443.914450,0.000000,1148.837332,10416.125148
443.914753,-5284.651729,2604.031287,8654.574571
443.915057,-5284.651729,-1684.961421,10569.303459
443.915361,-1761.550576,-4901.705952,12866.978124
443.915664,0.000000,-3752.868619,12560.621502
443.915967,-2833.798753,-2680.620442,11411.784169
443.916271,-306.356622,-1225.426488,11258.605858
443.916574,3446.511997,842.480710,11718.140791
443.916878,3906.046930,5820.775818,10262.946837
443.917181,2604.031287,6586.667373,8807.752882
443.917484,5667.597507,3063.566220,9650.233593
443.917787,5667.597507,1991.318043,11871.319102
443.918091,1684.961421,995.659021,12177.675724
443.918394,-3523.101153,-612.713244,10109.768526
443.918698,-3829.457775,-2067.907198,9956.590215
443.919001,-612.713244,-3599.690308,12024.497413
443.919305,842.480710,-1684.961421,10952.249236
443.919608,-2680.620442,2604.031287,9650.233593
443.919912,-1761.550576,-2833.798753,9343.876971
443.920215,-3829.457775,-6356.899906,12024.497413
443.920518,-2067.907198,-3599.690308,12024.497413
443.920822,-765.891555,-4135.814397,11718.140791
443.921125,-1608.372265,-3829.457775,10416.125148
443.921429,1531.783110,-1072.248177,11871.319102
443.921732,3140.155375,1302.015643,10799.070925
443.922036,2604.031287,9114.109504,8654.574571
443.922339,3140.155375,3752.868619,8807.752882
443.922657,5514.419196,4671.938485,10799.070925
443.922958,3906.046930,-1378.604799,12407.443191
443.923260,-306.356622,229.767466,11411.784169
443.923561,-4671.938485,-1225.426488,10569.303459
443.923863,-1378.604799,-2221.085509,11258.605858
443.924165,1991.318043,-1378.604799,12024.497413
443.924466,-612.713244,1148.837332,9956.590215
443.924768,-5897.364973,1455.193954,9114.109504
443.925093,-4442.171019,-1838.139732,10569.303459
443.925394,-153.178311,-3982.636086,12407.443191
443.925694,-2067.907198,-4288.992708,12560.621502
443.925994,-1761.550576,-2833.798753,11564.962480
443.926295,229.767466,-2833.798753,11871.319102
443.926595,2450.852976,76.589155,12177.675724
443.926895,2297.674665,4059.225241,10722.481770
443.927195,1684.961421,6893.023995,8654.574571
443.927505,4748.527641,5131.473418,9114.109504
443.927807,3446.511997,-306.356622,11871.319102
443.928110,2910.387909,-306.356622,12407.443191
443.928412,-2680.620442,-1378.604799,10722.481770
443.928715,-4978.295107,-2374.263820,10416.125148
443.929018,1531.783110,-1914.728887,11718.140791
443.929320,4059.225241,76.589155,11105.427547
443.929623,-3676.279464,1838.139732,9650.233593
443.929926,-6203.721595,382.945777,8960.931193
443.930229,-765.891555,-3446.511997,11871.319102
443.930533,536.124088,-5361.240885,13020.156435
443.930836,-2374.263820,-3140.155375,11871.319102
443.931140,-2067.907198,-2986.977064,11105.427547
443.931443,3446.511997,0.000000,11718.140791
443.931747,4518.760174,3216.744531,11105.427547
443.932050,995.659021,7582.326394,8501.396260
443.932354,2144.496354,6280.310751,8195.039638
443.932658,4901.705952,2144.496354,10722.481770
443.932961,1838.139732,689.302399,11411.784169
443.933265,-3523.101153,-612.713244,10799.070925
443.933568,-6893.023995,-3140.155375,10799.070925
443.933872,-2067.907198,-2986.977064,11718.140791
443.934175,2450.852976,-919.069866,11718.140791
443.934479,-1531.783110,2604.031287,9650.233593
443.934782,-5591.008351,1608.372265,9114.109504
443.935085,-3140.155375,-1914.728887,11258.605858
443.935389,-306.356622,-3293.333686,12713.799813
443.935692,-2221.085509,-2680.620442,11564.962480
443.935996,-1914.728887,-1838.139732,11105.427547
443.936299,2450.852976,-1072.248177,11871.319102
443.936603,5820.775818,2144.496354,11564.962480
443.936906,2910.387909,6586.667373,9497.055282
443.937215,1302.015643,7352.558928,8195.039638
443.937518,5361.240885,3063.566220,10262.946837
443.937821,4671.938485,382.945777,11871.319102
443.938124,-2374.263820,-612.713244,10952.249236
443.938426,-7199.380617,-2527.442131,10722.481770
443.938729,-4135.814397,-3982.636086,11564.962480
443.939032,995.659021,-1378.604799,11871.319102
443.939334,-1072.248177,536.124088,10569.303459
443.939640,-4442.171019,2144.496354,8807.752882
443.939943,-4135.814397,-153.178311,10109.768526
443.940246,-2067.907198,-2833.798753,11871.319102
443.940549,-1378.604799,-3293.333686,11871.319102
443.940852,-2527.442131,-2221.085509,11411.784169
443.941156,-765.891555,-2221.085509,11258.605858
443.941459,4901.705952,1148.837332,11564.962480
443.941762,4671.938485,4365.581863,10569.303459
443.942081,2144.496354,7888.683016,8807.752882
443.942382,4748.527641,5284.651729,9267.287815
443.942683,7965.272172,1838.139732,11411.784169
443.942985,-612.713244,-2221.085509,11871.319102
443.943286,-5591.008351,-1838.139732,10799.070925
443.943587,-4595.349330,-4135.814397,10799.070925
443.943888,-1378.604799,-3140.155375,10952.249236
443.944190,229.767466,-1684.961421,11564.962480
443.944499,-2527.442131,1608.372265,9650.233593
443.944801,-4671.938485,1761.550576,9114.109504
443.945104,-2221.085509,-2986.977064,11871.319102
443.945407,-1608.372265,-2374.263820,12177.675724
443.945709,-2833.798753,-2986.977064,11564.962480
443.946012,-2986.977064,-2374.263820,11411.784169
443.946314,2297.674665,-306.356622,11411.784169
443.946617,5208.062574,2144.496354,11564.962480
443.946920,2757.209598,7352.558928,9497.055282
443.947223,3752.868619,8041.861327,8348.217949
443.947527,6816.434839,3752.868619,10569.303459
443.947830,4059.225241,382.945777,12024.497413
443.948134,-612.713244,-153.178311,10799.070925
443.948437,-5437.830040,-1914.728887,10569.303459
443.948741,-3982.636086,-2680.620442,10416.125148
443.949044,995.659021,-3446.511997,12024.497413
443.949353,842.480710,-919.069866,10952.249236
443.949656,-4135.814397,1608.372265,8807.752882
443.949959,-2527.442131,-1072.248177,10799.070925
443.950261,0.000000,-3446.511997,12330.854035
443.950564,-2221.085509,-3293.333686,12407.443191
443.950867,-2986.977064,-1914.728887,11258.605858
443.951170,229.767466,-1225.426488,10952.249236
443.951472,3446.511997,382.945777,11411.784169
443.951775,2910.387909,3752.868619,10416.125148
443.952079,2297.674665,8807.752882,8654.574571
443.952382,3906.046930,5667.597507,8807.752882
443.952686,6663.256528,2604.031287,11411.784169
443.952990,4671.938485,-1225.426488,12560.621502
443.953293,-1072.248177,-1378.604799,11564.962480
443.953597,-6739.845684,-2527.442131,10262.946837
443.953900,-612.713244,-3446.511997,11411.784169
443.954206,1991.318043,-2680.620442,12330.854035
443.954509,-2833.798753,1148.837332,9650.233593
443.954812,-4825.116796,536.124088,9267.287815
443.955115,-2680.620442,-2680.620442,10799.070925
443.955419,382.945777,-4135.814397,12560.621502
443.955722,-2221.085509,-3752.868619,12560.621502
443.956025,-2221.085509,-1684.961421,10799.070925
443.956328,689.302399,-1378.604799,11105.427547
443.956634,1455.193954,229.767466,11564.962480
443.956937,-459.534933,5820.775818,8807.752882
443.957240,995.659021,6739.845684,8501.396260
443.957543,6203.721595,3063.566220,10416.125148
443.957846,5820.775818,689.302399,12024.497413
443.958149,0.000000,-2374.263820,12560.621502
443.958453,-3216.744531,1608.372265,10416.125148
443.958756,-1378.604799,-1684.961421,10109.768526
443.959074,536.124088,-1531.783110,12024.497413
443.959376,-1072.248177,0.000000,11105.427547
443.959677,-4135.814397,3523.101153,8195.039638
443.959978,-6280.310751,-1072.248177,9497.055282
443.960280,-2374.263820,-4442.171019,12713.799813
443.960581,-919.069866,-3752.868619,12866.978124
443.960882,-3140.155375,-2680.620442,11718.140791
443.961183,-3523.101153,-1838.139732,10952.249236
443.961493,1991.318043,-612.713244,12177.675724
443.961795,1838.139732,2604.031287,11258.605858
443.962098,-919.069866,6280.310751,8960.931193
443.962401,3446.511997,5820.775818,8807.752882
443.962703,5361.240885,995.659021,11871.319102
443.963006,2910.387909,689.302399,12407.443191
443.963309,-919.069866,1302.015643,10952.249236
443.963611,-1914.728887,76.589155,10416.125148
443.963914,689.302399,-765.891555,10799.070925
443.964218,1838.139732,-459.534933,11564.962480
443.964521,-1072.248177,3216.744531,9803.411904
443.964825,-6433.489062,1148.837332,8041.861327
443.965128,-4288.992708,-4748.527641,11718.140791
443.965432,-1914.728887,-5054.884263,13173.334746
443.965735,-2221.085509,-2833.798753,11411.784169
443.966039,-3676.279464,-3982.636086,12024.497413
443.966342,3063.566220,-919.069866,11718.140791
443.966645,1455.193954,689.302399,11718.140791
443.966949,-1072.248177,6893.023995,9114.109504
443.967252,1531.783110,6739.845684,7505.737239
443.967556,5667.597507,2910.387909,10569.303459
443.967860,4059.225241,536.124088,12407.443191
443.968163,229.767466,229.767466,11258.605858
443.968467,-1914.728887,689.302399,10416.125148
443.968770,-1914.728887,-1684.961421,10569.303459
443.969073,3599.690308,-1684.961421,12177.675724
443.969377,2604.031287,0.000000,11411.784169
443.969680,-3982.636086,2450.852976,8501.396260
443.969984,-4671.938485,-3293.333686,10569.303459
443.970287,-153.178311,-5361.240885,12866.978124
443.970591,-1378.604799,-4595.349330,12330.854035
443.970895,-4671.938485,-3140.155375,11105.427547
443.971201,-1225.426488,-1225.426488,10952.249236
443.971504,2757.209598,-1225.426488,11258.605858
443.971807,1838.139732,4212.403552,10799.070925
443.972110,-1225.426488,7505.737239,8348.217949
443.972413,3752.868619,6127.132440,8501.396260
443.972716,6127.132440,536.124088,12177.675724
443.973019,4518.760174,-153.178311,12330.854035
443.973322,-1072.248177,995.659021,11411.784169
443.973639,-3829.457775,-459.534933,9956.590215
443.973941,3140.155375,0.000000,11564.962480
443.974242,4901.705952,-919.069866,11871.319102
443.974544,229.767466,4518.760174,9650.233593
443.974846,-4671.938485,536.124088,8807.752882
443.975147,-2833.798753,-2986.977064,11411.784169
443.975449,-1072.248177,-4288.992708,12713.799813
443.975750,-5131.473418,-4288.992708,11871.319102
443.976058,-4825.116796,-1838.139732,10799.070925
443.976361,689.302399,-2527.442131,11411.784169
