#time,accel_x,accel_y,accel_z
447.599105,-153.178311,229.767466,10722.481770
447.599409,0.000000,229.767466,10799.070925
447.599713,229.767466,229.767466,10952.249236
447.600016,-153.178311,0.000000,10722.481770
447.600320,-153.178311,-153.178311,10799.070925
447.600623,229.767466,-306.356622,10952.249236
447.600927,76.589155,76.589155,10952.249236
447.601230,-306.356622,0.000000,10722.481770
447.601547,0.000000,0.000000,10569.303459
447.601849,229.767466,382.945777,10722.481770
447.602150,0.000000,76.589155,10799.070925
447.602452,0.000000,229.767466,10952.249236
447.602753,76.589155,-153.178311,10952.249236
447.603055,229.767466,0.000000,10952.249236
447.603356,-612.713244,-306.356622,10799.070925
447.603658,-306.356622,0.000000,10799.070925
447.603965,0.000000,382.945777,10799.070925
447.604268,-153.178311,0.000000,10722.481770
447.604571,-306.356622,-153.178311,10952.249236
447.604873,0.000000,229.767466,10952.249236
447.605176,76.589155,0.000000,10952.249236
447.605479,-306.356622,-153.178311,10799.070925
447.605782,-459.534933,-153.178311,10952.249236
447.606085,229.767466,0.000000,10952.249236
447.606389,-153.178311,229.767466,10952.249236
447.606692,-306.356622,-153.178311,10952.249236
447.606996,229.767466,229.767466,10799.070925
447.607299,76.589155,382.945777,10799.070925
447.607603,-306.356622,229.767466,10799.070925
447.607906,76.589155,76.589155,10799.070925
447.608209,229.767466,0.000000,10722.481770
447.608513,0.000000,76.589155,10799.070925
447.608816,-153.178311,0.000000,10799.070925
447.609119,76.589155,76.589155,10952.249236
447.609423,229.767466,76.589155,10799.070925
447.609727,-153.178311,76.589155,10952.249236
447.610030,-153.178311,0.000000,10799.070925
447.610334,0.000000,0.000000,10722.481770
447.610637,-153.178311,-306.356622,10722.481770
447.610941,-153.178311,0.000000,10722.481770
447.611250,-153.178311,76.589155,10799.070925
447.611552,76.589155,0.000000,10799.070925
447.611855,-153.178311,76.589155,10952.249236
447.612158,-153.178311,0.000000,10952.249236
447.612460,76.589155,76.589155,10952.249236
447.612763,-153.178311,76.589155,10952.249236
447.613066,-306.356622,0.000000,10952.249236
447.613368,0.000000,76.589155,10799.070925
447.613671,229.767466,76.589155,10952.249236
447.613975,-153.178311,229.767466,10799.070925
447.614278,-153.178311,76.589155,10952.249236
447.614582,382.945777,76.589155,11258.605858
447.614885,229.767466,0.000000,10952.249236
447.615189,-306.356622,0.000000,10952.249236
447.615492,0.000000,76.589155,10799.070925
447.615796,0.000000,229.767466,10952.249236
447.616099,-153.178311,0.000000,10799.070925
447.616402,-153.178311,76.589155,10952.249236
447.616706,76.589155,76.589155,10722.481770
447.617009,76.589155,229.767466,10799.070925
447.617313,-306.356622,0.000000,10722.481770
447.617616,0.000000,-153.178311,10799.070925
447.617920,76.589155,0.000000,10952.249236
447.618223,-153.178311,0.000000,10799.070925
447.618546,-306.356622,-153.178311,10952.249236
447.618847,0.000000,229.767466,10569.303459
447.619147,-153.178311,76.589155,10722.481770
447.619448,-306.356622,76.589155,10799.070925
447.619749,76.589155,76.589155,10799.070925
447.620050,382.945777,76.589155,10952.249236
447.620350,76.589155,76.589155,10952.249236
447.620651,-153.178311,0.000000,10952.249236
447.620970,76.589155,0.000000,10952.249236
447.621271,76.589155,0.000000,10799.070925
447.621572,0.000000,76.589155,10799.070925
447.621874,0.000000,76.589155,10952.249236
447.622175,229.767466,76.589155,10799.070925
447.622476,0.000000,229.767466,10952.249236
447.622777,-153.178311,229.767466,10799.070925
447.623079,-153.178311,76.589155,10952.249236
447.623389,0.000000,76.589155,10952.249236
447.623691,-153.178311,0.000000,10722.481770
447.623994,-459.534933,0.000000,10799.070925
447.624296,-153.178311,-153.178311,10952.249236
447.624599,382.945777,-153.178311,10799.070925
447.624901,-306.356622,76.589155,10952.249236
447.625204,-612.713244,0.000000,10799.070925
447.625507,76.589155,229.767466,10799.070925
447.625810,0.000000,76.589155,10799.070925
447.626113,-306.356622,229.767466,10952.249236
447.626417,-153.178311,76.589155,10799.070925
447.626720,229.767466,76.589155,11105.427547
447.627024,0.000000,76.589155,10799.070925
447.627327,-306.356622,0.000000,10952.249236
447.627630,76.589155,76.589155,10722.481770
447.627934,76.589155,229.767466,10799.070925
447.628242,-306.356622,229.767466,10799.070925
447.628545,0.000000,-153.178311,10952.249236
447.628848,229.767466,76.589155,10799.070925
447.629151,-153.178311,-306.356622,10952.249236
447.629453,-153.178311,0.000000,11105.427547
447.629756,0.000000,0.000000,10799.070925
447.630059,0.000000,76.589155,10799.070925
447.630362,-306.356622,0.000000,10722.481770
447.630665,0.000000,76.589155,11105.427547
447.630968,76.589155,76.589155,10799.070925
447.631272,0.000000,0.000000,10722.481770
447.631575,-153.178311,-153.178311,10799.070925
447.631879,0.000000,76.589155,10722.481770
447.632183,0.000000,76.589155,10952.249236
447.632486,-153.178311,0.000000,10799.070925
447.632790,-153.178311,76.589155,10799.070925
447.633096,0.000000,382.945777,10799.070925
447.633399,0.000000,76.589155,10799.070925
447.633702,-306.356622,229.767466,10722.481770
447.634005,0.000000,0.000000,10799.070925
447.634308,382.945777,0.000000,11105.427547
447.634611,-153.178311,-153.178311,10799.070925
447.634914,0.000000,0.000000,10952.249236
447.635217,0.000000,229.767466,10799.070925
447.635529,0.000000,76.589155,10722.481770
447.635831,-153.178311,76.589155,10799.070925
447.636133,76.589155,76.589155,10952.249236
447.636436,76.589155,-306.356622,10952.249236
447.636738,-153.178311,0.000000,10799.070925
447.637040,-459.534933,-153.178311,10952.249236
447.637343,0.000000,0.000000,10952.249236
447.637645,-153.178311,229.767466,10722.481770
447.637964,0.000000,0.000000,10799.070925
447.638265,0.000000,229.767466,10722.481770
447.638566,229.767466,76.589155,10799.070925
447.638867,-153.178311,0.000000,10952.249236
447.639168,-153.178311,-153.178311,10952.249236
447.639470,229.767466,0.000000,10799.070925
447.639771,-153.178311,76.589155,10799.070925
447.640072,-153.178311,229.767466,10952.249236
447.640384,0.000000,382.945777,10799.070925
447.640686,229.767466,229.767466,10799.070925
447.640989,0.000000,0.000000,10799.070925
447.641291,0.000000,-306.356622,10722.481770
447.641593,76.589155,76.589155,10722.481770
447.641896,0.000000,-306.356622,10952.249236
447.642198,-612.713244,0.000000,10799.070925
447.642500,76.589155,76.589155,10722.481770
447.642803,-153.178311,-153.178311,10952.249236
447.643107,-153.178311,382.945777,10722.481770
447.643410,-153.178311,76.589155,10799.070925
447.643714,0.000000,76.589155,10952.249236
447.644017,0.000000,76.589155,10952.249236
447.644321,-306.356622,-153.178311,10952.249236
447.644624,-306.356622,0.000000,10799.070925
447.644928,0.000000,0.000000,10952.249236
447.645233,-153.178311,229.767466,11105.427547
447.645536,-153.178311,76.589155,10952.249236
447.645839,229.767466,229.767466,10952.249236
447.646143,0.000000,76.589155,11105.427547
447.646446,0.000000,229.767466,10952.249236
447.646749,0.000000,0.000000,10799.070925
447.647052,0.000000,0.000000,10952.249236
447.647356,-612.713244,76.589155,10799.070925
447.647658,-306.356622,76.589155,10952.249236
447.647962,76.589155,689.302399,10722.481770
447.648266,76.589155,76.589155,10722.481770
447.648569,0.000000,-153.178311,11105.427547
447.648873,76.589155,0.000000,10799.070925
447.649176,-153.178311,-306.356622,10799.070925
447.649480,-306.356622,-153.178311,10799.070925
447.649783,-306.356622,76.589155,10722.481770
447.650089,-153.178311,0.000000,10722.481770
447.650393,-153.178311,229.767466,10569.303459
447.650696,-153.178311,76.589155,10722.481770
447.650999,229.767466,0.000000,10952.249236
447.651302,0.000000,0.000000,10952.249236
447.651605,0.000000,-153.178311,10722.481770
447.651908,-153.178311,76.589155,10799.070925
447.652211,-306.356622,0.000000,10722.481770
447.652533,0.000000,229.767466,10799.070925
447.652834,0.000000,229.767466,10722.481770
447.653135,-153.178311,229.767466,10799.070925
447.653436,76.589155,0.000000,10952.249236
447.653736,229.767466,229.767466,10722.481770
447.654037,0.000000,0.000000,10952.249236
447.654338,-459.534933,-153.178311,11105.427547
447.654639,-153.178311,76.589155,10799.070925
447.654942,-153.178311,-153.178311,10799.070925
447.655245,-153.178311,76.589155,10952.249236
447.655549,0.000000,229.767466,10952.249236
447.655852,76.589155,0.000000,11105.427547
447.656156,0.000000,76.589155,11105.427547
447.656459,0.000000,0.000000,11105.427547
447.656763,-153.178311,0.000000,11105.427547
447.657066,-306.356622,76.589155,10952.249236
447.657382,-153.178311,0.000000,10799.070925
447.657683,0.000000,76.589155,10799.070925
447.657985,76.589155,382.945777,10722.481770
447.658287,76.589155,229.767466,10952.249236
447.658589,76.589155,229.767466,10722.481770
447.658891,76.589155,76.589155,10952.249236
447.659192,-306.356622,-306.356622,11105.427547
447.659494,-153.178311,-153.178311,10722.481770
447.659797,0.000000,76.589155,10799.070925
447.660100,76.589155,76.589155,10722.481770
447.660404,-153.178311,76.589155,10799.070925
447.660708,0.000000,76.589155,10799.070925
447.661011,76.589155,76.589155,10569.303459
447.661315,0.000000,0.000000,10799.070925
447.661618,-306.356622,-306.356622,11105.427547
447.661922,0.000000,229.767466,10799.070925
447.662227,76.589155,0.000000,10952.249236
447.662530,-306.356622,229.767466,10799.070925
447.662833,0.000000,0.000000,11105.427547
447.663137,382.945777,229.767466,10799.070925
447.663440,-153.178311,76.589155,10952.249236
447.663743,-153.178311,76.589155,11105.427547
447.664046,382.945777,0.000000,10952.249236
447.664349,-153.178311,76.589155,10799.070925
447.664652,-153.178311,229.767466,10952.249236
447.664956,-153.178311,229.767466,10722.481770
447.665259,229.767466,0.000000,10952.249236
447.665563,-153.178311,76.589155,10952.249236
447.665866,-153.178311,0.000000,10952.249236
447.666170,229.767466,0.000000,10799.070925
447.666473,-153.178311,-306.356622,10952.249236
447.666777,-306.356622,0.000000,10799.070925
447.667083,0.000000,0.000000,10722.481770
447.667386,-153.178311,76.589155,10722.481770
447.667689,0.000000,0.000000,10722.481770
447.667992,-459.534933,229.767466,10722.481770
447.668295,76.589155,229.767466,10799.070925
447.668598,0.000000,76.589155,10799.070925
447.668901,-306.356622,76.589155,10722.481770
447.669205,-153.178311,0.000000,10952.249236
447.669527,0.000000,76.589155,10722.481770
447.669828,0.000000,0.000000,10799.070925
447.670128,-306.356622,-306.356622,10799.070925
447.670429,229.767466,76.589155,10952.249236
447.670730,76.589155,0.000000,10952.249236
447.671031,-153.178311,76.589155,11105.427547
447.671332,76.589155,76.589155,10799.070925
447.671632,76.589155,229.767466,10799.070925
447.671935,-153.178311,76.589155,10799.070925
447.672239,-153.178311,0.000000,10799.070925
447.672542,76.589155,0.000000,11105.427547
447.672846,229.767466,0.000000,10952.249236
447.673149,-153.178311,-153.178311,10952.249236
447.673453,-306.356622,76.589155,10952.249236
447.673756,229.767466,76.589155,10799.070925
447.674060,-306.356622,0.000000,10799.070925
447.674375,-306.356622,229.767466,10722.481770
447.674677,-153.178311,229.767466,10952.249236
447.674979,-153.178311,76.589155,11105.427547
447.675281,-306.356622,0.000000,11105.427547
447.675582,-306.356622,-153.178311,10952.249236
447.675884,0.000000,-153.178311,10799.070925
447.676186,-153.178311,-153.178311,10952.249236
447.676488,-306.356622,0.000000,10952.249236
447.676791,76.589155,382.945777,10952.249236
447.677094,76.589155,76.589155,10952.249236
447.677398,-153.178311,76.589155,10799.070925
447.677701,0.000000,76.589155,10799.070925
447.678005,229.767466,229.767466,10952.249236
447.678308,0.000000,76.589155,10722.481770
447.678612,-612.713244,-306.356622,11105.427547
447.678915,76.589155,76.589155,10799.070925
447.679226,0.000000,76.589155,10799.070925
447.679529,-153.178311,0.000000,10952.249236
447.679831,0.000000,0.000000,10799.070925
447.680133,229.767466,76.589155,10952.249236
447.680436,-306.356622,0.000000,10952.249236
447.680738,-306.356622,-306.356622,10952.249236
447.681041,229.767466,0.000000,10952.249236
447.681343,0.000000,76.589155,10952.249236
447.681646,-306.356622,76.589155,10799.070925
447.681950,-153.178311,76.589155,10799.070925
447.682253,229.767466,76.589155,11105.427547
447.682557,-153.178311,-153.178311,10952.249236
447.682860,-306.356622,76.589155,10722.481770
447.683164,229.767466,-153.178311,11258.605858
447.683467,76.589155,0.000000,11105.427547
447.683771,-153.178311,0.000000,10952.249236
447.684077,-153.178311,76.589155,10952.249236
447.684380,229.767466,229.767466,10799.070925
447.684683,0.000000,229.767466,10952.249236
447.684986,-153.178311,0.000000,10952.249236
447.685289,76.589155,0.000000,10799.070925
447.685592,229.767466,0.000000,10952.249236
447.685895,-306.356622,-153.178311,11105.427547
447.686198,-459.534933,76.589155,10722.481770
447.686521,0.000000,76.589155,10952.249236
447.686821,-306.356622,0.000000,10799.070925
447.687122,-459.534933,0.000000,10799.070925
447.687423,76.589155,0.000000,10952.249236
447.687724,76.589155,76.589155,10799.070925
447.688024,-306.356622,-306.356622,10952.249236
447.688325,-306.356622,76.589155,11105.427547
447.688626,382.945777,76.589155,10799.070925
447.688934,-153.178311,0.000000,10952.249236
447.689237,-306.356622,0.000000,11105.427547
447.689540,76.589155,76.589155,10799.070925
447.689843,382.945777,76.589155,10799.070925
447.690145,0.000000,76.589155,10799.070925
447.690448,0.000000,-153.178311,10799.070925
447.690751,229.767466,0.000000,10799.070925
447.691054,76.589155,76.589155,10799.070925
447.691363,-459.534933,-153.178311,11105.427547
447.691666,0.000000,76.589155,10799.070925
447.691968,229.767466,76.589155,10569.303459
447.692271,0.000000,0.000000,10799.070925
447.692573,0.000000,76.589155,10952.249236
447.692876,0.000000,0.000000,10799.070925
447.693179,0.000000,-153.178311,11105.427547
447.693481,-153.178311,0.000000,10799.070925
447.693784,-306.356622,76.589155,10799.070925
447.694088,0.000000,229.767466,10952.249236
447.694392,-153.178311,76.589155,10799.070925
447.694695,-153.178311,76.589155,10799.070925
447.694999,0.000000,0.000000,10799.070925
447.695303,0.000000,76.589155,10722.481770
447.695606,-306.356622,-153.178311,10952.249236
447.695910,-153.178311,-153.178311,11105.427547
447.696221,0.000000,76.589155,10799.070925
447.696523,0.000000,76.589155,10952.249236
447.696825,-153.178311,76.589155,10952.249236
447.697128,0.000000,76.589155,10952.249236
447.697430,76.589155,229.767466,10952.249236
447.697732,0.000000,76.589155,10952.249236
447.698034,-153.178311,0.000000,10799.070925
447.698337,229.767466,76.589155,10952.249236
447.698640,-153.178311,0.000000,10722.481770
447.698943,-153.178311,0.000000,10799.070925
447.699247,0.000000,0.000000,10952.249236
447.699550,76.589155,0.000000,10799.070925
447.699854,-306.356622,0.000000,10799.070925
447.700157,-153.178311,0.000000,10799.070925
447.700461,0.000000,76.589155,10799.070925
447.700764,-153.178311,229.767466,10799.070925
447.701067,-153.178311,229.767466,10722.481770
447.701371,0.000000,0.000000,10722.481770
447.701674,76.589155,76.589155,10722.481770
447.701978,-153.178311,0.000000,10722.481770
447.702281,-306.356622,0.000000,10952.249236
447.702585,76.589155,0.000000,10799.070925
447.702888,0.000000,76.589155,10799.070925
447.703192,-153.178311,76.589155,10799.070925
447.703495,0.000000,76.589155,10952.249236
447.703798,229.767466,76.589155,10952.249236
447.704102,-153.178311,229.767466,10799.070925
447.704406,-153.178311,0.000000,10952.249236
447.704709,-153.178311,76.589155,10952.249236
447.705013,0.000000,-153.178311,10952.249236
447.705316,-153.178311,76.589155,11105.427547
447.705620,-306.356622,-153.178311,10952.249236
447.705923,-153.178311,76.589155,10722.481770
447.706226,0.000000,229.767466,10952.249236
447.706530,-306.356622,-153.178311,10952.249236
447.706833,0.000000,0.000000,10952.249236
447.707137,76.589155,0.000000,10799.070925
447.707441,-306.356622,76.589155,10952.249236
447.707744,-153.178311,229.767466,10799.070925
447.708048,76.589155,76.589155,10799.070925
447.708357,0.000000,382.945777,10799.070925
447.708660,0.000000,229.767466,10722.481770
447.708962,0.000000,0.000000,10799.070925
447.709265,229.767466,76.589155,10722.481770
447.709567,-153.178311,-153.178311,10799.070925
447.709870,-153.178311,-153.178311,10952.249236
447.710172,76.589155,0.000000,10952.249236
447.710475,0.000000,-153.178311,10799.070925
447.710778,-153.178311,229.767466,10799.070925
447.711081,0.000000,76.589155,10799.070925
447.711385,76.589155,0.000000,10952.249236
447.711689,-153.178311,0.000000,10799.070925
447.711992,-306.356622,-153.178311,10799.070925
447.712296,76.589155,76.589155,11105.427547
447.712599,-153.178311,0.000000,10952.249236
447.712903,-153.178311,76.589155,10722.481770
447.713218,-153.178311,76.589155,10952.249236
447.713520,76.589155,229.767466,10799.070925
447.713822,0.000000,76.589155,11258.605858
447.714123,0.000000,76.589155,10799.070925
447.714425,229.767466,0.000000,10799.070925
447.714727,76.589155,-153.178311,10952.249236
447.715028,-153.178311,0.000000,11105.427547
447.715330,-306.356622,76.589155,11105.427547
447.715645,76.589155,382.945777,10952.249236
447.715947,0.000000,76.589155,10722.481770
447.716249,0.000000,76.589155,10952.249236
447.716551,229.767466,0.000000,10952.249236
447.716853,76.589155,-459.534933,10952.249236
447.717155,0.000000,-153.178311,10799.070925
447.717456,-459.534933,0.000000,10952.249236
447.717758,0.000000,229.767466,10952.249236
447.718061,0.000000,382.945777,10569.303459
447.718365,-306.356622,76.589155,10952.249236
447.718668,76.589155,382.945777,10569.303459
447.718972,76.589155,76.589155,10799.070925
447.719275,-153.178311,76.589155,10722.481770
447.719579,-153.178311,0.000000,10722.481770
447.719882,76.589155,-306.356622,11105.427547
447.720186,-153.178311,0.000000,10799.070925
447.720489,-612.713244,229.767466,10722.481770
447.720792,76.589155,76.589155,10722.481770
447.721096,382.945777,382.945777,10569.303459
447.721399,0.000000,0.000000,10722.481770
447.721703,0.000000,-153.178311,10799.070925
447.722006,76.589155,76.589155,10722.481770
447.722310,0.000000,-306.356622,10952.249236
447.722613,-306.356622,0.000000,11105.427547
447.722917,-153.178311,76.589155,10952.249236
447.723220,76.589155,229.767466,10799.070925
447.723524,-153.178311,382.945777,10799.070925
447.723827,0.000000,0.000000,10799.070925
447.724131,76.589155,76.589155,10799.070925
447.724434,-306.356622,0.000000,10799.070925
447.724737,-306.356622,-153.178311,11105.427547
447.725041,-153.178311,-153.178311,10952.249236
447.725361,0.000000,229.767466,10799.070925
447.725662,-306.356622,76.589155,10722.481770
447.725963,-153.178311,76.589155,10799.070925
447.726264,76.589155,76.589155,10952.249236
447.726565,0.000000,0.000000,10952.249236
447.726866,229.767466,0.000000,10952.249236
447.727167,76.589155,-153.178311,10952.249236
447.727468,-153.178311,0.000000,10799.070925
447.727772,-153.178311,76.589155,10799.070925
447.728075,-306.356622,229.767466,10722.481770
447.728379,0.000000,229.767466,10799.070925
447.728682,0.000000,76.589155,10952.249236
447.728986,0.000000,76.589155,10569.303459
447.729289,76.589155,-153.178311,10952.249236
447.729593,76.589155,0.000000,10952.249236
447.729896,-153.178311,76.589155,10952.249236
447.730202,0.000000,-153.178311,10799.070925
447.730505,0.000000,382.945777,10799.070925
447.730808,-306.356622,76.589155,10799.070925
447.731111,76.589155,76.589155,10799.070925
447.731414,-153.178311,76.589155,10952.249236
447.731717,0.000000,0.000000,11105.427547
447.732020,-153.178311,-153.178311,10952.249236
447.732323,0.000000,-306.356622,10952.249236
447.732641,0.000000,76.589155,10952.249236
447.732943,0.000000,76.589155,10799.070925
447.733244,-153.178311,76.589155,10952.249236
447.733546,76.589155,76.589155,10722.481770
447.733847,76.589155,0.000000,10952.249236
447.734149,0.000000,76.589155,10799.070925
447.734450,-153.178311,76.589155,10722.481770
447.734752,76.589155,-306.356622,11105.427547
447.735054,-153.178311,0.000000,10569.303459
447.735358,-612.713244,76.589155,10799.070925
447.735661,-306.356622,76.589155,10952.249236
447.735965,0.000000,229.767466,10722.481770
447.736269,0.000000,0.000000,10952.249236
447.736572,-153.178311,76.589155,10799.070925
447.736876,0.000000,76.589155,10799.070925
447.737179,76.589155,76.589155,10952.249236
447.737482,-153.178311,-153.178311,10722.481770
447.737786,0.000000,0.000000,10799.070925
447.738089,76.589155,0.000000,10722.481770
447.738393,0.000000,76.589155,10569.303459
447.738696,-306.356622,76.589155,10799.070925
447.739000,229.767466,0.000000,10952.249236
447.739303,76.589155,76.589155,10799.070925
447.739607,-153.178311,0.000000,10799.070925
447.739910,229.767466,0.000000,10799.070925
447.740214,229.767466,0.000000,10799.070925
447.740517,-153.178311,-153.178311,10799.070925
447.740821,0.000000,0.000000,10722.481770
447.741124,0.000000,0.000000,10799.070925
447.741427,-153.178311,0.000000,10952.249236
447.741731,-153.178311,229.767466,10799.070925
447.742034,0.000000,0.000000,10799.070925
447.742345,76.589155,76.589155,10952.249236
447.742647,-306.356622,229.767466,10799.070925
447.742950,-153.178311,76.589155,10722.481770
447.743252,-153.178311,76.589155,10799.070925
447.743555,-153.178311,76.589155,10799.070925
447.743857,-153.178311,-153.178311,10722.481770
447.744160,0.000000,76.589155,11105.427547
447.744462,0.000000,229.767466,10569.303459
447.744765,-153.178311,0.000000,10799.070925
447.745068,-153.178311,0.000000,10952.249236
447.745372,76.589155,229.767466,10952.249236
447.745675,0.000000,76.589155,10722.481770
447.745979,-459.534933,-153.178311,10952.249236
447.746282,76.589155,76.589155,10952.249236
447.746586,0.000000,0.000000,10952.249236
447.746889,-153.178311,76.589155,10952.249236
447.747193,76.589155,229.767466,10722.481770
447.747496,229.767466,76.589155,10952.249236
447.747800,-153.178311,76.589155,10799.070925
447.748103,-306.356622,0.000000,10799.070925
447.748407,76.589155,-153.178311,11105.427547
447.748710,0.000000,-153.178311,11105.427547
447.749013,-153.178311,76.589155,10799.070925
447.749317,0.000000,76.589155,10952.249236
447.749629,0.000000,229.767466,10952.249236
447.749931,0.000000,0.000000,10952.249236
447.750233,0.000000,0.000000,10722.481770
447.750536,76.589155,-153.178311,10952.249236
447.750838,0.000000,0.000000,10799.070925
447.751141,0.000000,-306.356622,10952.249236
447.751443,0.000000,229.767466,10799.070925
447.751745,76.589155,229.767466,10569.303459
447.752048,-153.178311,-153.178311,10722.481770
447.752352,-153.178311,76.589155,10952.249236
447.752655,0.000000,229.767466,10722.481770
447.752959,0.000000,76.589155,10799.070925
447.753262,-306.356622,229.767466,10722.481770
447.753566,-153.178311,0.000000,10799.070925
447.753869,229.767466,76.589155,10799.070925
447.754173,-153.178311,382.945777,10952.249236
447.754476,-153.178311,76.589155,10952.249236
447.754779,76.589155,229.767466,10722.481770
447.755083,76.589155,0.000000,10799.070925
447.755386,0.000000,0.000000,10952.249236
447.755690,0.000000,0.000000,10952.249236
447.755993,76.589155,0.000000,10952.249236
447.756297,0.000000,76.589155,10799.070925
447.756600,-153.178311,0.000000,10799.070925
447.756904,-153.178311,76.589155,10952.249236
447.757207,229.767466,229.767466,10799.070925
447.757511,76.589155,76.589155,10952.249236
447.757814,-153.178311,0.000000,10799.070925
447.758117,0.000000,0.000000,10722.481770
447.758421,0.000000,0.000000,10799.070925
447.758724,-153.178311,76.589155,10799.070925
447.759028,0.000000,0.000000,10952.249236
447.759341,76.589155,229.767466,10799.070925
447.759643,-153.178311,229.767466,10722.481770
447.759945,0.000000,229.767466,10799.070925
447.760247,76.589155,76.589155,10799.070925
447.760549,0.000000,-153.178311,10952.249236
447.760852,0.000000,-153.178311,10799.070925
447.761154,-153.178311,0.000000,10722.481770
447.761456,76.589155,0.000000,10799.070925
447.761759,-153.178311,0.000000,10799.070925
447.762062,0.000000,229.767466,10722.481770
447.762366,76.589155,229.767466,10952.249236
447.762669,76.589155,382.945777,10799.070925
447.762973,-153.178311,-153.178311,11105.427547
447.763276,0.000000,76.589155,10952.249236
447.763580,0.000000,0.000000,10799.070925
447.763884,-153.178311,0.000000,10799.070925
447.764186,-306.356622,76.589155,10799.070925
447.764490,76.589155,76.589155,10722.481770
447.764793,-153.178311,0.000000,10952.249236
447.765097,-612.713244,76.589155,10799.070925
447.765400,-153.178311,-153.178311,10952.249236
447.765704,0.000000,-306.356622,10952.249236
447.766007,-153.178311,0.000000,11105.427547
447.766311,-306.356622,-153.178311,10799.070925
447.766622,-153.178311,76.589155,10952.249236
447.766925,0.000000,0.000000,10799.070925
447.767227,0.000000,382.945777,10952.249236
447.767530,0.000000,76.589155,10799.070925
447.767832,382.945777,-153.178311,10952.249236
447.768134,76.589155,0.000000,10722.481770
447.768437,-153.178311,0.000000,10952.249236
447.768739,229.767466,-153.178311,11105.427547
447.769042,0.000000,76.589155,10722.481770
447.769346,-306.356622,76.589155,10799.070925
447.769649,0.000000,0.000000,10799.070925
447.769953,76.589155,76.589155,10569.303459
447.770256,0.000000,0.000000,10799.070925
447.770560,-153.178311,0.000000,10799.070925
447.770863,76.589155,76.589155,10799.070925
447.771167,-153.178311,0.000000,10799.070925
447.771470,-153.178311,76.589155,10722.481770
447.771773,-153.178311,0.000000,10952.249236
447.772077,0.000000,0.000000,11105.427547
447.772380,-153.178311,0.000000,10799.070925
447.772684,0.000000,76.589155,10952.249236
447.772987,-153.178311,229.767466,10952.249236
447.773291,0.000000,0.000000,10799.070925
447.773594,0.000000,0.000000,10799.070925
447.773897,0.000000,229.767466,11105.427547
447.774201,-153.178311,76.589155,10952.249236
447.774504,0.000000,229.767466,10952.249236
447.774808,0.000000,76.589155,10799.070925
447.775111,76.589155,76.589155,10952.249236
447.775415,0.000000,76.589155,11105.427547
447.775718,0.000000,76.589155,10952.249236
447.776022,-153.178311,-153.178311,10799.070925
447.776326,-153.178311,-306.356622,10952.249236
447.776629,-153.178311,76.589155,10799.070925
447.776933,0.000000,0.000000,10952.249236
447.777236,-153.178311,76.589155,10722.481770
447.777539,-153.178311,76.589155,10569.303459
447.777843,-153.178311,0.000000,10952.249236
447.778146,76.589155,229.767466,10569.303459
447.778450,-306.356622,76.589155,10722.481770
447.778753,-306.356622,76.589155,10799.070925
447.779056,-153.178311,76.589155,10722.481770
447.779359,0.000000,76.589155,10799.070925
447.779663,-153.178311,-153.178311,10722.481770
447.779966,-153.178311,76.589155,10722.481770
447.780270,0.000000,0.000000,11105.427547
447.780573,76.589155,76.589155,10799.070925
447.780877,-153.178311,0.000000,10722.481770
447.781181,0.000000,0.000000,10952.249236
447.781484,0.000000,76.589155,10799.070925
447.781787,-153.178311,-153.178311,10722.481770
447.782091,76.589155,229.767466,10799.070925
447.782394,76.589155,76.589155,10799.070925
447.782697,0.000000,0.000000,10952.249236
447.783001,-153.178311,76.589155,10799.070925
447.783304,-306.356622,229.767466,10799.070925
447.783613,0.000000,0.000000,10952.249236
447.783916,-153.178311,76.589155,10799.070925
447.784219,-153.178311,0.000000,10952.249236
447.784521,0.000000,0.000000,11105.427547
447.784824,-153.178311,229.767466,10952.249236
447.785127,-153.178311,76.589155,10799.070925
447.785430,-153.178311,76.589155,10722.481770
447.785732,76.589155,229.767466,10799.070925
447.786058,-153.178311,76.589155,10722.481770
447.786358,0.000000,76.589155,10722.481770
447.786659,76.589155,0.000000,10799.070925
447.786959,76.589155,76.589155,10799.070925
447.787259,-153.178311,0.000000,10799.070925
447.787560,0.000000,0.000000,10799.070925
447.787860,-153.178311,382.945777,10569.303459
447.788160,-153.178311,0.000000,10722.481770
447.788469,76.589155,76.589155,10722.481770
447.788772,0.000000,382.945777,10569.303459
447.789074,0.000000,76.589155,11105.427547
447.789377,0.000000,76.589155,10952.249236
447.789680,0.000000,76.589155,10952.249236
447.789982,0.000000,-306.356622,10952.249236
447.790285,-612.713244,0.000000,10952.249236
447.790588,0.000000,-153.178311,11105.427547
447.790891,0.000000,0.000000,10799.070925
447.791194,0.000000,0.000000,10799.070925
447.791498,-153.178311,0.000000,10952.249236
447.791801,0.000000,76.589155,10722.481770
447.792105,76.589155,229.767466,10799.070925
447.792408,-153.178311,76.589155,10799.070925
447.792712,0.000000,0.000000,10799.070925
447.793015,0.000000,76.589155,10952.249236
447.793318,229.767466,0.000000,10799.070925
447.793622,-153.178311,0.000000,10799.070925
447.793925,0.000000,0.000000,11105.427547
447.794229,0.000000,229.767466,10799.070925
447.794532,-459.534933,229.767466,10722.481770
447.794836,-306.356622,0.000000,10952.249236
447.795139,-153.178311,229.767466,10722.481770
447.795443,0.000000,229.767466,10799.070925
447.795746,-306.356622,76.589155,10722.481770
447.796049,-153.178311,-153.178311,10722.481770
447.796353,229.767466,-306.356622,11105.427547
447.796656,0.000000,76.589155,10799.070925
447.796960,-306.356622,-153.178311,10722.481770
447.797263,0.000000,0.000000,10722.481770
447.797567,76.589155,229.767466,10952.249236
447.797870,-153.178311,76.589155,10952.249236
447.798179,0.000000,76.589155,10952.249236
447.798482,76.589155,229.767466,10799.070925
447.798785,76.589155,0.000000,10952.249236
447.799087,-306.356622,0.000000,10799.070925
447.799390,-306.356622,0.000000,11105.427547
447.799693,229.767466,229.767466,10952.249236
447.799995,76.589155,229.767466,10722.481770
447.800298,-153.178311,0.000000,10952.249236
447.800601,76.589155,76.589155,10952.249236
447.800905,229.767466,0.000000,10952.249236
447.801208,-306.356622,-153.178311,10952.249236
447.801512,-306.356622,0.000000,11105.427547
447.801815,0.000000,382.945777,10799.070925
447.802119,0.000000,382.945777,10952.249236
447.802422,-459.534933,382.945777,10799.070925
447.802726,0.000000,76.589155,10799.070925
447.803052,229.767466,76.589155,10722.481770
447.803352,0.000000,0.000000,10799.070925
447.803652,-153.178311,0.000000,11105.427547
447.803953,0.000000,-153.178311,11258.605858
447.804253,76.589155,76.589155,10952.249236
447.804553,-306.356622,0.000000,10799.070925
447.804853,0.000000,76.589155,10799.070925
447.805154,229.767466,76.589155,10799.070925
447.805463,76.589155,76.589155,10799.070925
447.805765,-153.178311,229.767466,10952.249236
447.806068,76.589155,0.000000,10799.070925
447.806371,-153.178311,0.000000,10722.481770
447.806673,-153.178311,0.000000,10799.070925
447.806976,0.000000,76.589155,10952.249236
447.807279,229.767466,0.000000,10799.070925
447.807581,-306.356622,0.000000,10722.481770
447.807884,-153.178311,0.000000,11105.427547
447.808188,0.000000,76.589155,10952.249236
447.808491,0.000000,76.589155,10799.070925
447.808795,-306.356622,0.000000,10952.249236
447.809098,-306.356622,76.589155,10799.070925
447.809401,229.767466,0.000000,10799.070925
447.809705,0.000000,76.589155,10799.070925
447.810008,-306.356622,0.000000,10799.070925
447.810312,76.589155,76.589155,10722.481770
447.810615,229.767466,76.589155,11105.427547
447.810919,-153.178311,0.000000,10722.481770
447.811222,-153.178311,-153.178311,10952.249236
447.811526,382.945777,76.589155,10952.249236
447.811829,-306.356622,0.000000,10952.249236
447.812133,-153.178311,0.000000,10952.249236
447.812437,0.000000,229.767466,10722.481770
447.812739,76.589155,229.767466,10952.249236
447.813043,-153.178311,76.589155,10799.070925
447.813347,0.000000,76.589155,10952.249236
447.813650,229.767466,76.589155,10952.249236
447.813954,-306.356622,76.589155,10799.070925
447.814257,-459.534933,0.000000,11258.605858
447.814561,-153.178311,-153.178311,10952.249236
447.814864,-153.178311,0.000000,10722.481770
447.815171,-153.178311,0.000000,10952.249236
447.815474,0.000000,0.000000,10722.481770
447.815777,76.589155,76.589155,10952.249236
447.816080,76.589155,0.000000,11105.427547
447.816383,76.589155,76.589155,10799.070925
447.816686,76.589155,0.000000,10722.481770
447.816989,76.589155,0.000000,10952.249236
447.817292,0.000000,-153.178311,10799.070925
447.817609,76.589155,76.589155,10952.249236
447.817911,0.000000,76.589155,10799.070925
447.818212,0.000000,0.000000,10952.249236
447.818514,229.767466,229.767466,10722.481770
447.818815,0.000000,76.589155,10799.070925
447.819117,-306.356622,0.000000,10799.070925
447.819418,-153.178311,-153.178311,10952.249236
447.819720,76.589155,-153.178311,10799.070925
447.820027,0.000000,0.000000,10799.070925
447.820330,-306.356622,76.589155,10952.249236
447.820633,-153.178311,76.589155,10799.070925
447.820936,-153.178311,0.000000,10799.070925
447.821239,0.000000,0.000000,10799.070925
447.821542,-153.178311,-306.356622,10722.481770
447.821844,-153.178311,76.589155,10952.249236
447.822147,-153.178311,76.589155,10799.070925
447.822457,-153.178311,76.589155,10722.481770
447.822759,-153.178311,76.589155,10952.249236
447.823062,0.000000,76.589155,10799.070925
447.823364,0.000000,229.767466,10722.481770
447.823667,-153.178311,0.000000,10952.249236
447.823970,0.000000,0.000000,10799.070925
447.824272,0.000000,-306.356622,10952.249236
447.824575,0.000000,229.767466,11105.427547
447.824877,-153.178311,0.000000,10952.249236
447.825180,0.000000,0.000000,10799.070925
447.825484,76.589155,382.945777,10799.070925
447.825788,-153.178311,229.767466,10952.249236
447.826092,76.589155,229.767466,10799.070925
447.826395,0.000000,0.000000,10952.249236
447.826699,-153.178311,-306.356622,10952.249236
447.827003,-153.178311,0.000000,10952.249236
447.827308,0.000000,0.000000,10952.249236
447.827611,-153.178311,0.000000,10952.249236
447.827915,0.000000,76.589155,10799.070925
447.828218,-153.178311,76.589155,10799.070925
447.828521,0.000000,382.945777,10569.303459
447.828824,76.589155,229.767466,10799.070925
447.829127,0.000000,76.589155,10952.249236
447.829430,-153.178311,0.000000,10952.249236
447.829734,-153.178311,0.000000,10799.070925
447.830037,0.000000,0.000000,10952.249236
447.830341,-153.178311,76.589155,10799.070925
447.830644,-306.356622,76.589155,10799.070925
447.830948,229.767466,229.767466,10799.070925
447.831251,76.589155,0.000000,10952.249236
447.831555,0.000000,-153.178311,11105.427547
447.831858,-153.178311,229.767466,10952.249236
447.832164,76.589155,229.767466,10952.249236
447.832467,0.000000,229.767466,10569.303459
447.832770,-306.356622,0.000000,10952.249236
447.833073,-153.178311,229.767466,10799.070925
447.833376,229.767466,229.767466,10952.249236
447.833680,-306.356622,-153.178311,10799.070925
447.833983,-306.356622,-459.534933,11105.427547
447.834286,229.767466,76.589155,10952.249236
447.834603,0.000000,0.000000,10952.249236
447.834904,-306.356622,0.000000,10799.070925
447.835206,-306.356622,76.589155,10952.249236
447.835507,0.000000,229.767466,10569.303459
447.835809,-153.178311,382.945777,10799.070925
447.836110,0.000000,0.000000,10722.481770
447.836412,229.767466,-153.178311,10952.249236
447.836713,76.589155,-153.178311,10952.249236
447.837032,-306.356622,-153.178311,10952.249236
447.837333,-153.178311,0.000000,10799.070925
447.837635,0.000000,0.000000,10952.249236
447.837936,0.000000,229.767466,10799.070925
447.838237,-306.356622,382.945777,10799.070925
447.838538,382.945777,229.767466,10722.481770
447.838840,382.945777,76.589155,11105.427547
447.839141,0.000000,76.589155,10952.249236
447.839445,-612.713244,-153.178311,11105.427547
447.839749,-153.178311,0.000000,10799.070925
447.840052,0.000000,229.767466,10952.249236
447.840355,-459.534933,76.589155,10799.070925
447.840659,-153.178311,76.589155,10952.249236
447.840962,229.767466,76.589155,10799.070925
447.841265,0.000000,-153.178311,10952.249236
447.841569,-306.356622,0.000000,10952.249236
447.841872,0.000000,-153.178311,11105.427547
447.842175,0.000000,0.000000,11105.427547
447.842479,-306.356622,229.767466,10799.070925
447.842783,-306.356622,229.767466,10799.070925
447.843086,229.767466,229.767466,10799.070925
447.843390,382.945777,76.589155,10722.481770
447.843694,0.000000,229.767466,10799.070925
447.843997,229.767466,76.589155,10799.070925
447.844303,229.767466,-153.178311,10952.249236
447.844606,-153.178311,76.589155,10799.070925
447.844909,-306.356622,76.589155,10799.070925
447.845212,-153.178311,229.767466,10722.481770
447.845515,0.000000,229.767466,10722.481770
447.845818,0.000000,0.000000,10722.481770
447.846121,76.589155,0.000000,10799.070925
447.846424,76.589155,-153.178311,10952.249236
447.846727,-306.356622,0.000000,10952.249236
447.847031,-153.178311,76.589155,10799.070925
447.847334,0.000000,229.767466,10722.481770
447.847638,-459.534933,0.000000,10799.070925
447.847941,-153.178311,76.589155,10799.070925
447.848245,76.589155,76.589155,10952.249236
447.848548,229.767466,0.000000,10799.070925
447.848852,-306.356622,0.000000,10952.249236
447.849155,-306.356622,-459.534933,11105.427547
447.849458,76.589155,-153.178311,10952.249236
447.849762,-306.356622,76.589155,10952.249236
447.850065,-153.178311,382.945777,10799.070925
447.850369,0.000000,229.767466,10722.481770
447.850673,536.124088,382.945777,10722.481770
447.850976,76.589155,0.000000,10952.249236
447.851280,-153.178311,-153.178311,10799.070925
447.851602,229.767466,0.000000,10952.249236
447.851903,76.589155,0.000000,11105.427547
447.852203,-459.534933,-306.356622,10952.249236
447.852504,-612.713244,76.589155,10952.249236
447.852805,229.767466,689.302399,10722.481770
447.853106,76.589155,229.767466,10799.070925
447.853407,-153.178311,76.589155,11105.427547
447.853707,0.000000,0.000000,11105.427547
447.854026,76.589155,0.000000,10952.249236
447.854327,-459.534933,-153.178311,10799.070925
447.854628,-459.534933,-306.356622,11105.427547
447.854930,76.589155,229.767466,10722.481770
447.855231,76.589155,0.000000,10722.481770
447.855532,-306.356622,229.767466,10569.303459
447.855833,229.767466,76.589155,10722.481770
447.856134,382.945777,76.589155,11105.427547
447.856438,-306.356622,0.000000,10952.249236
447.856742,-306.356622,0.000000,10799.070925
447.857045,76.589155,76.589155,10952.249236
447.857349,-306.356622,0.000000,11105.427547
447.857652,-153.178311,76.589155,10952.249236
447.857956,0.000000,0.000000,10799.070925
447.858259,0.000000,0.000000,10799.070925
447.858562,0.000000,0.000000,10799.070925
447.858865,0.000000,76.589155,10799.070925
447.859169,-153.178311,-306.356622,11105.427547
447.859472,0.000000,76.589155,10952.249236
447.859776,-306.356622,0.000000,10722.481770
447.860079,-153.178311,0.000000,10952.249236
447.860383,0.000000,76.589155,10952.249236
447.860687,-153.178311,-153.178311,11411.784169
447.860990,0.000000,76.589155,11105.427547
447.861301,76.589155,0.000000,10799.070925
447.861603,-306.356622,0.000000,11258.605858
447.861906,76.589155,229.767466,10722.481770
447.862208,0.000000,76.589155,10722.481770
447.862510,-153.178311,76.589155,10952.249236
447.862813,76.589155,382.945777,10722.481770
447.863115,0.000000,76.589155,10799.070925
447.863418,76.589155,229.767466,10799.070925
447.863721,-153.178311,76.589155,10799.070925
447.864024,-306.356622,-153.178311,10952.249236
447.864328,0.000000,382.945777,10799.070925
447.864631,-153.178311,76.589155,10722.481770
447.864935,-153.178311,-306.356622,10799.070925
447.865238,-153.178311,76.589155,10722.481770
447.865542,76.589155,0.000000,10722.481770
447.865846,76.589155,76.589155,10952.249236
447.866148,0.000000,0.000000,11105.427547
447.866452,0.000000,-153.178311,11105.427547
447.866756,0.000000,0.000000,10952.249236
447.867059,0.000000,76.589155,10799.070925
447.867363,-153.178311,-306.356622,10952.249236
447.867666,0.000000,76.589155,10799.070925
447.867970,0.000000,229.767466,10952.249236
447.868273,-153.178311,76.589155,10952.249236
447.868596,76.589155,76.589155,10799.070925
447.868896,76.589155,0.000000,10799.070925
447.869197,-306.356622,76.589155,10952.249236
447.869498,-153.178311,229.767466,10799.070925
447.869799,229.767466,0.000000,10799.070925
447.870099,0.000000,0.000000,10952.249236
447.870400,-306.356622,76.589155,10799.070925
447.870701,76.589155,0.000000,10952.249236
447.871014,229.767466,76.589155,10952.249236
447.871316,-306.356622,76.589155,10952.249236
447.871618,-459.534933,76.589155,10722.481770
447.871921,76.589155,536.124088,10799.070925
447.872223,-306.356622,-153.178311,10952.249236
447.872525,-306.356622,-153.178311,10952.249236
447.872827,0.000000,229.767466,10722.481770
447.873129,229.767466,0.000000,10799.070925
447.873443,-306.356622,0.000000,10799.070925
447.873745,-306.356622,229.767466,10799.070925
447.874047,382.945777,76.589155,10952.249236
447.874349,0.000000,229.767466,10569.303459
447.874651,-306.356622,76.589155,10799.070925
447.874953,0.000000,-153.178311,10952.249236
447.875255,382.945777,0.000000,10799.070925
447.875556,-153.178311,0.000000,10799.070925
447.875860,0.000000,0.000000,10952.249236
447.876163,229.767466,76.589155,10952.249236
447.876467,0.000000,0.000000,10952.249236
447.876770,-153.178311,229.767466,10722.481770
447.877074,76.589155,76.589155,10799.070925
447.877377,0.000000,-153.178311,11258.605858
447.877681,-153.178311,-153.178311,11105.427547
447.877984,-153.178311,-306.356622,10952.249236
447.878295,229.767466,0.000000,10952.249236
447.878597,-153.178311,0.000000,10722.481770
447.878900,-306.356622,76.589155,10952.249236
447.879202,0.000000,229.767466,10799.070925
447.879505,76.589155,0.000000,10799.070925
447.879807,-153.178311,76.589155,10799.070925
447.880109,0.000000,76.589155,10722.481770
447.880412,229.767466,0.000000,11105.427547
447.880715,-306.356622,229.767466,10952.249236
447.881018,-153.178311,76.589155,10799.070925
447.881322,76.589155,0.000000,10952.249236
447.881625,229.767466,229.767466,10799.070925
447.881929,-153.178311,76.589155,10722.481770
447.882232,0.000000,0.000000,10952.249236
447.882536,229.767466,76.589155,10722.481770
447.882839,76.589155,-153.178311,10952.249236
447.883146,-153.178311,0.000000,10952.249236
447.883449,76.589155,229.767466,10799.070925
447.883752,0.000000,76.589155,10952.249236
447.884055,-153.178311,229.767466,10722.481770
447.884358,76.589155,76.589155,10799.070925
447.884661,76.589155,229.767466,10722.481770
447.884964,-153.178311,-153.178311,10952.249236
447.885267,-306.356622,-153.178311,10952.249236
447.885578,0.000000,-153.178311,10952.249236
447.885880,0.000000,0.000000,10799.070925
447.886183,-459.534933,0.000000,10952.249236
447.886485,0.000000,229.767466,10799.070925
447.886788,229.767466,76.589155,10952.249236
447.887090,0.000000,76.589155,10722.481770
447.887392,0.000000,0.000000,10722.481770
447.887695,0.000000,0.000000,10799.070925
447.888008,229.767466,0.000000,10799.070925
447.888310,-153.178311,76.589155,10952.249236
447.888612,0.000000,76.589155,10722.481770
447.888914,229.767466,229.767466,10952.249236
447.889216,76.589155,229.767466,10799.070925
447.889518,-306.356622,229.767466,10952.249236
447.889820,-153.178311,0.000000,10952.249236
447.890123,229.767466,0.000000,10952.249236
447.890438,-306.356622,-153.178311,11258.605858
447.890740,-153.178311,0.000000,10799.070925
447.891041,0.000000,0.000000,10799.070925
447.891343,0.000000,-153.178311,10722.481770
447.891645,-306.356622,229.767466,10799.070925
447.891947,-153.178311,382.945777,10722.481770
447.892248,76.589155,229.767466,10799.070925
447.892550,-153.178311,76.589155,10799.070925
447.892853,-306.356622,0.000000,10952.249236
447.893157,76.589155,0.000000,10952.249236
447.893460,0.000000,76.589155,10722.481770
447.893764,-306.356622,0.000000,10799.070925
447.894067,76.589155,229.767466,10799.070925
447.894371,-153.178311,229.767466,10952.249236
447.894674,0.000000,0.000000,10799.070925
447.894978,229.767466,76.589155,10799.070925
447.895283,76.589155,-153.178311,10952.249236
447.895586,-153.178311,-153.178311,10799.070925
447.895889,-153.178311,76.589155,10799.070925
447.896193,0.000000,76.589155,10799.070925
447.896496,-306.356622,0.000000,10799.070925
447.896799,-153.178311,0.000000,10799.070925
447.897102,0.000000,76.589155,10799.070925
447.897405,76.589155,76.589155,10799.070925
447.897708,-153.178311,0.000000,10799.070925
447.898012,-153.178311,-153.178311,10952.249236
447.898315,0.000000,76.589155,10722.481770
447.898619,-306.356622,0.000000,10799.070925
447.898922,-306.356622,76.589155,10799.070925
447.899226,-153.178311,229.767466,10799.070925
447.899529,0.000000,76.589155,10952.249236
447.899833,0.000000,76.589155,10952.249236
447.900139,229.767466,76.589155,10799.070925
447.900442,76.589155,-306.356622,11258.605858
447.900745,76.589155,76.589155,10952.249236
447.901048,0.000000,0.000000,10952.249236
447.901351,-306.356622,229.767466,10952.249236
447.901655,0.000000,382.945777,10416.125148
447.901958,0.000000,76.589155,10799.070925
447.902261,76.589155,76.589155,10722.481770
447.902572,0.000000,0.000000,10799.070925
447.902874,76.589155,-306.356622,10799.070925
447.903177,-153.178311,-306.356622,10799.070925
447.903479,-153.178311,-153.178311,11258.605858
447.903781,76.589155,0.000000,10799.070925
447.904084,-153.178311,229.767466,10569.303459
447.904386,-153.178311,-153.178311,10799.070925
447.904688,76.589155,76.589155,10799.070925
447.905002,76.589155,382.945777,10799.070925
447.905304,-153.178311,-306.356622,10722.481770
447.905606,0.000000,0.000000,10952.249236
447.905908,76.589155,-306.356622,10799.070925
447.906210,-153.178311,76.589155,10569.303459
447.906512,-459.534933,229.767466,10799.070925
447.906814,229.767466,0.000000,10799.070925
447.907116,229.767466,382.945777,10722.481770
447.907431,-153.178311,0.000000,10952.249236
447.907733,-153.178311,0.000000,10952.249236
447.908035,229.767466,-153.178311,10952.249236
447.908337,0.000000,-153.178311,10952.249236
447.908639,-459.534933,0.000000,10799.070925
447.908940,-459.534933,76.589155,10799.070925
447.909242,229.767466,229.767466,10799.070925
447.909544,0.000000,76.589155,10799.070925
447.909847,-306.356622,0.000000,11258.605858
447.910150,-153.178311,0.000000,11105.427547
447.910454,76.589155,76.589155,10799.070925
447.910757,-306.356622,-306.356622,11411.784169
447.911061,-612.713244,76.589155,10722.481770
447.911365,0.000000,76.589155,10799.070925
447.911668,76.589155,382.945777,10722.481770
447.911972,-153.178311,536.124088,10952.249236
447.912277,76.589155,76.589155,10952.249236
447.912580,76.589155,76.589155,10952.249236
447.912883,0.000000,-306.356622,11105.427547
447.913186,-306.356622,76.589155,11105.427547
447.913490,0.000000,229.767466,10799.070925
447.913793,0.000000,382.945777,10799.070925
447.914096,-153.178311,382.945777,10569.303459
447.914399,0.000000,229.767466,10569.303459
447.914702,229.767466,76.589155,10952.249236
447.915006,0.000000,0.000000,10799.070925
447.915309,-153.178311,0.000000,10952.249236
447.915613,-153.178311,-306.356622,11105.427547
447.915916,-153.178311,0.000000,10799.070925
447.916220,-459.534933,-153.178311,10952.249236
447.916524,-306.356622,0.000000,10722.481770
447.916827,0.000000,382.945777,10799.070925
447.917133,76.589155,76.589155,10799.070925
447.917436,-153.178311,76.589155,11105.427547
447.917739,0.000000,-153.178311,10952.249236
447.918043,76.589155,0.000000,11105.427547
447.918346,-153.178311,-153.178311,11105.427547
447.918649,-306.356622,76.589155,11105.427547
447.918952,76.589155,229.767466,10952.249236
447.919255,382.945777,76.589155,10799.070925
447.919558,0.000000,229.767466,10799.070925
447.919861,76.589155,0.000000,11105.427547
447.920165,229.767466,76.589155,10952.249236
447.920468,-153.178311,76.589155,10952.249236
447.920772,-306.356622,-153.178311,11258.605858
447.921075,0.000000,0.000000,11105.427547
447.921379,0.000000,76.589155,10952.249236
447.921683,-153.178311,-153.178311,10799.070925
447.921985,-153.178311,76.589155,10799.070925
447.922289,0.000000,382.945777,10952.249236
447.922593,-153.178311,229.767466,10722.481770
447.922896,-306.356622,0.000000,10799.070925
447.923200,-153.178311,76.589155,10799.070925
447.923503,76.589155,76.589155,10569.303459
447.923807,-153.178311,76.589155,10722.481770
447.924110,-153.178311,-153.178311,11105.427547
447.924425,76.589155,76.589155,10799.070925
447.924727,76.589155,76.589155,11105.427547
447.925029,-153.178311,0.000000,10722.481770
447.925331,76.589155,76.589155,10952.249236
447.925633,229.767466,76.589155,10952.249236
447.925934,-306.356622,76.589155,10799.070925
447.926236,0.000000,76.589155,10799.070925
447.926538,229.767466,0.000000,10952.249236
447.926841,76.589155,0.000000,10952.249236
447.927144,-306.356622,-153.178311,10952.249236
447.927448,76.589155,0.000000,10799.070925
447.927751,0.000000,-153.178311,10799.070925
447.928055,-306.356622,0.000000,10952.249236
447.928358,-612.713244,76.589155,10952.249236
447.928661,76.589155,76.589155,10722.481770
447.928965,0.000000,76.589155,10952.249236
447.929276,-459.534933,76.589155,10799.070925
447.929578,76.589155,76.589155,10799.070925
447.929881,229.767466,229.767466,10952.249236
447.930183,-306.356622,76.589155,10722.481770
447.930486,-306.356622,-153.178311,10799.070925
447.930788,76.589155,229.767466,10952.249236
447.931090,-153.178311,382.945777,10569.303459
447.931393,-306.356622,0.000000,10722.481770
447.931697,229.767466,0.000000,10722.481770
447.932000,382.945777,76.589155,10952.249236
447.932304,229.767466,0.000000,10799.070925
447.932607,-153.178311,76.589155,10799.070925
447.932911,382.945777,76.589155,10722.481770
447.933214,0.000000,76.589155,10799.070925
447.933517,-306.356622,-153.178311,10952.249236
447.933821,-153.178311,76.589155,10952.249236
447.934124,0.000000,76.589155,10952.249236
447.934427,-306.356622,76.589155,10799.070925
447.934731,-612.713244,0.000000,10952.249236
447.935034,76.589155,76.589155,10799.070925
447.935338,0.000000,76.589155,10799.070925
447.935642,-306.356622,76.589155,11105.427547
447.935945,-153.178311,0.000000,10952.249236
447.936249,229.767466,0.000000,10952.249236
447.936551,-306.356622,76.589155,10722.481770
447.936855,-153.178311,-153.178311,10952.249236
447.937159,229.767466,229.767466,10952.249236
447.937462,76.589155,0.000000,10952.249236
447.937766,-153.178311,229.767466,11105.427547
447.938069,0.000000,229.767466,10722.481770
447.938373,229.767466,76.589155,11105.427547
447.938676,-153.178311,229.767466,10799.070925
447.938985,0.000000,-153.178311,10952.249236
447.939287,382.945777,76.589155,10952.249236
447.939590,0.000000,76.589155,10799.070925
447.939893,-153.178311,76.589155,10952.249236
447.940195,76.589155,76.589155,10952.249236
447.940498,76.589155,229.767466,10799.070925
447.940801,-306.356622,0.000000,10799.070925
447.941103,-306.356622,76.589155,10799.070925
447.941413,76.589155,0.000000,10722.481770
447.941715,0.000000,0.000000,10952.249236
447.942018,-306.356622,0.000000,11105.427547
447.942321,-153.178311,-306.356622,10952.249236
447.942624,76.589155,0.000000,10952.249236
447.942926,-306.356622,76.589155,10799.070925
447.943229,-153.178311,229.767466,10722.481770
447.943532,76.589155,0.000000,10799.070925
447.943834,76.589155,76.589155,10952.249236
447.944138,-306.356622,229.767466,10799.070925
447.944442,76.589155,-153.178311,10799.070925
447.944745,229.767466,229.767466,10952.249236
447.945049,0.000000,76.589155,10952.249236
447.945352,76.589155,229.767466,10952.249236
447.945656,0.000000,229.767466,10569.303459
447.945959,382.945777,76.589155,10722.481770
447.946265,-306.356622,-153.178311,10799.070925
447.946568,-306.356622,76.589155,10799.070925
447.946871,229.767466,-153.178311,11105.427547
447.947174,-153.178311,76.589155,10952.249236
447.947477,-306.356622,-306.356622,10799.070925
447.947780,-153.178311,76.589155,10952.249236
447.948083,0.000000,229.767466,10799.070925
447.948386,-306.356622,76.589155,10952.249236
447.948702,-306.356622,-153.178311,10799.070925
447.949004,0.000000,76.589155,10799.070925
447.949306,-153.178311,-153.178311,10952.249236
447.949608,-306.356622,229.767466,10952.249236
447.949909,0.000000,-153.178311,10952.249236
447.950211,0.000000,76.589155,10799.070925
447.950513,-153.178311,76.589155,10952.249236
447.950815,0.000000,0.000000,10952.249236
447.951134,229.767466,382.945777,11105.427547
447.951435,0.000000,0.000000,10952.249236
447.951736,0.000000,0.000000,10952.249236
447.952038,76.589155,76.589155,10952.249236
447.952339,229.767466,-153.178311,10952.249236
447.952640,-459.534933,0.000000,10799.070925
447.952941,76.589155,76.589155,10722.481770
447.953242,76.589155,-153.178311,10722.481770
447.953545,76.589155,76.589155,10799.070925
447.953849,-306.356622,0.000000,10799.070925
447.954152,0.000000,-153.178311,10952.249236
447.954456,0.000000,0.000000,10799.070925
447.954759,-612.713244,0.000000,10799.070925
447.955063,-153.178311,-153.178311,10952.249236
447.955366,0.000000,76.589155,10722.481770
447.955670,0.000000,-306.356622,10952.249236
447.955973,0.000000,76.589155,10799.070925
447.956277,0.000000,229.767466,10952.249236
447.956580,0.000000,76.589155,10952.249236
447.956884,-306.356622,229.767466,10722.481770
447.957187,-153.178311,0.000000,10799.070925
447.957491,229.767466,229.767466,10952.249236
447.957794,76.589155,229.767466,10722.481770
447.958098,-153.178311,76.589155,10952.249236
447.958402,229.767466,76.589155,10722.481770
447.958706,382.945777,76.589155,10799.070925
447.959009,-306.356622,0.000000,10799.070925
447.959312,-153.178311,0.000000,10799.070925
447.959615,229.767466,0.000000,10799.070925
447.959919,-306.356622,-153.178311,11258.605858
447.960222,-612.713244,0.000000,10799.070925
447.960525,76.589155,-153.178311,10952.249236
447.960828,76.589155,76.589155,10799.070925
447.961132,-306.356622,0.000000,10799.070925
447.961435,-153.178311,76.589155,10799.070925
447.961739,76.589155,76.589155,10952.249236
447.962042,-153.178311,76.589155,10799.070925
447.962345,-306.356622,76.589155,10722.481770
447.962649,-153.178311,76.589155,10722.481770
447.962952,76.589155,76.589155,10799.070925
447.963258,-153.178311,76.589155,10722.481770
447.963561,-306.356622,76.589155,10722.481770
447.963865,0.000000,382.945777,10569.303459
447.964168,76.589155,-153.178311,10722.481770
447.964471,-306.356622,76.589155,10722.481770
447.964774,-153.178311,-153.178311,10799.070925
447.965077,229.767466,76.589155,10799.070925
447.965380,0.000000,-306.356622,10952.249236
447.965700,-153.178311,-153.178311,10952.249236
447.966001,0.000000,0.000000,10952.249236
447.966302,229.767466,0.000000,10799.070925
447.966604,-153.178311,0.000000,10799.070925
447.966905,-459.534933,0.000000,10799.070925
447.967206,76.589155,229.767466,10799.070925
447.967507,0.000000,76.589155,10952.249236
447.967809,-612.713244,0.000000,10952.249236
447.968128,-153.178311,0.000000,11105.427547
447.968429,76.589155,229.767466,10799.070925
447.968730,-153.178311,0.000000,10799.070925
447.969032,-306.356622,0.000000,10952.249236
447.969333,0.000000,76.589155,10952.249236
447.969634,76.589155,229.767466,10952.249236
447.969935,-306.356622,76.589155,10952.249236
447.970236,-153.178311,76.589155,10952.249236
447.970539,382.945777,0.000000,10952.249236
447.970843,76.589155,229.767466,10952.249236
447.971146,-153.178311,0.000000,10952.249236
447.971450,382.945777,76.589155,11105.427547
447.971753,229.767466,0.000000,10952.249236
447.972057,-306.356622,0.000000,10952.249236
447.972360,76.589155,229.767466,10799.070925
447.972664,76.589155,76.589155,10722.481770
447.972967,-153.178311,0.000000,10722.481770
447.973271,-153.178311,229.767466,10722.481770
447.973574,0.000000,76.589155,10952.249236
447.973877,0.000000,76.589155,10799.070925
447.974181,-306.356622,0.000000,10799.070925
447.974484,-306.356622,76.589155,10952.249236
447.974788,229.767466,0.000000,10722.481770
447.975091,-153.178311,0.000000,10722.481770
447.975402,-459.534933,0.000000,10799.070925
447.975704,76.589155,76.589155,11105.427547
447.976007,0.000000,76.589155,11105.427547
447.976309,-153.178311,382.945777,10799.070925
447.976612,-153.178311,0.000000,10799.070925
447.976914,0.000000,229.767466,10952.249236
447.977217,0.000000,76.589155,10799.070925
447.977519,0.000000,76.589155,10799.070925
447.977823,0.000000,0.000000,10799.070925
447.978126,76.589155,76.589155,10952.249236
447.978429,76.589155,76.589155,10952.249236
447.978733,-153.178311,0.000000,10799.070925
447.979036,76.589155,76.589155,10952.249236
447.979339,229.767466,0.000000,10952.249236
447.979643,-306.356622,76.589155,10799.070925
447.979946,0.000000,0.000000,10952.249236
447.980257,76.589155,76.589155,10952.249236
447.980559,-306.356622,-153.178311,10799.070925
447.980862,0.000000,0.000000,10799.070925
447.981164,0.000000,229.767466,10799.070925
447.981467,229.767466,0.000000,10952.249236
447.981769,-459.534933,0.000000,10722.481770
447.982072,0.000000,0.000000,10799.070925
447.982374,76.589155,76.589155,10799.070925
447.982686,0.000000,0.000000,10722.481770
447.982988,-153.178311,0.000000,10722.481770
447.983291,-153.178311,229.767466,10722.481770
447.983593,229.767466,76.589155,10569.303459
447.983895,-153.178311,0.000000,10722.481770
447.984198,-153.178311,-153.178311,10952.249236
447.984500,0.000000,229.767466,10799.070925
447.984802,0.000000,76.589155,10952.249236
447.985105,-153.178311,0.000000,10799.070925
447.985409,0.000000,0.000000,10952.249236
447.985712,229.767466,0.000000,10799.070925
447.986016,-153.178311,76.589155,10722.481770
447.986319,-153.178311,-153.178311,10952.249236
447.986623,76.589155,76.589155,10952.249236
447.986926,-306.356622,-153.178311,10952.249236
447.987230,-153.178311,0.000000,10952.249236
447.987533,0.000000,76.589155,11105.427547
447.987836,76.589155,0.000000,10799.070925
447.988140,0.000000,76.589155,10799.070925
447.988444,0.000000,229.767466,10799.070925
447.988747,0.000000,-153.178311,10952.249236
447.989051,-153.178311,229.767466,10799.070925
447.989354,-153.178311,-153.178311,10722.481770
447.989658,0.000000,0.000000,10952.249236
447.989961,76.589155,229.767466,10722.481770
447.990265,0.000000,0.000000,10569.303459
447.990568,0.000000,0.000000,10799.070925
447.990871,0.000000,229.767466,10952.249236
447.991175,76.589155,229.767466,10799.070925
447.991478,-153.178311,76.589155,10722.481770
447.991781,0.000000,0.000000,10799.070925
447.992085,382.945777,-153.178311,10952.249236
447.992400,0.000000,76.589155,10799.070925
447.992702,-306.356622,76.589155,10952.249236
447.993004,0.000000,76.589155,10799.070925
447.993305,0.000000,76.589155,10722.481770
447.993607,-306.356622,0.000000,10722.481770
447.993909,-153.178311,-153.178311,10952.249236
447.994211,229.767466,229.767466,10799.070925
447.994513,-153.178311,-153.178311,10952.249236
447.994816,-306.356622,229.767466,10799.070925
447.995120,-153.178311,0.000000,10799.070925
447.995423,76.589155,0.000000,10952.249236
447.995727,-153.178311,0.000000,10799.070925
447.996030,0.000000,229.767466,11105.427547
447.996334,229.767466,76.589155,10799.070925
447.996637,-153.178311,76.589155,10952.249236
447.996941,-153.178311,-153.178311,10799.070925
447.997244,229.767466,76.589155,10799.070925
447.997547,0.000000,-153.178311,10952.249236
447.997851,-306.356622,0.000000,10952.249236
447.998154,-153.178311,76.589155,10722.481770
447.998458,229.767466,76.589155,10722.481770
447.998761,-306.356622,0.000000,10799.070925
447.999064,0.000000,0.000000,10799.070925
447.999368,229.767466,76.589155,10799.070925
447.999679,-153.178311,0.000000,10799.070925
447.999982,-306.356622,0.000000,11105.427547
448.000284,0.000000,0.000000,10722.481770
448.000587,229.767466,76.589155,10799.070925
448.000889,-306.356622,76.589155,10569.303459
448.001191,-306.356622,229.767466,10799.070925
448.001494,229.767466,76.589155,10799.070925
448.001796,76.589155,-153.178311,10799.070925
448.002111,-153.178311,76.589155,10799.070925
448.002412,76.589155,0.000000,10799.070925
448.002714,382.945777,76.589155,10799.070925
448.003016,-153.178311,76.589155,10799.070925
448.003318,-306.356622,-153.178311,11105.427547
448.003620,382.945777,229.767466,10952.249236
448.003922,382.945777,229.767466,10799.070925
448.004224,-459.534933,-306.356622,10952.249236
448.004527,-306.356622,76.589155,10799.070925
448.004830,229.767466,76.589155,10952.249236
448.005134,-306.356622,0.000000,10799.070925
448.005437,-306.356622,76.589155,10722.481770
448.005741,0.000000,-153.178311,10799.070925
448.006045,76.589155,76.589155,10952.249236
448.006348,-306.356622,76.589155,11105.427547
448.006652,0.000000,-306.356622,11105.427547
448.006955,76.589155,76.589155,10952.249236
448.007259,0.000000,76.589155,10799.070925
448.007562,-306.356622,76.589155,10952.249236
448.007866,-153.178311,382.945777,10952.249236
448.008169,229.767466,0.000000,10799.070925
448.008472,0.000000,76.589155,10799.070925
448.008776,76.589155,76.589155,10799.070925
448.009079,0.000000,0.000000,10952.249236
448.009383,0.000000,76.589155,10799.070925
448.009687,-153.178311,229.767466,10799.070925
448.009990,-153.178311,0.000000,10952.249236
448.010293,76.589155,-153.178311,10799.070925
448.010597,76.589155,76.589155,10799.070925
448.010900,-153.178311,76.589155,10722.481770
448.011204,0.000000,0.000000,10952.249236
448.011507,76.589155,-153.178311,10952.249236
448.011810,-306.356622,-153.178311,10799.070925
448.012113,-306.356622,-153.178311,10799.070925
448.012417,0.000000,229.767466,10952.249236
448.012720,-153.178311,76.589155,10799.070925
448.013024,0.000000,76.589155,10952.249236
448.013327,0.000000,382.945777,10722.481770
448.013631,0.000000,76.589155,10722.481770
448.013934,76.589155,-306.356622,11105.427547
448.014238,76.589155,229.767466,10952.249236
448.014541,-153.178311,0.000000,11105.427547
448.014844,0.000000,0.000000,10799.070925
448.015148,0.000000,76.589155,10799.070925
448.015451,0.000000,229.767466,10722.481770
448.015755,-153.178311,382.945777,10722.481770
448.016058,0.000000,0.000000,10799.070925
448.016362,76.589155,0.000000,10952.249236
448.016678,76.589155,0.000000,10799.070925
448.016980,0.000000,76.589155,10799.070925
448.017282,-306.356622,229.767466,10799.070925
448.017583,-306.356622,76.589155,10722.481770
448.017885,-306.356622,0.000000,10799.070925
448.018187,0.000000,382.945777,10722.481770
448.018488,0.000000,0.000000,10799.070925
448.018790,76.589155,229.767466,10799.070925
448.019116,-459.534933,-306.356622,10952.249236
448.019416,-153.178311,-153.178311,11258.605858
448.019716,0.000000,229.767466,10799.070925
448.020017,0.000000,0.000000,10952.249236
448.020317,0.000000,76.589155,10952.249236
448.020617,0.000000,76.589155,10952.249236
448.020918,229.767466,382.945777,10799.070925
448.021218,-153.178311,76.589155,10722.481770
448.021527,0.000000,0.000000,11258.605858
448.021830,76.589155,76.589155,11105.427547
448.022132,-153.178311,76.589155,10799.070925
448.022435,-153.178311,76.589155,10799.070925
448.022738,76.589155,229.767466,10799.070925
448.023040,76.589155,0.000000,10799.070925
448.023343,-153.178311,76.589155,10952.249236
448.023646,-306.356622,76.589155,10722.481770
448.023948,0.000000,0.000000,11105.427547
448.024252,-153.178311,0.000000,10952.249236
448.024556,-765.891555,76.589155,10799.070925
448.024859,-153.178311,76.589155,10799.070925
448.025163,0.000000,536.124088,10722.481770
448.025466,-153.178311,-153.178311,10799.070925
448.025770,-153.178311,0.000000,10952.249236
448.026073,229.767466,76.589155,10722.481770
448.026377,-153.178311,-153.178311,11105.427547
448.026681,-153.178311,0.000000,10952.249236
448.026984,0.000000,0.000000,10799.070925
448.027287,76.589155,0.000000,10952.249236
448.027591,-153.178311,229.767466,10952.249236
448.027894,0.000000,-153.178311,10569.303459
448.028198,229.767466,229.767466,10952.249236
448.028501,76.589155,229.767466,10799.070925
448.028804,-153.178311,0.000000,10952.249236
448.029108,76.589155,76.589155,10952.249236
448.029411,76.589155,-153.178311,10952.249236
448.029715,-306.356622,0.000000,10722.481770
448.030018,0.000000,76.589155,10722.481770
448.030322,229.767466,-153.178311,10799.070925
448.030625,0.000000,76.589155,10952.249236
448.030929,-153.178311,-153.178311,10722.481770
448.031238,76.589155,76.589155,10799.070925
448.031541,76.589155,0.000000,10799.070925
448.031843,-306.356622,76.589155,10952.249236
448.032146,-153.178311,0.000000,10569.303459
448.032448,76.589155,76.589155,10799.070925
448.032751,0.000000,0.000000,10722.481770
448.033054,-153.178311,-153.178311,10799.070925
448.033356,0.000000,229.767466,10952.249236
448.033662,536.124088,76.589155,10799.070925
448.033965,0.000000,-153.178311,11105.427547
448.034268,-306.356622,76.589155,10799.070925
448.034572,229.767466,0.000000,10569.303459
448.034875,0.000000,76.589155,10799.070925
448.035178,-153.178311,229.767466,10722.481770
448.035481,-153.178311,-306.356622,11105.427547
448.035784,229.767466,76.589155,10799.070925
448.036103,0.000000,0.000000,10952.249236
448.036405,-459.534933,0.000000,11105.427547
448.036706,-306.356622,-153.178311,10799.070925
448.037007,0.000000,76.589155,10722.481770
448.037308,-306.356622,229.767466,10799.070925
448.037609,-153.178311,0.000000,10799.070925
448.037911,229.767466,0.000000,10952.249236
448.038212,76.589155,0.000000,11105.427547
448.038521,-306.356622,0.000000,11105.427547
448.038824,-153.178311,0.000000,10952.249236
448.039126,76.589155,76.589155,10952.249236
448.039429,-306.356622,76.589155,10722.481770
448.039732,-153.178311,536.124088,10722.481770
448.040034,382.945777,76.589155,10799.070925
448.040337,229.767466,229.767466,10722.481770
448.040640,-153.178311,0.000000,10799.070925
448.040943,0.000000,-153.178311,10952.249236
448.041246,0.000000,0.000000,10799.070925
448.041550,-306.356622,-153.178311,10799.070925
448.041853,-153.178311,76.589155,10799.070925
448.042156,76.589155,382.945777,10799.070925
448.042460,76.589155,229.767466,10799.070925
448.042763,0.000000,229.767466,10799.070925
448.043067,229.767466,-153.178311,10569.303459
448.043370,76.589155,0.000000,10952.249236
448.043674,-153.178311,-153.178311,10799.070925
448.043977,-153.178311,0.000000,10952.249236
448.044281,-153.178311,0.000000,10952.249236
448.044584,-153.178311,-153.178311,10799.070925
448.044888,-153.178311,229.767466,10799.070925
448.045191,76.589155,-153.178311,10952.249236
448.045495,229.767466,76.589155,10952.249236
448.045798,-153.178311,0.000000,11258.605858
448.046101,-153.178311,0.000000,10799.070925
448.046405,76.589155,0.000000,10799.070925
448.046708,-153.178311,76.589155,10952.249236
448.047012,-459.534933,382.945777,10722.481770
448.047315,76.589155,382.945777,10799.070925
448.047619,229.767466,0.000000,11105.427547
448.047923,0.000000,76.589155,10952.249236
448.048227,0.000000,0.000000,10952.249236
448.048531,0.000000,0.000000,11105.427547
448.048834,76.589155,76.589155,10952.249236
448.049137,-919.069866,0.000000,10722.481770
448.049440,0.000000,229.767466,10799.070925
448.049744,0.000000,76.589155,10799.070925
448.050047,-306.356622,76.589155,10722.481770
448.050350,-153.178311,0.000000,10799.070925
448.050667,229.767466,-306.356622,11105.427547
448.050969,0.000000,-153.178311,10952.249236
448.051270,-459.534933,-306.356622,10952.249236
448.051572,0.000000,76.589155,10799.070925
448.051873,76.589155,229.767466,10416.125148
448.052175,0.000000,229.767466,10799.070925
448.052477,0.000000,76.589155,10799.070925
448.052778,76.589155,229.767466,10799.070925
448.053085,76.589155,0.000000,10952.249236
448.053388,-306.356622,76.589155,10952.249236
448.053691,-153.178311,-459.534933,10952.249236
448.053994,76.589155,76.589155,10799.070925
448.054297,-612.713244,0.000000,10799.070925
448.054600,-153.178311,229.767466,10799.070925
448.054903,229.767466,229.767466,10799.070925
448.055206,0.000000,229.767466,10952.249236
448.055515,-306.356622,-153.178311,11258.605858
448.055817,76.589155,0.000000,10799.070925
448.056120,-153.178311,0.000000,11105.427547
448.056423,-612.713244,0.000000,10952.249236
448.056725,-153.178311,0.000000,10799.070925
448.057028,229.767466,76.589155,10799.070925
448.057331,0.000000,76.589155,10799.070925
448.057633,-153.178311,76.589155,10952.249236
448.057936,229.767466,229.767466,10952.249236
448.058240,76.589155,0.000000,10799.070925
448.058543,-306.356622,0.000000,11105.427547
448.058847,0.000000,0.000000,11105.427547
448.059150,76.589155,0.000000,10799.070925
448.059454,-306.356622,229.767466,10952.249236
448.059757,-153.178311,76.589155,10799.070925
448.060061,382.945777,229.767466,10569.303459
448.060364,76.589155,76.589155,10799.070925
448.060668,0.000000,229.767466,10722.481770
448.060971,0.000000,-153.178311,10722.481770
448.061275,-153.178311,-153.178311,10799.070925
448.061578,-153.178311,-153.178311,10952.249236
448.061882,-306.356622,0.000000,10799.070925
448.062185,76.589155,76.589155,10952.249236
448.062489,0.000000,76.589155,10799.070925
448.062792,-306.356622,76.589155,10952.249236
448.063095,0.000000,0.000000,10952.249236
448.063399,0.000000,76.589155,10952.249236
448.063702,-306.356622,0.000000,10952.249236
448.064006,-306.356622,76.589155,10722.481770
448.064309,76.589155,229.767466,10952.249236
448.064613,0.000000,0.000000,10799.070925
448.064916,0.000000,229.767466,10952.249236
448.065223,382.945777,76.589155,11105.427547
448.065526,0.000000,0.000000,11105.427547
448.065829,-153.178311,229.767466,10799.070925
448.066132,76.589155,0.000000,10799.070925
448.066435,76.589155,76.589155,10722.481770
448.066738,-306.356622,0.000000,10799.070925
448.067041,-306.356622,-153.178311,10799.070925
448.067344,229.767466,382.945777,10952.249236
448.067661,-153.178311,0.000000,10799.070925
448.067963,-153.178311,76.589155,10952.249236
448.068264,0.000000,0.000000,10799.070925
448.068566,0.000000,0.000000,10722.481770
448.068867,-153.178311,76.589155,10952.249236
448.069169,-306.356622,76.589155,10722.481770
448.069470,76.589155,0.000000,10799.070925
448.069772,-153.178311,229.767466,10799.070925
448.070079,0.000000,76.589155,10799.070925
448.070382,229.767466,76.589155,10952.249236
448.070685,229.767466,76.589155,10952.249236
448.070988,-153.178311,-153.178311,11258.605858
448.071291,0.000000,0.000000,10799.070925
448.071594,229.767466,-153.178311,10799.070925
448.071897,0.000000,76.589155,10952.249236
448.072200,0.000000,0.000000,10799.070925
448.072510,229.767466,76.589155,10952.249236
448.072812,0.000000,229.767466,10799.070925
448.073115,0.000000,0.000000,10722.481770
448.073417,-153.178311,0.000000,10952.249236
448.073720,76.589155,229.767466,10952.249236
448.074022,-153.178311,76.589155,10799.070925
448.074325,-612.713244,0.000000,10952.249236
448.074627,0.000000,0.000000,10799.070925
448.074930,-153.178311,76.589155,10952.249236
448.075234,-459.534933,76.589155,10952.249236
448.075537,0.000000,76.589155,10799.070925
448.075841,229.767466,229.767466,10722.481770
448.076144,-306.356622,0.000000,10799.070925
448.076448,-306.356622,76.589155,10952.249236
448.076751,76.589155,0.000000,10722.481770
448.077055,76.589155,76.589155,10952.249236
448.077358,-306.356622,0.000000,10952.249236
448.077662,76.589155,76.589155,11105.427547
448.077965,382.945777,229.767466,10952.249236
448.078269,-153.178311,0.000000,10952.249236
448.078572,-306.356622,0.000000,10952.249236
448.078876,229.767466,229.767466,10799.070925
448.079179,229.767466,76.589155,10952.249236
448.079483,-306.356622,0.000000,10799.070925
448.079786,0.000000,-153.178311,10799.070925
448.080089,229.767466,0.000000,10799.070925
448.080393,-153.178311,-306.356622,10952.249236
448.080696,-306.356622,0.000000,10722.481770
448.081000,76.589155,382.945777,10722.481770
448.081303,76.589155,-153.178311,10799.070925
448.081607,-306.356622,76.589155,10799.070925
448.081911,-153.178311,0.000000,10799.070925
448.082217,229.767466,229.767466,10952.249236
448.082520,-153.178311,0.000000,10952.249236
448.082823,-459.534933,0.000000,10799.070925
448.083126,229.767466,76.589155,10722.481770
448.083429,0.000000,76.589155,10799.070925
448.083732,-306.356622,76.589155,10799.070925
448.084035,76.589155,76.589155,10799.070925
448.084338,229.767466,76.589155,10799.070925
448.084661,-153.178311,76.589155,10799.070925
448.084961,-153.178311,0.000000,10952.249236
448.085262,76.589155,0.000000,10952.249236
448.085563,0.000000,0.000000,10952.249236
448.085864,-306.356622,0.000000,10799.070925
448.086164,-153.178311,76.589155,10722.481770
448.086465,76.589155,382.945777,10722.481770
448.086766,-153.178311,0.000000,10799.070925
448.087073,-153.178311,0.000000,11105.427547
448.087376,0.000000,-153.178311,10952.249236
448.087679,0.000000,0.000000,11105.427547
448.087982,-306.356622,76.589155,10799.070925
448.088285,-153.178311,0.000000,10952.249236
448.088588,0.000000,382.945777,10799.070925
448.088891,0.000000,0.000000,10799.070925
448.089194,-306.356622,76.589155,10952.249236
448.089504,-153.178311,0.000000,10952.249236
448.089806,76.589155,0.000000,10799.070925
448.090109,-153.178311,-153.178311,10952.249236
448.090411,-306.356622,0.000000,10952.249236
448.090714,229.767466,229.767466,10799.070925
448.091016,0.000000,229.767466,10952.249236
448.091319,-306.356622,76.589155,10952.249236
448.091621,0.000000,76.589155,10799.070925
448.091924,382.945777,76.589155,10799.070925
448.092227,76.589155,0.000000,10952.249236
448.092531,-306.356622,-153.178311,10952.249236
448.092835,0.000000,0.000000,10799.070925
448.093138,0.000000,0.000000,10799.070925
448.093442,-459.534933,0.000000,10722.481770
448.093745,0.000000,382.945777,10722.481770
448.094049,76.589155,76.589155,10799.070925
448.094359,-306.356622,0.000000,10799.070925
448.094662,-306.356622,0.000000,10952.249236
448.094964,76.589155,229.767466,10952.249236
448.095266,229.767466,76.589155,10799.070925
448.095569,-612.713244,0.000000,10952.249236
448.095871,-153.178311,76.589155,10952.249236
448.096174,0.000000,229.767466,10722.481770
448.096476,0.000000,0.000000,11105.427547
448.096780,-306.356622,-153.178311,10799.070925
448.097083,229.767466,-153.178311,10799.070925
448.097387,76.589155,0.000000,11411.784169
448.097690,-306.356622,76.589155,10799.070925
448.097994,-153.178311,76.589155,10952.249236
448.098297,229.767466,382.945777,10799.070925
448.098601,76.589155,229.767466,10722.481770
448.098904,-153.178311,0.000000,10799.070925
448.099210,0.000000,76.589155,10952.249236
448.099513,0.000000,0.000000,10799.070925
448.099816,-306.356622,-153.178311,10952.249236
448.100119,-153.178311,76.589155,10799.070925
448.100423,-153.178311,0.000000,10799.070925
448.100726,-153.178311,76.589155,10799.070925
448.101029,-153.178311,229.767466,10722.481770
448.101332,76.589155,76.589155,10569.303459
448.101642,76.589155,76.589155,10799.070925
448.101945,-306.356622,0.000000,10722.481770
448.102247,0.000000,0.000000,10722.481770
448.102550,-153.178311,-153.178311,10722.481770
448.102852,-153.178311,76.589155,10722.481770
448.103155,-306.356622,76.589155,10569.303459
448.103457,229.767466,76.589155,10799.070925
448.103759,76.589155,76.589155,10952.249236
448.104062,-459.534933,0.000000,11105.427547
448.104366,76.589155,0.000000,10952.249236
448.104669,229.767466,229.767466,10722.481770
448.104973,-153.178311,-153.178311,10799.070925
448.105276,-153.178311,76.589155,11258.605858
448.105580,229.767466,76.589155,10799.070925
448.105884,76.589155,-153.178311,11258.605858
448.106187,0.000000,-153.178311,11105.427547
448.106502,0.000000,-153.178311,10952.249236
448.106804,76.589155,0.000000,11411.784169
448.107106,-306.356622,-153.178311,10722.481770
448.107407,-306.356622,-459.534933,11105.427547
448.107709,-153.178311,76.589155,11105.427547
448.108011,-306.356622,229.767466,10799.070925
448.108313,-153.178311,0.000000,11105.427547
448.108615,-153.178311,76.589155,11105.427547
448.108918,76.589155,229.767466,10799.070925
448.109221,76.589155,229.767466,10952.249236
448.109525,-153.178311,229.767466,10952.249236
448.109828,76.589155,382.945777,10952.249236
448.110132,382.945777,229.767466,10799.070925
448.110435,0.000000,536.124088,10799.070925
448.110739,0.000000,76.589155,11105.427547
448.111042,229.767466,229.767466,10799.070925
448.111353,-612.713244,382.945777,10799.070925
448.111656,-306.356622,229.767466,10722.481770
448.111958,-306.356622,-153.178311,10952.249236
448.112260,0.000000,76.589155,10722.481770
448.112563,-153.178311,-153.178311,10952.249236
448.112865,-153.178311,-153.178311,10722.481770
448.113167,-306.356622,0.000000,10952.249236
448.113470,76.589155,0.000000,10952.249236
448.113773,-612.713244,0.000000,10799.070925
448.114077,0.000000,0.000000,10952.249236
448.114380,229.767466,229.767466,10569.303459
448.114684,0.000000,76.589155,10799.070925
448.114987,-153.178311,-153.178311,10799.070925
448.115291,0.000000,229.767466,10799.070925
448.115594,0.000000,76.589155,10799.070925
448.115897,-153.178311,-153.178311,10952.249236
448.116204,0.000000,-153.178311,10722.481770
448.116507,0.000000,-306.356622,11105.427547
448.116810,0.000000,-153.178311,10799.070925
448.117113,-153.178311,76.589155,10799.070925
448.117416,0.000000,-153.178311,10952.249236
448.117719,229.767466,76.589155,10799.070925
448.118022,0.000000,76.589155,10569.303459
448.118325,-306.356622,0.000000,10799.070925
448.118647,76.589155,229.767466,10722.481770
448.118948,-153.178311,76.589155,10722.481770
448.119249,0.000000,76.589155,10416.125148
448.119550,-153.178311,0.000000,10416.125148
448.119850,229.767466,76.589155,10722.481770
448.120151,-153.178311,76.589155,10569.303459
448.120452,-306.356622,-306.356622,10722.481770
448.120753,-153.178311,0.000000,10952.249236
448.121066,229.767466,76.589155,10569.303459
448.121368,-306.356622,-153.178311,10569.303459
448.121670,0.000000,76.589155,10952.249236
448.121972,229.767466,229.767466,10799.070925
448.122274,229.767466,76.589155,11105.427547
448.122576,-153.178311,76.589155,10952.249236
448.122878,0.000000,-153.178311,11105.427547
448.123180,229.767466,76.589155,10952.249236
448.123490,-153.178311,229.767466,10799.070925
448.123792,-306.356622,0.000000,11105.427547
448.124095,76.589155,76.589155,11258.605858
448.124398,0.000000,229.767466,11105.427547
448.124700,-306.356622,229.767466,11105.427547
448.125003,-153.178311,382.945777,11105.427547
448.125306,0.000000,76.589155,11258.605858
448.125608,-306.356622,76.589155,10722.481770
448.125911,-612.713244,229.767466,10799.070925
448.126215,-153.178311,229.767466,10722.481770
448.126518,-153.178311,76.589155,10799.070925
448.126822,-612.713244,0.000000,10799.070925
448.127125,76.589155,-153.178311,10952.249236
448.127429,229.767466,0.000000,10722.481770
448.127732,-153.178311,-306.356622,10952.249236
448.128036,0.000000,76.589155,10799.070925
448.128347,0.000000,76.589155,10722.481770
448.128649,-153.178311,-153.178311,10952.249236
448.128952,0.000000,229.767466,10722.481770
448.129254,229.767466,229.767466,10722.481770
448.129557,0.000000,76.589155,10952.249236
448.129859,229.767466,536.124088,10569.303459
448.130161,76.589155,382.945777,10569.303459
448.130464,76.589155,76.589155,10722.481770
448.130767,-153.178311,0.000000,10722.481770
448.131070,0.000000,-153.178311,10799.070925
448.131374,0.000000,-306.356622,10799.070925
448.131677,-153.178311,0.000000,10799.070925
448.131981,-306.356622,-459.534933,11258.605858
448.132284,0.000000,0.000000,10952.249236
448.132588,-459.534933,-153.178311,10799.070925
448.132891,-306.356622,76.589155,10952.249236
448.133194,-306.356622,76.589155,10952.249236
448.133498,-153.178311,229.767466,10952.249236
448.133801,76.589155,382.945777,10952.249236
448.134105,76.589155,536.124088,10722.481770
448.134409,0.000000,536.124088,10952.249236
448.134712,229.767466,689.302399,10569.303459
448.135016,76.589155,229.767466,10799.070925
448.135319,76.589155,0.000000,10799.070925
448.135642,229.767466,229.767466,10799.070925
448.135942,-153.178311,-459.534933,10952.249236
448.136243,-306.356622,-306.356622,10799.070925
448.136544,-153.178311,-306.356622,10722.481770
448.136845,-153.178311,-306.356622,10952.249236
448.137145,-153.178311,0.000000,10799.070925
448.137446,-612.713244,0.000000,10952.249236
448.137747,-306.356622,-612.713244,10952.249236
448.138060,-153.178311,76.589155,10722.481770
448.138362,-612.713244,-153.178311,10799.070925
448.138664,-306.356622,0.000000,10952.249236
448.138966,0.000000,382.945777,10722.481770
448.139269,0.000000,382.945777,10799.070925
448.139571,0.000000,536.124088,10952.249236
448.139873,76.589155,382.945777,10799.070925
448.140175,382.945777,76.589155,10799.070925
448.140490,382.945777,229.767466,10952.249236
448.140792,229.767466,-459.534933,11105.427547
448.141094,229.767466,-153.178311,11411.784169
448.141395,229.767466,0.000000,10952.249236
448.141697,0.000000,-153.178311,11105.427547
448.141999,0.000000,-306.356622,11258.605858
448.142301,0.000000,-153.178311,11105.427547
448.142602,-306.356622,-153.178311,10799.070925
448.142906,-306.356622,-153.178311,10952.249236
448.143209,-306.356622,76.589155,11258.605858
448.143513,-306.356622,382.945777,10952.249236
448.143816,-459.534933,689.302399,11105.427547
448.144120,0.000000,382.945777,10952.249236
448.144423,0.000000,382.945777,11105.427547
448.144727,-306.356622,689.302399,10799.070925
448.145030,-306.356622,842.480710,10722.481770
448.145341,-306.356622,0.000000,10952.249236
448.145644,76.589155,229.767466,11105.427547
448.145946,76.589155,229.767466,10799.070925
448.146248,382.945777,76.589155,10952.249236
448.146551,229.767466,76.589155,10952.249236
448.146853,76.589155,-153.178311,10952.249236
448.147156,-153.178311,-306.356622,10799.070925
448.147458,76.589155,-306.356622,10722.481770
448.147761,-306.356622,-765.891555,10799.070925
448.148065,-153.178311,-612.713244,11105.427547
448.148368,76.589155,-153.178311,10569.303459
448.148672,0.000000,-306.356622,10569.303459
448.148975,-153.178311,536.124088,10569.303459
448.149279,-306.356622,382.945777,10569.303459
448.149582,76.589155,382.945777,10722.481770
448.149886,0.000000,229.767466,10416.125148
448.150192,76.589155,229.767466,10722.481770
448.150495,0.000000,0.000000,10799.070925
448.150798,229.767466,-153.178311,10416.125148
448.151101,-153.178311,-306.356622,10952.249236
448.151404,-612.713244,-459.534933,10569.303459
448.151707,76.589155,-459.534933,10952.249236
448.152010,76.589155,-612.713244,10952.249236
448.152313,-153.178311,-459.534933,10722.481770
448.152629,-153.178311,-459.534933,10952.249236
448.152931,382.945777,-306.356622,10952.249236
448.153233,-153.178311,76.589155,10799.070925
448.153534,-765.891555,-306.356622,11105.427547
448.153836,0.000000,689.302399,10952.249236
448.154138,229.767466,995.659021,10416.125148
448.154439,-153.178311,229.767466,10952.249236
448.154741,-153.178311,382.945777,10952.249236
448.155049,76.589155,689.302399,10952.249236
448.155352,0.000000,382.945777,10952.249236
448.155655,-153.178311,536.124088,10952.249236
448.155958,76.589155,76.589155,11105.427547
448.156260,76.589155,0.000000,11258.605858
448.156563,0.000000,382.945777,10799.070925
448.156866,-459.534933,-153.178311,11105.427547
448.157169,0.000000,-459.534933,11258.605858
448.157484,0.000000,-459.534933,11258.605858
448.157786,0.000000,-153.178311,10952.249236
448.158088,-306.356622,-612.713244,11105.427547
448.158389,-153.178311,-459.534933,11105.427547
448.158691,-765.891555,-153.178311,11258.605858
448.158993,-459.534933,-153.178311,10952.249236
448.159295,0.000000,382.945777,10722.481770
448.159596,229.767466,536.124088,10799.070925
448.159900,76.589155,842.480710,10569.303459
448.160203,-153.178311,842.480710,10722.481770
448.160507,0.000000,689.302399,10799.070925
448.160810,0.000000,382.945777,10799.070925
448.161113,536.124088,382.945777,10952.249236
448.161417,229.767466,76.589155,10799.070925
448.161720,0.000000,0.000000,11105.427547
448.162024,0.000000,76.589155,10952.249236
448.162335,-153.178311,-306.356622,10952.249236
448.162637,76.589155,-612.713244,10952.249236
448.162940,0.000000,-612.713244,11258.605858
448.163242,76.589155,-306.356622,11258.605858
448.163544,-306.356622,-153.178311,11105.427547
448.163847,-612.713244,-459.534933,11258.605858
448.164149,-612.713244,-612.713244,11105.427547
448.164451,-306.356622,76.589155,10799.070925
448.164767,-153.178311,382.945777,10722.481770
448.165068,229.767466,995.659021,10569.303459
448.165370,229.767466,1148.837332,10799.070925
448.165672,-153.178311,689.302399,10799.070925
448.165974,-153.178311,536.124088,10799.070925
448.166276,229.767466,536.124088,10569.303459
448.166578,76.589155,229.767466,10799.070925
448.166880,76.589155,229.767466,10799.070925
448.167183,0.000000,0.000000,11105.427547
448.167486,-153.178311,-306.356622,10952.249236
448.167790,0.000000,0.000000,10952.249236
448.168093,-153.178311,-765.891555,10952.249236
448.168397,382.945777,-306.356622,10952.249236
448.168700,0.000000,-306.356622,10952.249236
448.169004,-306.356622,-765.891555,10952.249236
448.169307,-612.713244,-919.069866,10722.481770
448.169623,-612.713244,-1225.426488,11105.427547
448.169925,-153.178311,-612.713244,10799.070925
448.170227,76.589155,536.124088,10569.303459
448.170528,-306.356622,536.124088,10569.303459
448.170830,-306.356622,1148.837332,10569.303459
448.171132,0.000000,689.302399,10569.303459
448.171433,0.000000,229.767466,10799.070925
448.171735,0.000000,689.302399,10569.303459
448.172044,229.767466,229.767466,10722.481770
448.172346,76.589155,229.767466,10952.249236
448.172649,-459.534933,382.945777,10799.070925
448.172952,-306.356622,-153.178311,11258.605858
448.173254,76.589155,-765.891555,11105.427547
448.173557,76.589155,-459.534933,11411.784169
448.173859,0.000000,-459.534933,11258.605858
448.174162,229.767466,76.589155,10952.249236
448.174478,-612.713244,-612.713244,11105.427547
448.174779,-765.891555,-1225.426488,11411.784169
448.175081,-153.178311,-612.713244,11105.427547
448.175383,76.589155,-153.178311,10952.249236
448.175685,0.000000,689.302399,10722.481770
448.175987,0.000000,1302.015643,10799.070925
448.176289,76.589155,842.480710,10722.481770
448.176591,-306.356622,689.302399,10722.481770
448.176894,-306.356622,536.124088,10569.303459
448.177197,76.589155,689.302399,10569.303459
448.177501,76.589155,382.945777,10799.070925
448.177804,-306.356622,995.659021,10799.070925
448.178108,-153.178311,536.124088,10799.070925
448.178411,229.767466,76.589155,10722.481770
448.178715,76.589155,-459.534933,10952.249236
448.179019,229.767466,-919.069866,10952.249236
448.179321,76.589155,-153.178311,10799.070925
448.179625,-153.178311,-612.713244,10569.303459
448.179928,-459.534933,-612.713244,11105.427547
448.180232,-612.713244,-1225.426488,10799.070925
448.180535,229.767466,-459.534933,11105.427547
448.180839,229.767466,76.589155,10799.070925
448.181142,76.589155,689.302399,10569.303459
448.181446,76.589155,689.302399,10799.070925
448.181761,-306.356622,536.124088,10799.070925
448.182063,-306.356622,229.767466,10722.481770
448.182365,-153.178311,76.589155,10799.070925
448.182667,229.767466,382.945777,10569.303459
448.182969,0.000000,229.767466,10722.481770
448.183270,-306.356622,382.945777,10952.249236
448.183572,-306.356622,689.302399,10799.070925
448.183874,0.000000,-153.178311,10722.481770
448.184177,0.000000,-612.713244,11105.427547
448.184481,382.945777,-612.713244,11105.427547
448.184784,76.589155,-153.178311,11105.427547
448.185088,-612.713244,-459.534933,10799.070925
448.185391,-612.713244,-612.713244,10799.070925
448.185695,0.000000,-1072.248177,11258.605858
448.185998,0.000000,-765.891555,10799.070925
448.186302,382.945777,229.767466,10799.070925
448.186605,229.767466,689.302399,10569.303459
448.186908,76.589155,995.659021,10722.481770
448.187212,-612.713244,382.945777,10569.303459
448.187515,-459.534933,689.302399,10569.303459
448.187819,0.000000,689.302399,10569.303459
448.188122,0.000000,382.945777,10262.946837
448.188426,-306.356622,382.945777,10799.070925
448.188730,-153.178311,536.124088,10799.070925
448.189032,-153.178311,536.124088,10569.303459
448.189336,-306.356622,-306.356622,10952.249236
448.189640,76.589155,-612.713244,10952.249236
448.189943,76.589155,-765.891555,11105.427547
448.190247,0.000000,-153.178311,10952.249236
448.190550,-459.534933,-612.713244,10952.249236
448.190854,0.000000,-612.713244,10952.249236
448.191157,76.589155,-919.069866,11105.427547
448.191468,229.767466,-306.356622,10799.070925
448.191770,382.945777,382.945777,10952.249236
448.192073,229.767466,536.124088,10569.303459
448.192375,0.000000,689.302399,10952.249236
448.192677,-306.356622,229.767466,10952.249236
448.192980,-153.178311,382.945777,10722.481770
448.193282,76.589155,76.589155,10799.070925
448.193585,0.000000,536.124088,10722.481770
448.193888,-153.178311,689.302399,10722.481770
448.194191,-459.534933,536.124088,10952.249236
448.194495,-153.178311,536.124088,10799.070925
448.194798,-459.534933,-153.178311,10799.070925
448.195102,-153.178311,-612.713244,11258.605858
448.195405,-153.178311,-459.534933,11411.784169
448.195708,-153.178311,-306.356622,11105.427547
448.196012,-765.891555,-612.713244,10952.249236
448.196318,-306.356622,-459.534933,10952.249236
448.196621,536.124088,-459.534933,11105.427547
448.196924,382.945777,0.000000,10952.249236
448.197227,229.767466,382.945777,10799.070925
448.197531,76.589155,382.945777,10722.481770
448.197834,229.767466,382.945777,10952.249236
448.198137,-153.178311,382.945777,10799.070925
448.198440,229.767466,382.945777,10722.481770
448.198748,229.767466,536.124088,10799.070925
448.199051,-153.178311,536.124088,10569.303459
448.199354,-306.356622,382.945777,10569.303459
448.199657,-153.178311,382.945777,10799.070925
448.199960,-459.534933,-153.178311,10799.070925
448.200262,-153.178311,-153.178311,10952.249236
448.200565,-153.178311,-919.069866,11564.962480
448.200868,-306.356622,-612.713244,10952.249236
448.201171,0.000000,-459.534933,11105.427547
448.201475,-612.713244,-612.713244,11105.427547
448.201778,0.000000,0.000000,10952.249236
448.202082,382.945777,-153.178311,10952.249236
448.202385,382.945777,382.945777,11105.427547
448.202689,229.767466,689.302399,10569.303459
448.202992,229.767466,382.945777,10569.303459
448.203296,0.000000,76.589155,10952.249236
448.203599,0.000000,536.124088,10569.303459
448.203902,382.945777,76.589155,10799.070925
448.204206,76.589155,382.945777,10569.303459
448.204509,-153.178311,382.945777,10722.481770
448.204813,-612.713244,229.767466,10799.070925
448.205116,-306.356622,536.124088,10569.303459
448.205420,-306.356622,-306.356622,10799.070925
448.205723,-612.713244,-765.891555,11258.605858
448.206026,-459.534933,-306.356622,10952.249236
448.206330,-612.713244,-612.713244,10952.249236
448.206634,-612.713244,-306.356622,10952.249236
448.206937,-306.356622,-612.713244,10799.070925
448.207241,76.589155,-612.713244,11258.605858
448.207544,536.124088,229.767466,10952.249236
448.207848,229.767466,229.767466,10799.070925
448.208151,229.767466,536.124088,10799.070925
448.208462,382.945777,536.124088,10722.481770
448.208764,76.589155,382.945777,10952.249236
448.209067,76.589155,76.589155,10569.303459
448.209369,382.945777,229.767466,10722.481770
448.209672,229.767466,76.589155,10952.249236
448.209974,-306.356622,382.945777,10569.303459
448.210277,-306.356622,229.767466,10952.249236
448.210579,-153.178311,76.589155,10952.249236
448.210882,-306.356622,-459.534933,11105.427547
448.211186,-919.069866,-612.713244,11258.605858
448.211489,-306.356622,-306.356622,10952.249236
448.211792,-459.534933,0.000000,10952.249236
448.212096,-765.891555,-306.356622,11105.427547
448.212399,-612.713244,0.000000,10952.249236
448.212703,229.767466,382.945777,10952.249236
448.213006,382.945777,536.124088,10799.070925
448.213316,229.767466,689.302399,10799.070925
448.213619,229.767466,229.767466,10952.249236
448.213921,536.124088,229.767466,10952.249236
448.214224,382.945777,382.945777,10722.481770
448.214526,382.945777,536.124088,10799.070925
448.214829,382.945777,382.945777,10799.070925
448.215131,0.000000,536.124088,10722.481770
448.215434,-459.534933,0.000000,10952.249236
448.215740,-306.356622,-153.178311,10952.249236
448.216043,0.000000,-153.178311,11105.427547
448.216346,-306.356622,-612.713244,11258.605858
448.216650,-919.069866,-612.713244,11411.784169
448.216953,-765.891555,-306.356622,11105.427547
448.217256,-306.356622,0.000000,10952.249236
448.217559,-612.713244,-306.356622,10952.249236
448.217862,-612.713244,0.000000,10952.249236
448.218165,229.767466,229.767466,10799.070925
448.218469,229.767466,382.945777,10799.070925
448.218772,76.589155,689.302399,10722.481770
448.219076,76.589155,229.767466,10799.070925
448.219379,229.767466,536.124088,10722.481770
448.219683,229.767466,229.767466,10722.481770
448.219986,382.945777,229.767466,10799.070925
448.220290,229.767466,76.589155,10799.070925
448.220593,76.589155,76.589155,10722.481770
448.220896,-153.178311,-153.178311,10722.481770
448.221200,-153.178311,-306.356622,10952.249236
448.221504,-306.356622,-306.356622,10722.481770
448.221807,-306.356622,-459.534933,10952.249236
448.222111,-1072.248177,-459.534933,10952.249236
448.222414,-612.713244,-459.534933,10952.249236
448.222718,-765.891555,-306.356622,11105.427547
448.223021,-612.713244,-153.178311,11105.427547
448.223325,-459.534933,76.589155,10799.070925
448.223628,76.589155,382.945777,10952.249236
448.223931,76.589155,842.480710,10799.070925
448.224235,229.767466,536.124088,10799.070925
448.224538,229.767466,536.124088,11105.427547
448.224842,382.945777,536.124088,10799.070925
448.225145,382.945777,229.767466,10799.070925
448.225453,382.945777,229.767466,10722.481770
448.225756,229.767466,76.589155,10722.481770
448.226059,229.767466,-306.356622,10952.249236
448.226362,-153.178311,-153.178311,10722.481770
448.226665,0.000000,-612.713244,10799.070925
448.226968,0.000000,-919.069866,11105.427547
448.227270,-612.713244,-459.534933,10799.070925
448.227573,-919.069866,-612.713244,10952.249236
448.227876,-919.069866,-153.178311,10722.481770
448.228180,-612.713244,-459.534933,10952.249236
448.228483,-306.356622,-306.356622,10799.070925
448.228787,-306.356622,536.124088,10722.481770
448.229090,76.589155,382.945777,10569.303459
448.229394,229.767466,536.124088,10569.303459
448.229697,229.767466,995.659021,10722.481770
448.230001,382.945777,76.589155,10952.249236
448.230305,689.302399,382.945777,10722.481770
448.230608,689.302399,382.945777,10799.070925
448.230912,229.767466,76.589155,10722.481770
448.231215,229.767466,76.589155,10799.070925
448.231518,76.589155,-153.178311,10952.249236
448.231822,0.000000,-612.713244,11105.427547
448.232125,-306.356622,-459.534933,11105.427547
448.232428,-153.178311,-612.713244,11258.605858
448.232739,-765.891555,-612.713244,11105.427547
448.233042,-1072.248177,0.000000,11105.427547
448.233344,-612.713244,-306.356622,11105.427547
448.233647,-612.713244,229.767466,11105.427547
448.233949,-612.713244,382.945777,10799.070925
448.234252,-306.356622,536.124088,10799.070925
448.234554,76.589155,1302.015643,10722.481770
448.234857,229.767466,842.480710,10799.070925
448.235172,229.767466,536.124088,10799.070925
448.235473,536.124088,689.302399,10722.481770
448.235775,536.124088,382.945777,10722.481770
448.236077,229.767466,382.945777,10799.070925
448.236379,76.589155,229.767466,10722.481770
448.236681,229.767466,-306.356622,10722.481770
448.236982,0.000000,-306.356622,10799.070925
448.237284,-153.178311,-919.069866,10952.249236
448.237587,-306.356622,-765.891555,11105.427547
448.237891,-459.534933,-612.713244,10722.481770
448.238194,-1072.248177,-612.713244,10952.249236
448.238498,-919.069866,-306.356622,10952.249236
448.238801,-612.713244,-306.356622,10952.249236
448.239105,-612.713244,-306.356622,10799.070925
448.239408,-306.356622,229.767466,10799.070925
448.239712,0.000000,536.124088,10569.303459
448.240015,229.767466,995.659021,11105.427547
448.240319,76.589155,842.480710,10722.481770
448.240622,76.589155,689.302399,10722.481770
448.240925,689.302399,382.945777,10799.070925
448.241229,536.124088,382.945777,10569.303459
448.241532,382.945777,0.000000,10722.481770
448.241836,229.767466,382.945777,10722.481770
448.242139,382.945777,0.000000,10799.070925
448.242443,0.000000,-459.534933,10799.070925
448.242747,0.000000,-919.069866,10952.249236
448.243050,0.000000,-919.069866,11258.605858
448.243354,-459.534933,-612.713244,10799.070925
448.243657,-765.891555,-306.356622,10722.481770
448.243960,-919.069866,0.000000,10799.070925
448.244264,-765.891555,-153.178311,11105.427547
448.244567,-306.356622,76.589155,10799.070925
448.244871,-306.356622,842.480710,10722.481770
448.245174,0.000000,536.124088,10799.070925
448.245477,0.000000,995.659021,10952.249236
448.245781,0.000000,995.659021,10722.481770
448.246084,0.000000,536.124088,10799.070925
448.246387,536.124088,536.124088,10569.303459
448.246691,382.945777,689.302399,10569.303459
448.246994,229.767466,76.589155,10722.481770
448.247298,229.767466,382.945777,10416.125148
448.247602,229.767466,-153.178311,10799.070925
448.247905,-153.178311,-765.891555,10952.249236
448.248208,0.000000,-919.069866,11411.784169
448.248512,-153.178311,-1225.426488,11105.427547
448.248815,-612.713244,-612.713244,10799.070925
448.249119,-919.069866,-306.356622,10952.249236
448.249422,-919.069866,-612.713244,11105.427547
448.249737,-459.534933,76.589155,10952.249236
448.250039,-306.356622,0.000000,10952.249236
448.250341,76.589155,689.302399,10799.070925
448.250643,-306.356622,1148.837332,10799.070925
448.250945,76.589155,842.480710,10952.249236
448.251246,76.589155,842.480710,10799.070925
448.251548,76.589155,536.124088,11105.427547
448.251850,689.302399,536.124088,10799.070925
448.252176,229.767466,229.767466,10952.249236
448.252476,229.767466,229.767466,10722.481770
448.252777,76.589155,76.589155,10799.070925
448.253077,382.945777,0.000000,10569.303459
448.253377,-153.178311,-1072.248177,10952.249236
448.253677,-306.356622,-1378.604799,11258.605858
448.253978,-153.178311,-612.713244,10952.249236
448.254278,-919.069866,-612.713244,10799.070925
448.254581,-919.069866,-153.178311,10952.249236
448.254885,-765.891555,-306.356622,10799.070925
448.255188,-153.178311,229.767466,10952.249236
448.255492,-153.178311,536.124088,10952.249236
448.255795,0.000000,842.480710,10569.303459
448.256099,382.945777,1148.837332,10722.481770
448.256402,-153.178311,995.659021,10722.481770
448.256706,0.000000,842.480710,10722.481770
448.257009,229.767466,382.945777,10799.070925
448.257312,536.124088,536.124088,10569.303459
448.257616,382.945777,229.767466,10722.481770
448.257919,0.000000,229.767466,10799.070925
448.258223,536.124088,0.000000,10722.481770
448.258526,0.000000,-765.891555,11105.427547
448.258830,-306.356622,-919.069866,11105.427547
448.259134,-153.178311,-1531.783110,11105.427547
448.259438,-459.534933,-765.891555,11105.427547
448.259741,-919.069866,-612.713244,10722.481770
448.260044,-1072.248177,-612.713244,10799.070925
448.260348,-612.713244,-153.178311,10952.249236
448.260651,-153.178311,-306.356622,10952.249236
448.260955,229.767466,995.659021,10799.070925
448.261258,-153.178311,1302.015643,10722.481770
448.261561,0.000000,842.480710,10799.070925
448.261865,76.589155,842.480710,10799.070925
448.262168,229.767466,995.659021,10952.249236
448.262472,689.302399,536.124088,10569.303459
448.262775,382.945777,536.124088,10722.481770
448.263079,536.124088,536.124088,10799.070925
448.263382,76.589155,76.589155,10799.070925
448.263685,0.000000,-153.178311,10952.249236
448.263989,-306.356622,-1072.248177,10952.249236
448.264298,-306.356622,-1072.248177,11105.427547
448.264601,-459.534933,-1072.248177,11105.427547
448.264903,-919.069866,-306.356622,10799.070925
448.265206,-1072.248177,-612.713244,11105.427547
448.265509,-765.891555,-459.534933,10952.249236
448.265811,-765.891555,-153.178311,11105.427547
448.266114,0.000000,76.589155,10799.070925
448.266417,0.000000,1148.837332,10722.481770
448.266734,-153.178311,1302.015643,10569.303459
448.267035,0.000000,842.480710,10952.249236
448.267337,0.000000,1148.837332,10799.070925
448.267638,382.945777,382.945777,10799.070925
448.267940,536.124088,1148.837332,10799.070925
448.268241,536.124088,536.124088,10952.249236
448.268543,382.945777,229.767466,11105.427547
448.268844,229.767466,689.302399,11105.427547
448.269170,76.589155,-459.534933,10799.070925
448.269471,0.000000,-1531.783110,11258.605858
448.269771,-306.356622,-1225.426488,11258.605858
448.270071,-612.713244,-1225.426488,10952.249236
448.270371,-612.713244,-765.891555,10722.481770
448.270672,-919.069866,-765.891555,10799.070925
448.270972,-919.069866,-1072.248177,10952.249236
448.271272,-306.356622,76.589155,10722.481770
448.271575,0.000000,536.124088,10569.303459
448.271879,0.000000,1455.193954,10569.303459
448.272182,-765.891555,1148.837332,10569.303459
448.272486,-153.178311,689.302399,10952.249236
448.272789,0.000000,382.945777,10799.070925
448.273093,229.767466,689.302399,10569.303459
448.273396,229.767466,536.124088,10799.070925
448.273700,536.124088,995.659021,10722.481770
448.274003,229.767466,382.945777,10952.249236
448.274306,76.589155,0.000000,10799.070925
448.274610,229.767466,-612.713244,10952.249236
448.274913,76.589155,-1378.604799,11411.784169
448.275217,76.589155,-1072.248177,10952.249236
448.275520,-612.713244,-765.891555,10952.249236
448.275824,-612.713244,-919.069866,10952.249236
448.276127,-765.891555,-612.713244,10722.481770
448.276434,-306.356622,-765.891555,11105.427547
448.276737,-153.178311,76.589155,10952.249236
448.277040,76.589155,1148.837332,10416.125148
448.277343,-459.534933,1148.837332,10569.303459
448.277646,-306.356622,1148.837332,10722.481770
448.277949,0.000000,842.480710,10569.303459
448.278252,229.767466,842.480710,10799.070925
448.278555,382.945777,536.124088,10569.303459
448.278858,382.945777,689.302399,10799.070925
448.279162,229.767466,536.124088,10799.070925
448.279465,0.000000,842.480710,10722.481770
448.279769,-306.356622,-459.534933,11105.427547
448.280073,76.589155,-1072.248177,11105.427547
448.280376,382.945777,-1378.604799,11258.605858
448.280680,0.000000,-919.069866,10952.249236
448.280983,-459.534933,-612.713244,10799.070925
448.281286,-612.713244,-459.534933,11105.427547
448.281590,-765.891555,-765.891555,11105.427547
448.281893,-306.356622,-306.356622,10952.249236
448.282197,-153.178311,229.767466,10952.249236
448.282500,0.000000,1302.015643,10569.303459
448.282804,-459.534933,1148.837332,10799.070925
448.283107,-459.534933,842.480710,10799.070925
448.283411,0.000000,842.480710,10722.481770
448.283728,382.945777,382.945777,10799.070925
448.284029,229.767466,536.124088,10952.249236
448.284331,229.767466,689.302399,10799.070925
448.284632,229.767466,382.945777,11105.427547
448.284934,-153.178311,76.589155,10799.070925
448.285236,0.000000,-306.356622,10799.070925
448.285537,76.589155,-1378.604799,11258.605858
448.285839,0.000000,-765.891555,10952.249236
448.286157,-153.178311,-765.891555,10952.249236
448.286459,-459.534933,-612.713244,10722.481770
448.286760,-765.891555,-919.069866,11105.427547
448.287061,-612.713244,-765.891555,10952.249236
448.287363,0.000000,-459.534933,10952.249236
448.287664,0.000000,382.945777,10799.070925
448.287965,0.000000,1148.837332,10569.303459
448.288267,-153.178311,1148.837332,10799.070925
448.288576,-153.178311,1148.837332,10722.481770
448.288878,-153.178311,842.480710,10569.303459
448.289181,0.000000,689.302399,10799.070925
448.289484,229.767466,536.124088,10799.070925
448.289786,76.589155,689.302399,10722.481770
448.290089,229.767466,689.302399,10722.481770
448.290392,0.000000,-153.178311,10799.070925
448.290694,0.000000,-919.069866,11258.605858
448.290996,76.589155,-919.069866,11105.427547
448.291299,-153.178311,-919.069866,11258.605858
448.291603,-153.178311,-612.713244,10799.070925
448.291907,-612.713244,-919.069866,10799.070925
448.292211,-765.891555,-612.713244,11105.427547
448.292514,-459.534933,-306.356622,10952.249236
448.292818,0.000000,-306.356622,10952.249236
448.293122,0.000000,229.767466,10799.070925
448.293427,-153.178311,1148.837332,10569.303459
448.293731,-306.356622,1148.837332,10722.481770
448.294034,-612.713244,536.124088,10799.070925
448.294337,76.589155,689.302399,10952.249236
448.294640,229.767466,689.302399,10952.249236
448.294943,229.767466,842.480710,10569.303459
448.295246,0.000000,689.302399,10799.070925
448.295550,76.589155,382.945777,10952.249236
448.295852,0.000000,-153.178311,10952.249236
448.296156,229.767466,-765.891555,11105.427547
448.296460,229.767466,-765.891555,11105.427547
448.296763,229.767466,-1072.248177,10952.249236
448.297067,-612.713244,-612.713244,10952.249236
448.297370,-612.713244,-765.891555,10799.070925
448.297674,-765.891555,-919.069866,11105.427547
448.297978,-306.356622,-459.534933,10952.249236
448.298282,76.589155,76.589155,10799.070925
448.298586,76.589155,536.124088,10799.070925
448.298889,-306.356622,1148.837332,10722.481770
448.299192,-153.178311,536.124088,10799.070925
448.299495,76.589155,842.480710,10799.070925
448.299799,0.000000,536.124088,10722.481770
448.300102,76.589155,536.124088,10799.070925
448.300405,76.589155,995.659021,10952.249236
448.300708,229.767466,842.480710,10799.070925
448.301012,76.589155,536.124088,11105.427547
448.301315,76.589155,-306.356622,10952.249236
448.301619,382.945777,-1072.248177,11564.962480
448.301922,76.589155,-765.891555,11258.605858
448.302226,-306.356622,-612.713244,10952.249236
448.302529,-612.713244,-306.356622,11258.605858
448.302833,-612.713244,-459.534933,10952.249236
448.303152,-306.356622,-612.713244,11105.427547
448.303453,76.589155,0.000000,10952.249236
448.303754,229.767466,76.589155,10722.481770
448.304055,-153.178311,536.124088,10799.070925
448.304357,-153.178311,536.124088,10952.249236
448.304658,-153.178311,536.124088,10799.070925
448.304959,0.000000,842.480710,10799.070925
448.305260,0.000000,536.124088,10722.481770
448.305564,76.589155,842.480710,10722.481770
448.305868,76.589155,842.480710,10569.303459
448.306171,229.767466,689.302399,10799.070925
448.306475,0.000000,229.767466,10799.070925
448.306778,76.589155,-459.534933,11105.427547
448.307081,229.767466,-765.891555,10952.249236
448.307385,0.000000,-612.713244,11105.427547
448.307688,-153.178311,-919.069866,10799.070925
448.307992,-306.356622,-459.534933,10799.070925
448.308295,-765.891555,-919.069866,10952.249236
448.308598,-153.178311,-765.891555,10952.249236
448.308902,76.589155,-306.356622,11105.427547
448.309205,229.767466,76.589155,10799.070925
448.309509,0.000000,995.659021,10952.249236
448.309812,-306.356622,382.945777,10569.303459
448.310116,0.000000,536.124088,10799.070925
448.310421,-153.178311,229.767466,10722.481770
448.310724,229.767466,842.480710,10799.070925
448.311028,76.589155,536.124088,10722.481770
448.311331,76.589155,842.480710,10952.249236
448.311634,-306.356622,689.302399,11105.427547
448.311937,76.589155,229.767466,10952.249236
448.312240,229.767466,-765.891555,11258.605858
448.312544,0.000000,-919.069866,11258.605858
448.312846,-153.178311,-459.534933,10952.249236
448.313150,-153.178311,-153.178311,10722.481770
448.313454,-612.713244,-459.534933,10952.249236
448.313757,-765.891555,-459.534933,11105.427547
448.314061,0.000000,-765.891555,10952.249236
448.314364,76.589155,0.000000,10799.070925
448.314668,-153.178311,689.302399,10569.303459
448.314971,-459.534933,76.589155,10799.070925
448.315278,0.000000,689.302399,10722.481770
448.315581,-153.178311,536.124088,10952.249236
448.315884,-306.356622,689.302399,10799.070925
448.316187,229.767466,842.480710,10416.125148
448.316490,229.767466,842.480710,10799.070925
448.316793,-459.534933,382.945777,10952.249236
448.317096,0.000000,536.124088,10799.070925
448.317399,229.767466,0.000000,11105.427547
448.317710,229.767466,-459.534933,11105.427547
448.318013,0.000000,-459.534933,10952.249236
448.318315,-153.178311,-612.713244,10952.249236
448.318617,0.000000,-765.891555,10952.249236
448.318920,-612.713244,-919.069866,11105.427547
448.319222,-153.178311,-1072.248177,10952.249236
448.319525,229.767466,-459.534933,10799.070925
448.319827,229.767466,0.000000,10952.249236
448.320146,76.589155,536.124088,10722.481770
448.320447,0.000000,842.480710,10416.125148
448.320748,-153.178311,382.945777,10799.070925
448.321050,-459.534933,229.767466,10799.070925
448.321351,0.000000,382.945777,10722.481770
448.321652,382.945777,689.302399,10799.070925
448.321953,76.589155,842.480710,10799.070925
448.322255,-153.178311,689.302399,10799.070925
448.322565,-153.178311,382.945777,10799.070925
448.322867,0.000000,382.945777,10722.481770
448.323170,-306.356622,-765.891555,11411.784169
448.323472,-153.178311,-306.356622,11105.427547
448.323775,-153.178311,-612.713244,10952.249236
448.324077,-612.713244,-459.534933,10799.070925
448.324380,-459.534933,-459.534933,10952.249236
448.324683,76.589155,-612.713244,11105.427547
448.324985,382.945777,-153.178311,10952.249236
448.325289,76.589155,229.767466,10952.249236
448.325592,0.000000,229.767466,10799.070925
448.325896,-153.178311,689.302399,10799.070925
448.326199,0.000000,382.945777,10799.070925
448.326503,-306.356622,536.124088,10799.070925
448.326806,382.945777,842.480710,10569.303459
448.327110,76.589155,536.124088,10722.481770
448.327414,-459.534933,536.124088,10799.070925
448.327718,-306.356622,76.589155,11105.427547
448.328021,76.589155,-153.178311,10799.070925
448.328324,-153.178311,-459.534933,10799.070925
448.328628,-306.356622,-612.713244,10952.249236
448.328931,-306.356622,-612.713244,11105.427547
448.329235,-306.356622,-459.534933,10952.249236
448.329538,-919.069866,-919.069866,10799.070925
448.329841,-306.356622,-612.713244,11105.427547
448.330145,76.589155,-765.891555,11105.427547
448.330448,382.945777,-153.178311,10799.070925
448.330752,76.589155,536.124088,10722.481770
448.331055,0.000000,229.767466,10799.070925
448.331359,76.589155,536.124088,10799.070925
448.331662,0.000000,229.767466,10722.481770
448.331966,229.767466,382.945777,10722.481770
448.332273,0.000000,995.659021,10416.125148
448.332576,382.945777,382.945777,10799.070925
448.332879,-306.356622,689.302399,11105.427547
448.333182,0.000000,689.302399,10799.070925
448.333485,76.589155,0.000000,10799.070925
448.333788,0.000000,-459.534933,11411.784169
448.334091,-153.178311,-306.356622,11105.427547
448.334394,-153.178311,-459.534933,10952.249236
448.334716,-306.356622,0.000000,10799.070925
448.335017,-612.713244,-765.891555,11105.427547
448.335318,-306.356622,-612.713244,11564.962480
448.335618,0.000000,0.000000,11105.427547
448.335919,76.589155,76.589155,10799.070925
448.336220,0.000000,229.767466,10952.249236
448.336521,-153.178311,382.945777,10722.481770
448.336822,76.589155,382.945777,10799.070925
448.337124,76.589155,536.124088,10799.070925
448.337428,229.767466,689.302399,10569.303459
448.337731,229.767466,382.945777,10722.481770
448.338035,229.767466,536.124088,10799.070925
448.338338,76.589155,842.480710,10799.070925
448.338642,-306.356622,229.767466,10799.070925
448.338945,0.000000,-306.356622,10952.249236
448.339249,76.589155,-459.534933,10952.249236
448.339561,-459.534933,-459.534933,10952.249236
448.339864,-1072.248177,-459.534933,10799.070925
448.340166,0.000000,-459.534933,10952.249236
448.340468,-153.178311,-612.713244,10722.481770
448.340770,-306.356622,-612.713244,10952.249236
448.341073,0.000000,0.000000,11105.427547
448.341375,689.302399,536.124088,10799.070925
448.341677,0.000000,382.945777,10569.303459
448.341980,-459.534933,76.589155,10952.249236
448.342283,382.945777,76.589155,10799.070925
448.342587,536.124088,536.124088,10799.070925
448.342891,0.000000,536.124088,10722.481770
448.343194,0.000000,536.124088,10569.303459
448.343498,229.767466,536.124088,11105.427547
448.343801,-306.356622,76.589155,10952.249236
448.344105,-612.713244,382.945777,10799.070925
448.344416,-459.534933,-612.713244,11105.427547
448.344718,0.000000,-612.713244,11258.605858
448.345020,-306.356622,-153.178311,10952.249236
448.345323,-612.713244,-153.178311,10799.070925
448.345625,-153.178311,-153.178311,10952.249236
448.345928,-153.178311,-459.534933,11105.427547
448.346230,0.000000,0.000000,11105.427547
448.346532,229.767466,536.124088,10722.481770
448.346836,229.767466,229.767466,10722.481770
448.347139,76.589155,76.589155,10722.481770
448.347443,-153.178311,229.767466,10799.070925
448.347746,229.767466,382.945777,10799.070925
448.348050,229.767466,536.124088,10799.070925
448.348353,0.000000,229.767466,10799.070925
448.348657,0.000000,0.000000,10799.070925
448.348960,76.589155,382.945777,10799.070925
448.349266,0.000000,229.767466,10799.070925
448.349569,-153.178311,-306.356622,10952.249236
448.349872,-612.713244,-612.713244,11258.605858
448.350175,0.000000,-612.713244,11258.605858
448.350478,-306.356622,-153.178311,10952.249236
448.350782,-459.534933,-153.178311,10952.249236
448.351085,0.000000,-153.178311,10952.249236
448.351388,76.589155,-306.356622,11258.605858
448.351710,-153.178311,382.945777,10722.481770
448.352011,229.767466,382.945777,10722.481770
448.352312,382.945777,0.000000,10952.249236
448.352612,76.589155,229.767466,10799.070925
448.352913,229.767466,0.000000,10952.249236
448.353214,382.945777,536.124088,10799.070925
448.353515,536.124088,536.124088,10722.481770
448.353815,76.589155,0.000000,10799.070925
448.354129,0.000000,382.945777,10799.070925
448.354431,-459.534933,0.000000,10722.481770
448.354733,-459.534933,0.000000,10799.070925
448.355035,-612.713244,-459.534933,10952.249236
448.355337,-306.356622,-459.534933,11258.605858
448.355639,-612.713244,-459.534933,10952.249236
448.355941,-612.713244,0.000000,10799.070925
448.356243,-612.713244,-459.534933,10799.070925
448.356552,-306.356622,-306.356622,10952.249236
448.356855,-153.178311,0.000000,10952.249236
448.357158,0.000000,76.589155,10722.481770
448.357460,382.945777,382.945777,10569.303459
448.357763,76.589155,382.945777,10799.070925
448.358066,76.589155,76.589155,10799.070925
448.358368,229.767466,536.124088,10722.481770
448.358671,382.945777,229.767466,10799.070925
448.358974,382.945777,536.124088,10799.070925
448.359277,229.767466,382.945777,10799.070925
448.359581,76.589155,229.767466,10952.249236
448.359885,0.000000,76.589155,10799.070925
448.360188,-459.534933,-612.713244,10799.070925
448.360492,-153.178311,-306.356622,11105.427547
448.360795,-612.713244,-306.356622,10952.249236
448.361099,-612.713244,-459.534933,11105.427547
448.361410,-306.356622,0.000000,11105.427547
448.361712,-765.891555,0.000000,10799.070925
448.362015,-459.534933,-306.356622,11105.427547
448.362317,-153.178311,76.589155,10722.481770
448.362619,76.589155,229.767466,10722.481770
448.362922,229.767466,382.945777,10952.249236
448.363224,0.000000,536.124088,10722.481770
448.363527,229.767466,229.767466,10799.070925
448.363830,382.945777,382.945777,10799.070925
448.364133,536.124088,536.124088,10416.125148
448.364437,229.767466,382.945777,10799.070925
448.364740,229.767466,382.945777,10722.481770
448.365044,229.767466,-153.178311,10799.070925
448.365347,0.000000,-153.178311,11258.605858
448.365651,-306.356622,-153.178311,10799.070925
448.365954,-306.356622,-459.534933,10952.249236
448.366260,-612.713244,-612.713244,10952.249236
448.366563,-765.891555,-306.356622,10952.249236
448.366866,-765.891555,76.589155,10952.249236
448.367170,-765.891555,76.589155,10799.070925
448.367473,-306.356622,76.589155,10952.249236
448.367776,-306.356622,76.589155,11105.427547
448.368079,76.589155,382.945777,10799.070925
448.368382,229.767466,536.124088,10799.070925
448.368704,229.767466,382.945777,10799.070925
448.369005,229.767466,382.945777,10952.249236
448.369306,536.124088,382.945777,10722.481770
448.369607,536.124088,536.124088,10799.070925
448.369907,382.945777,0.000000,10569.303459
448.370208,229.767466,-306.356622,10799.070925
448.370509,76.589155,-306.356622,10952.249236
448.370810,-306.356622,-306.356622,10722.481770
448.371123,-306.356622,-459.534933,10952.249236
448.371425,-612.713244,-612.713244,11105.427547
448.371727,-459.534933,-153.178311,10799.070925
448.372029,-919.069866,-153.178311,10952.249236
448.372331,-306.356622,0.000000,10569.303459
448.372633,-612.713244,229.767466,10952.249236
448.372935,-153.178311,382.945777,10722.481770
448.373237,76.589155,842.480710,10569.303459
448.373547,76.589155,382.945777,10799.070925
448.373849,536.124088,689.302399,10722.481770
448.374152,229.767466,382.945777,10799.070925
448.374455,229.767466,229.767466,11105.427547
448.374757,382.945777,229.767466,10722.481770
448.375060,382.945777,76.589155,10799.070925
448.375363,382.945777,0.000000,10799.070925
448.375665,76.589155,-153.178311,10799.070925
448.375968,229.767466,-459.534933,11105.427547
448.376272,-153.178311,-153.178311,10799.070925
448.376575,-765.891555,-612.713244,10952.249236
448.376879,-459.534933,-765.891555,11105.427547
448.377182,-459.534933,-612.713244,11105.427547
448.377486,-765.891555,-153.178311,10799.070925
448.377789,-765.891555,-153.178311,11105.427547
448.378093,-306.356622,382.945777,10799.070925
448.378404,0.000000,382.945777,10952.249236
448.378706,0.000000,689.302399,10799.070925
448.379009,229.767466,1148.837332,10722.481770
448.379311,382.945777,689.302399,10799.070925
448.379613,229.767466,689.302399,10799.070925
448.379916,76.589155,382.945777,10569.303459
448.380218,536.124088,76.589155,10952.249236
448.380521,229.767466,-153.178311,10952.249236
448.380824,229.767466,-306.356622,10799.070925
448.381127,0.000000,-612.713244,11105.427547
448.381431,0.000000,-306.356622,10799.070925
448.381734,0.000000,-612.713244,11105.427547
448.382038,-153.178311,-153.178311,10799.070925
448.382341,-612.713244,-306.356622,10799.070925
448.382645,-612.713244,-459.534933,10952.249236
448.382948,-612.713244,-153.178311,10952.249236
448.383251,-612.713244,0.000000,10799.070925
448.383555,-306.356622,536.124088,10569.303459
448.383858,76.589155,536.124088,10952.249236
448.384162,76.589155,842.480710,10722.481770
448.384465,0.000000,995.659021,10569.303459
448.384769,76.589155,689.302399,10799.070925
448.385073,382.945777,229.767466,10799.070925
448.385376,76.589155,76.589155,10952.249236
448.385698,229.767466,76.589155,10952.249236
448.385999,382.945777,-153.178311,10799.070925
448.386300,76.589155,-612.713244,10952.249236
448.386601,76.589155,-459.534933,11105.427547
448.386902,76.589155,-612.713244,11105.427547
448.387202,-306.356622,-306.356622,11105.427547
448.387503,-153.178311,-153.178311,10799.070925
448.387804,-612.713244,-765.891555,11105.427547
448.388112,-919.069866,-459.534933,10952.249236
448.388415,-459.534933,-153.178311,10952.249236
448.388718,0.000000,76.589155,10952.249236
448.389020,-306.356622,1302.015643,10569.303459
448.389323,-153.178311,842.480710,10952.249236
448.389626,76.589155,995.659021,10952.249236
448.389929,229.767466,1148.837332,10416.125148
448.390231,-153.178311,689.302399,10799.070925
448.390547,536.124088,689.302399,10722.481770
448.390849,689.302399,76.589155,10722.481770
448.391150,382.945777,-153.178311,11105.427547
448.391452,-153.178311,-306.356622,10952.249236
448.391754,0.000000,-612.713244,11258.605858
448.392056,-153.178311,-919.069866,10952.249236
448.392357,-153.178311,-459.534933,11105.427547
448.392659,-153.178311,-459.534933,10799.070925
448.392963,-459.534933,-459.534933,11105.427547
448.393266,-919.069866,-612.713244,10952.249236
448.393570,-612.713244,-612.713244,10952.249236
448.393873,-306.356622,-153.178311,10952.249236
448.394177,0.000000,382.945777,10722.481770
448.394480,0.000000,995.659021,10569.303459
448.394784,76.589155,995.659021,10722.481770
448.395088,76.589155,689.302399,10952.249236
448.395399,76.589155,689.302399,10722.481770
448.395701,382.945777,995.659021,10569.303459
448.396003,382.945777,229.767466,10799.070925
448.396305,382.945777,229.767466,10952.249236
448.396608,382.945777,76.589155,11105.427547
448.396910,0.000000,-153.178311,10799.070925
448.397212,0.000000,-919.069866,11258.605858
448.397515,0.000000,-1225.426488,11258.605858
448.397818,0.000000,-612.713244,10952.249236
448.398121,-306.356622,-765.891555,10799.070925
448.398425,-919.069866,-306.356622,10799.070925
448.398728,-612.713244,-1225.426488,11105.427547
448.399032,-612.713244,-459.534933,11105.427547
448.399335,-153.178311,382.945777,10569.303459
448.399639,-153.178311,995.659021,10569.303459
448.399942,0.000000,842.480710,10722.481770
448.400245,0.000000,1302.015643,10722.481770
448.400549,0.000000,536.124088,10799.070925
448.400852,76.589155,842.480710,10569.303459
448.401156,229.767466,689.302399,10799.070925
448.401459,229.767466,76.589155,11105.427547
