#time,accel_x,accel_y,accel_z
1538.506898,0.000000,76.589155,10952.249236
1538.507202,76.589155,76.589155,10952.249236
1538.507505,-306.356622,0.000000,11105.427547
1538.507809,0.000000,229.767466,10952.249236
1538.508112,-153.178311,229.767466,10722.481770
1538.508416,0.000000,76.589155,10952.249236
1538.508719,0.000000,-153.178311,11258.605858
1538.509022,-153.178311,0.000000,10952.249236
1538.509326,76.589155,-153.178311,11105.427547
1538.509629,-306.356622,76.589155,11105.427547
1538.509933,-153.178311,0.000000,10799.070925
1538.510236,0.000000,76.589155,10952.249236
1538.510540,0.000000,229.767466,10569.303459
1538.510844,0.000000,76.589155,10799.070925
1538.511166,0.000000,229.767466,10952.249236
1538.511467,-153.178311,0.000000,10952.249236
1538.511768,-153.178311,0.000000,10799.070925
1538.512068,-153.178311,76.589155,11105.427547
1538.512369,0.000000,229.767466,10799.070925
1538.512670,0.000000,76.589155,10799.070925
1538.512971,0.000000,76.589155,10799.070925
1538.513271,229.767466,0.000000,10722.481770
1538.513584,-306.356622,0.000000,11105.427547
1538.513887,76.589155,0.000000,10722.481770
1538.514189,-153.178311,-306.356622,11105.427547
1538.514491,-153.178311,76.589155,10799.070925
1538.514793,-306.356622,0.000000,10952.249236
1538.515095,0.000000,229.767466,11105.427547
1538.515397,-306.356622,0.000000,10952.249236
1538.515699,76.589155,76.589155,10952.249236
1538.516014,0.000000,0.000000,10952.249236
1538.516316,0.000000,229.767466,10952.249236
1538.516618,-153.178311,-153.178311,11105.427547
1538.516920,0.000000,229.767466,10952.249236
1538.517222,76.589155,76.589155,10799.070925
1538.517523,-306.356622,229.767466,10569.303459
1538.517825,76.589155,382.945777,10799.070925
1538.518127,0.000000,229.767466,10799.070925
1538.518431,229.767466,76.589155,10799.070925
1538.518734,-153.178311,76.589155,10952.249236
1538.519038,0.000000,76.589155,11105.427547
1538.519341,0.000000,76.589155,10799.070925
1538.519644,76.589155,536.124088,10569.303459
1538.519948,-153.178311,76.589155,10799.070925
1538.520251,-153.178311,382.945777,10799.070925
1538.520555,229.767466,-153.178311,10722.481770
1538.520866,0.000000,-306.356622,10952.249236
1538.521168,-153.178311,-153.178311,10952.249236
1538.521471,-153.178311,0.000000,10799.070925
1538.521773,76.589155,76.589155,10799.070925
1538.522075,-153.178311,76.589155,10799.070925
1538.522378,-612.713244,229.767466,10799.070925
1538.522680,76.589155,382.945777,10722.481770
1538.522983,76.589155,76.589155,10799.070925
1538.523286,0.000000,76.589155,10952.249236
1538.523589,-153.178311,0.000000,10799.070925
1538.523893,76.589155,76.589155,10799.070925
1538.524196,-153.178311,-306.356622,10799.070925
1538.524500,-306.356622,229.767466,10952.249236
1538.524803,-153.178311,76.589155,10799.070925
1538.525107,0.000000,229.767466,10799.070925
1538.525410,0.000000,0.000000,10799.070925
1538.525717,0.000000,-153.178311,11105.427547
1538.526020,0.000000,-153.178311,10952.249236
1538.526323,229.767466,0.000000,10799.070925
1538.526626,-153.178311,-153.178311,10722.481770
1538.526929,-153.178311,382.945777,10799.070925
1538.527232,-306.356622,76.589155,10569.303459
1538.527535,0.000000,382.945777,10722.481770
1538.527838,-153.178311,0.000000,10569.303459
1538.528149,-306.356622,0.000000,10952.249236
1538.528452,76.589155,0.000000,10952.249236
1538.528754,-153.178311,0.000000,11105.427547
1538.529056,0.000000,76.589155,10952.249236
1538.529359,-153.178311,76.589155,10799.070925
1538.529661,-306.356622,229.767466,10799.070925
1538.529964,-153.178311,76.589155,10722.481770
1538.530266,0.000000,229.767466,10799.070925
1538.530574,0.000000,-153.178311,10952.249236
1538.530877,76.589155,76.589155,10799.070925
1538.531180,76.589155,0.000000,11105.427547
1538.531483,76.589155,0.000000,11105.427547
1538.531786,-153.178311,0.000000,10952.249236
1538.532088,0.000000,76.589155,11105.427547
1538.532391,0.000000,229.767466,10952.249236
1538.532694,-306.356622,229.767466,10799.070925
1538.533009,0.000000,-153.178311,10952.249236
1538.533311,0.000000,76.589155,11105.427547
1538.533613,-153.178311,-153.178311,10952.249236
1538.533914,-306.356622,0.000000,10952.249236
1538.534216,-153.178311,76.589155,10952.249236
1538.534518,-153.178311,76.589155,10952.249236
1538.534820,0.000000,76.589155,10722.481770
1538.535122,-153.178311,76.589155,11105.427547
1538.535424,0.000000,0.000000,10799.070925
1538.535728,-153.178311,0.000000,10799.070925
1538.536032,0.000000,76.589155,10799.070925
1538.536335,0.000000,76.589155,10722.481770
1538.536639,76.589155,229.767466,10569.303459
1538.536942,-306.356622,229.767466,10569.303459
1538.537246,0.000000,76.589155,10799.070925
1538.537549,76.589155,0.000000,10799.070925
1538.537854,229.767466,229.767466,10799.070925
1538.538158,-153.178311,-153.178311,11105.427547
1538.538461,76.589155,0.000000,10799.070925
1538.538764,-153.178311,76.589155,10799.070925
1538.539067,-306.356622,76.589155,10722.481770
1538.539371,-306.356622,76.589155,10722.481770
1538.539674,0.000000,229.767466,10799.070925
1538.539977,76.589155,0.000000,11105.427547
1538.540280,-153.178311,-306.356622,10952.249236
1538.540584,-306.356622,-153.178311,11105.427547
1538.540887,76.589155,-153.178311,11258.605858
1538.541191,0.000000,-153.178311,10952.249236
1538.541495,-612.713244,76.589155,10799.070925
1538.541798,0.000000,76.589155,10722.481770
1538.542102,76.589155,76.589155,10952.249236
1538.542405,76.589155,76.589155,10952.249236
1538.542708,-306.356622,76.589155,10952.249236
1538.543012,0.000000,76.589155,11105.427547
1538.543315,0.000000,0.000000,10799.070925
1538.543619,-153.178311,0.000000,10799.070925
1538.543922,0.000000,76.589155,10722.481770
1538.544226,76.589155,229.767466,10799.070925
1538.544530,-153.178311,229.767466,10799.070925
1538.544833,229.767466,76.589155,10799.070925
1538.545136,0.000000,0.000000,10952.249236
1538.545440,76.589155,0.000000,10799.070925
1538.545743,-306.356622,-153.178311,10952.249236
1538.546047,-153.178311,76.589155,10952.249236
1538.546350,76.589155,0.000000,10799.070925
1538.546654,-459.534933,0.000000,10722.481770
1538.546957,-612.713244,0.000000,10569.303459
1538.547261,76.589155,76.589155,10722.481770
1538.547564,229.767466,-153.178311,10799.070925
1538.547867,-306.356622,-306.356622,10952.249236
1538.548171,-306.356622,76.589155,10799.070925
1538.548474,76.589155,0.000000,11105.427547
1538.548778,76.589155,76.589155,11105.427547
1538.549081,-153.178311,76.589155,10722.481770
1538.549385,229.767466,382.945777,10952.249236
1538.549689,-153.178311,0.000000,10952.249236
1538.549999,-153.178311,76.589155,10799.070925
1538.550302,76.589155,-153.178311,11105.427547
1538.550604,76.589155,76.589155,11105.427547
1538.550907,76.589155,0.000000,10799.070925
1538.551209,76.589155,76.589155,10799.070925
1538.551512,-153.178311,0.000000,10799.070925
1538.551814,-153.178311,76.589155,11105.427547
1538.552116,76.589155,0.000000,10722.481770
1538.552419,-153.178311,0.000000,10952.249236
1538.552723,-153.178311,-153.178311,10952.249236
1538.553026,0.000000,76.589155,10952.249236
1538.553330,-153.178311,0.000000,10799.070925
1538.553633,-306.356622,229.767466,10952.249236
1538.553937,0.000000,76.589155,10952.249236
1538.554240,0.000000,229.767466,10799.070925
1538.554544,-153.178311,76.589155,10799.070925
1538.554847,76.589155,76.589155,10799.070925
1538.555151,-153.178311,-153.178311,10952.249236
1538.555454,-153.178311,0.000000,10952.249236
1538.555757,76.589155,76.589155,10952.249236
1538.556061,76.589155,76.589155,11105.427547
1538.556364,0.000000,0.000000,10799.070925
1538.556668,0.000000,229.767466,10952.249236
1538.556971,0.000000,76.589155,10799.070925
1538.557287,-153.178311,0.000000,10799.070925
1538.557589,0.000000,0.000000,11105.427547
1538.557890,76.589155,-306.356622,10952.249236
1538.558192,229.767466,229.767466,11105.427547
1538.558494,-306.356622,0.000000,10799.070925
1538.558796,-306.356622,229.767466,10952.249236
1538.559098,-153.178311,0.000000,10799.070925
1538.559400,0.000000,76.589155,10952.249236
1538.559703,-153.178311,0.000000,10952.249236
1538.560006,0.000000,76.589155,10952.249236
1538.560310,0.000000,0.000000,11105.427547
1538.560613,0.000000,0.000000,10799.070925
1538.560917,-306.356622,-153.178311,10952.249236
1538.561221,76.589155,76.589155,10799.070925
1538.561524,76.589155,229.767466,10952.249236
1538.561828,76.589155,76.589155,10799.070925
1538.562131,0.000000,229.767466,10799.070925
1538.562434,76.589155,0.000000,10722.481770
1538.562738,76.589155,76.589155,10799.070925
1538.563041,-153.178311,-153.178311,10799.070925
1538.563345,76.589155,76.589155,10952.249236
1538.563648,-153.178311,76.589155,10799.070925
1538.563952,76.589155,229.767466,10722.481770
1538.564255,-306.356622,229.767466,10799.070925
1538.564558,0.000000,229.767466,10799.070925
1538.564862,-306.356622,-153.178311,10952.249236
1538.565165,0.000000,76.589155,10799.070925
1538.565469,-153.178311,-459.534933,10952.249236
1538.565772,-153.178311,-153.178311,10799.070925
1538.566076,-153.178311,0.000000,10952.249236
1538.566379,-153.178311,0.000000,10952.249236
1538.566683,-153.178311,0.000000,10952.249236
1538.566999,0.000000,0.000000,10952.249236
1538.567301,-153.178311,76.589155,10799.070925
1538.567602,76.589155,76.589155,10952.249236
1538.567904,-153.178311,76.589155,10799.070925
1538.568206,0.000000,76.589155,10799.070925
1538.568508,0.000000,0.000000,10799.070925
1538.568809,0.000000,382.945777,10952.249236
1538.569111,0.000000,76.589155,10799.070925
1538.569414,0.000000,229.767466,10799.070925
1538.569717,76.589155,76.589155,10952.249236
1538.570021,0.000000,76.589155,10799.070925
1538.570325,76.589155,0.000000,10799.070925
1538.570628,-306.356622,0.000000,10952.249236
1538.570932,-306.356622,76.589155,10799.070925
1538.571235,0.000000,76.589155,10799.070925
1538.571539,0.000000,229.767466,10799.070925
1538.571845,-612.713244,0.000000,10799.070925
1538.572148,76.589155,76.589155,10799.070925
1538.572451,76.589155,76.589155,10952.249236
1538.572754,-153.178311,-153.178311,10952.249236
1538.573057,-612.713244,0.000000,10799.070925
1538.573360,76.589155,0.000000,10952.249236
1538.573663,76.589155,0.000000,10952.249236
1538.573966,-306.356622,229.767466,10952.249236
1538.574270,0.000000,229.767466,10799.070925
1538.574573,0.000000,76.589155,10952.249236
1538.574877,229.767466,76.589155,10952.249236
1538.575180,-153.178311,-306.356622,10952.249236
1538.575484,-153.178311,76.589155,10799.070925
1538.575787,76.589155,-153.178311,10952.249236
1538.576091,0.000000,-306.356622,11105.427547
1538.576394,-306.356622,0.000000,10952.249236
1538.576697,-153.178311,76.589155,10799.070925
1538.577001,0.000000,76.589155,10799.070925
1538.577304,0.000000,229.767466,10952.249236
1538.577608,-306.356622,76.589155,10952.249236
1538.577912,76.589155,76.589155,10952.249236
1538.578215,-153.178311,0.000000,10799.070925
1538.578519,76.589155,0.000000,10952.249236
1538.578822,-306.356622,229.767466,10722.481770
1538.579138,-153.178311,0.000000,10799.070925
1538.579440,229.767466,76.589155,10952.249236
1538.579741,-153.178311,0.000000,10799.070925
1538.580043,-153.178311,0.000000,10952.249236
1538.580345,382.945777,229.767466,10722.481770
1538.580647,0.000000,-153.178311,10952.249236
1538.580948,0.000000,0.000000,10952.249236
1538.581250,0.000000,0.000000,10799.070925
1538.581553,0.000000,0.000000,10952.249236
1538.581856,-153.178311,0.000000,10952.249236
1538.582160,0.000000,76.589155,10799.070925
1538.582464,0.000000,0.000000,10799.070925
1538.582767,0.000000,76.589155,10952.249236
1538.583071,0.000000,0.000000,10799.070925
1538.583374,-153.178311,0.000000,11105.427547
1538.583678,76.589155,382.945777,10799.070925
1538.583988,-306.356622,0.000000,10722.481770
1538.584291,76.589155,76.589155,10799.070925
1538.584593,-153.178311,-153.178311,10952.249236
1538.584896,-153.178311,76.589155,10799.070925
1538.585198,-153.178311,-153.178311,11105.427547
1538.585501,229.767466,229.767466,10952.249236
1538.585803,-153.178311,0.000000,10799.070925
1538.586105,0.000000,76.589155,10722.481770
1538.586408,76.589155,76.589155,10799.070925
1538.586712,0.000000,76.589155,10799.070925
1538.587016,-306.356622,76.589155,10952.249236
1538.587319,0.000000,76.589155,10799.070925
1538.587623,76.589155,76.589155,10799.070925
1538.587927,-153.178311,76.589155,10952.249236
1538.588230,-306.356622,76.589155,10722.481770
1538.588534,0.000000,0.000000,10722.481770
1538.588840,-153.178311,76.589155,10952.249236
1538.589143,-153.178311,229.767466,10799.070925
1538.589446,-153.178311,0.000000,10799.070925
1538.589749,76.589155,0.000000,10952.249236
1538.590052,76.589155,76.589155,10952.249236
1538.590355,-153.178311,-153.178311,11105.427547
1538.590658,-153.178311,-153.178311,11105.427547
1538.590961,229.767466,0.000000,10952.249236
1538.591269,-306.356622,0.000000,10799.070925
1538.591572,0.000000,76.589155,10799.070925
1538.591875,-153.178311,0.000000,10952.249236
1538.592177,76.589155,229.767466,10952.249236
1538.592480,-153.178311,0.000000,10799.070925
1538.592783,-153.178311,76.589155,10952.249236
1538.593086,0.000000,76.589155,10952.249236
1538.593389,-153.178311,0.000000,11105.427547
1538.593692,0.000000,76.589155,10799.070925
1538.593995,-153.178311,76.589155,10952.249236
1538.594299,76.589155,76.589155,10799.070925
1538.594602,-306.356622,76.589155,10799.070925
1538.594906,-153.178311,76.589155,10799.070925
1538.595210,0.000000,0.000000,10952.249236
1538.595513,76.589155,229.767466,10722.481770
1538.595817,-153.178311,-153.178311,10952.249236
1538.596120,76.589155,76.589155,10952.249236
1538.596423,0.000000,0.000000,10799.070925
1538.596727,0.000000,229.767466,10952.249236
1538.597030,0.000000,-153.178311,11105.427547
1538.597334,-153.178311,76.589155,10799.070925
1538.597637,229.767466,76.589155,10799.070925
1538.597941,-153.178311,229.767466,10952.249236
1538.598244,76.589155,76.589155,10799.070925
1538.598548,-306.356622,0.000000,10799.070925
1538.598851,76.589155,76.589155,10799.070925
1538.599155,-153.178311,-153.178311,10722.481770
1538.599458,-306.356622,76.589155,10952.249236
1538.599762,-153.178311,0.000000,10799.070925
1538.600065,229.767466,76.589155,10952.249236
1538.600369,-153.178311,76.589155,10952.249236
1538.600672,229.767466,382.945777,10952.249236
1538.600977,-306.356622,0.000000,10952.249236
1538.601280,76.589155,76.589155,10799.070925
1538.601584,0.000000,-153.178311,10952.249236
1538.601887,229.767466,0.000000,10952.249236
1538.602190,-153.178311,-153.178311,10952.249236
1538.602493,0.000000,229.767466,11105.427547
1538.602797,0.000000,76.589155,10799.070925
1538.603100,76.589155,229.767466,10722.481770
1538.603403,0.000000,-153.178311,10799.070925
1538.603707,76.589155,229.767466,10569.303459
1538.604010,-306.356622,-153.178311,10799.070925
1538.604314,-153.178311,229.767466,10799.070925
1538.604617,-153.178311,229.767466,10569.303459
1538.604921,0.000000,0.000000,10952.249236
1538.605224,-306.356622,76.589155,10722.481770
1538.605528,0.000000,76.589155,10722.481770
1538.605838,-153.178311,-153.178311,10952.249236
1538.606141,0.000000,382.945777,10569.303459
1538.606443,-153.178311,-306.356622,10799.070925
1538.606746,-153.178311,0.000000,11105.427547
1538.607048,-153.178311,229.767466,10569.303459
1538.607350,-153.178311,0.000000,10799.070925
1538.607653,76.589155,0.000000,10952.249236
1538.607955,0.000000,0.000000,10799.070925
1538.608267,0.000000,76.589155,10799.070925
1538.608569,-153.178311,-153.178311,10799.070925
1538.608872,76.589155,0.000000,11105.427547
1538.609174,-153.178311,-153.178311,10952.249236
1538.609476,76.589155,229.767466,10722.481770
1538.609779,0.000000,0.000000,10952.249236
1538.610081,-153.178311,-153.178311,10952.249236
1538.610384,-306.356622,76.589155,10799.070925
1538.610703,76.589155,76.589155,10952.249236
1538.611004,-612.713244,-153.178311,11258.605858
1538.611305,0.000000,76.589155,10952.249236
1538.611607,-153.178311,0.000000,10799.070925
1538.611908,-153.178311,76.589155,11105.427547
1538.612209,-153.178311,76.589155,10722.481770
1538.612510,-153.178311,76.589155,10799.070925
1538.612811,0.000000,0.000000,10952.249236
1538.613114,76.589155,76.589155,10952.249236
1538.613418,0.000000,76.589155,10952.249236
1538.613721,0.000000,76.589155,10799.070925
1538.614025,0.000000,76.589155,10799.070925
1538.614329,-306.356622,0.000000,10952.249236
1538.614632,76.589155,76.589155,10952.249236
1538.614936,0.000000,76.589155,10722.481770
1538.615239,-459.534933,76.589155,10799.070925
1538.615543,-153.178311,0.000000,10952.249236
1538.615846,0.000000,229.767466,10799.070925
1538.616149,0.000000,-153.178311,10799.070925
1538.616453,-153.178311,-153.178311,10799.070925
1538.616756,-306.356622,0.000000,10799.070925
1538.617060,-153.178311,-153.178311,10722.481770
1538.617363,-153.178311,0.000000,10952.249236
1538.617666,0.000000,0.000000,11105.427547
1538.617981,-153.178311,0.000000,11258.605858
1538.618283,76.589155,229.767466,10569.303459
1538.618585,-306.356622,0.000000,10799.070925
1538.618887,76.589155,76.589155,10799.070925
1538.619189,0.000000,0.000000,10722.481770
1538.619491,0.000000,-153.178311,11105.427547
1538.619793,76.589155,-153.178311,11105.427547
1538.620095,-153.178311,0.000000,10799.070925
1538.620398,0.000000,76.589155,10952.249236
1538.620702,76.589155,229.767466,10952.249236
1538.621005,0.000000,229.767466,10799.070925
1538.621309,-306.356622,229.767466,10952.249236
1538.621612,76.589155,76.589155,11105.427547
1538.621916,-153.178311,0.000000,10799.070925
1538.622219,-153.178311,76.589155,10799.070925
1538.622522,-306.356622,-306.356622,10952.249236
1538.622826,0.000000,0.000000,10799.070925
1538.623130,0.000000,-153.178311,10952.249236
1538.623433,-153.178311,76.589155,10952.249236
1538.623736,-153.178311,76.589155,10722.481770
1538.624040,0.000000,229.767466,10722.481770
1538.624343,0.000000,76.589155,10722.481770
1538.624646,0.000000,76.589155,10722.481770
1538.624950,0.000000,0.000000,11258.605858
1538.625261,0.000000,0.000000,10952.249236
1538.625563,-153.178311,76.589155,10952.249236
1538.625866,-153.178311,0.000000,10952.249236
1538.626168,229.767466,229.767466,10952.249236
1538.626471,0.000000,0.000000,10799.070925
1538.626773,-153.178311,76.589155,11105.427547
1538.627076,-153.178311,229.767466,11105.427547
1538.627378,229.767466,76.589155,10952.249236
1538.627704,0.000000,76.589155,10722.481770
1538.628004,-153.178311,0.000000,10799.070925
1538.628305,0.000000,0.000000,10952.249236
1538.628605,-153.178311,76.589155,10799.070925
1538.628905,-153.178311,0.000000,10799.070925
1538.629206,-306.356622,-153.178311,10952.249236
1538.629506,0.000000,0.000000,10799.070925
1538.629806,76.589155,0.000000,11105.427547
1538.630109,-306.356622,76.589155,10722.481770
1538.630413,0.000000,229.767466,10722.481770
1538.630716,0.000000,0.000000,10799.070925
1538.631020,0.000000,229.767466,10799.070925
1538.631323,-153.178311,76.589155,10569.303459
1538.631627,-153.178311,229.767466,11105.427547
1538.631930,229.767466,0.000000,10799.070925
1538.632234,0.000000,-306.356622,11105.427547
1538.632537,0.000000,76.589155,10722.481770
1538.632841,76.589155,76.589155,10722.481770
1538.633144,76.589155,76.589155,10952.249236
1538.633448,-153.178311,0.000000,10952.249236
1538.633751,0.000000,76.589155,10952.249236
1538.634055,229.767466,-153.178311,10799.070925
1538.634358,-153.178311,0.000000,10952.249236
1538.634662,0.000000,0.000000,10799.070925
1538.634966,0.000000,0.000000,10799.070925
1538.635269,0.000000,-153.178311,10722.481770
1538.635572,0.000000,0.000000,10952.249236
1538.635876,-306.356622,0.000000,10952.249236
1538.636179,-153.178311,0.000000,10952.249236
1538.636483,-153.178311,-153.178311,11105.427547
1538.636786,-306.356622,0.000000,10952.249236
1538.637089,0.000000,76.589155,10722.481770
1538.637392,0.000000,76.589155,11105.427547
1538.637696,0.000000,76.589155,10722.481770
1538.637999,-153.178311,229.767466,10799.070925
1538.638303,0.000000,229.767466,10722.481770
1538.638606,0.000000,229.767466,10952.249236
1538.638910,229.767466,76.589155,10799.070925
1538.639213,0.000000,76.589155,10952.249236
1538.639517,76.589155,0.000000,10952.249236
1538.639820,-153.178311,0.000000,10799.070925
1538.640124,382.945777,76.589155,11105.427547
1538.640427,-459.534933,-153.178311,10799.070925
1538.640731,-153.178311,0.000000,10952.249236
1538.641034,-306.356622,76.589155,10952.249236
1538.641338,0.000000,76.589155,10952.249236
1538.641641,-153.178311,0.000000,10722.481770
1538.641945,-153.178311,0.000000,10799.070925
1538.642260,0.000000,76.589155,10952.249236
1538.642562,0.000000,229.767466,10799.070925
1538.642864,-306.356622,-153.178311,10722.481770
1538.643165,-153.178311,0.000000,10952.249236
1538.643467,-306.356622,76.589155,10952.249236
1538.643769,0.000000,76.589155,10952.249236
1538.644071,0.000000,76.589155,10952.249236
1538.644373,76.589155,229.767466,10799.070925
1538.644699,76.589155,229.767466,11105.427547
1538.644999,0.000000,76.589155,10952.249236
1538.645299,0.000000,-153.178311,10952.249236
1538.645600,-306.356622,76.589155,10952.249236
1538.645900,76.589155,76.589155,10722.481770
1538.646200,76.589155,-306.356622,11105.427547
1538.646500,0.000000,-153.178311,10952.249236
1538.646801,0.000000,-153.178311,10952.249236
1538.647110,76.589155,-153.178311,10952.249236
1538.647413,-153.178311,76.589155,10799.070925
1538.647715,-153.178311,76.589155,10722.481770
1538.648018,0.000000,76.589155,10799.070925
1538.648321,-153.178311,229.767466,10799.070925
1538.648623,-306.356622,0.000000,10722.481770
1538.648926,0.000000,76.589155,10799.070925
1538.649229,-153.178311,229.767466,10799.070925
1538.649536,-153.178311,-153.178311,10799.070925
1538.649839,0.000000,76.589155,10799.070925
1538.650142,76.589155,76.589155,10952.249236
1538.650445,-153.178311,-153.178311,10799.070925
1538.650748,-153.178311,229.767466,10799.070925
1538.651051,76.589155,76.589155,10952.249236
1538.651354,76.589155,76.589155,10799.070925
1538.651657,-153.178311,229.767466,10952.249236
1538.651961,0.000000,0.000000,10952.249236
1538.652264,229.767466,76.589155,10799.070925
1538.652568,0.000000,76.589155,10799.070925
1538.652871,-153.178311,0.000000,10799.070925
1538.653174,-153.178311,0.000000,10952.249236
1538.653478,0.000000,0.000000,10952.249236
1538.653781,-153.178311,0.000000,10952.249236
1538.654085,0.000000,0.000000,10722.481770
1538.654387,-153.178311,0.000000,10952.249236
1538.654691,0.000000,76.589155,10952.249236
1538.654994,0.000000,-153.178311,10722.481770
1538.655298,-153.178311,76.589155,10799.070925
1538.655601,-459.534933,76.589155,10722.481770
1538.655904,0.000000,76.589155,10799.070925
1538.656208,0.000000,-153.178311,10952.249236
1538.656511,0.000000,76.589155,10952.249236
1538.656815,-153.178311,0.000000,10952.249236
1538.657119,-153.178311,76.589155,10952.249236
1538.657422,0.000000,76.589155,10799.070925
1538.657726,-153.178311,229.767466,10952.249236
1538.658030,0.000000,76.589155,10799.070925
1538.658333,0.000000,76.589155,10799.070925
1538.658637,229.767466,76.589155,10952.249236
1538.658940,0.000000,0.000000,10799.070925
1538.659257,-153.178311,76.589155,11105.427547
1538.659559,0.000000,-306.356622,11105.427547
1538.659860,0.000000,76.589155,10952.249236
1538.660162,-153.178311,-153.178311,10799.070925
1538.660464,-153.178311,76.589155,10952.249236
1538.660765,76.589155,76.589155,10799.070925
1538.661067,0.000000,-153.178311,11105.427547
1538.661368,76.589155,0.000000,11105.427547
1538.661694,229.767466,0.000000,10799.070925
1538.661994,-153.178311,0.000000,11105.427547
1538.662295,-153.178311,0.000000,10952.249236
1538.662595,76.589155,76.589155,10952.249236
1538.662895,-153.178311,76.589155,11105.427547
1538.663196,-153.178311,382.945777,10569.303459
1538.663496,-153.178311,0.000000,10799.070925
1538.663796,229.767466,0.000000,10799.070925
1538.664105,-153.178311,0.000000,10952.249236
1538.664408,-153.178311,76.589155,10799.070925
1538.664711,0.000000,76.589155,10799.070925
1538.665013,76.589155,229.767466,10799.070925
1538.665316,-153.178311,229.767466,10952.249236
1538.665619,-153.178311,76.589155,10722.481770
1538.665921,0.000000,0.000000,10799.070925
1538.666224,76.589155,0.000000,10952.249236
1538.666527,-306.356622,-153.178311,11105.427547
1538.666830,0.000000,76.589155,10799.070925
1538.667134,-153.178311,-153.178311,10952.249236
1538.667437,0.000000,76.589155,10952.249236
1538.667741,-153.178311,76.589155,10799.070925
1538.668044,0.000000,229.767466,10952.249236
1538.668348,-153.178311,0.000000,10799.070925
1538.668651,0.000000,0.000000,11105.427547
1538.668956,76.589155,76.589155,10952.249236
1538.669259,-153.178311,76.589155,10569.303459
1538.669563,0.000000,0.000000,10952.249236
1538.669866,0.000000,76.589155,10952.249236
1538.670170,-153.178311,229.767466,10722.481770
1538.670473,-153.178311,76.589155,11258.605858
1538.670776,0.000000,0.000000,10952.249236
1538.671080,76.589155,76.589155,11105.427547
1538.671382,0.000000,0.000000,10952.249236
1538.671686,-153.178311,0.000000,10799.070925
1538.671990,0.000000,229.767466,10952.249236
1538.672293,0.000000,76.589155,10799.070925
1538.672597,-153.178311,229.767466,10799.070925
1538.672900,-153.178311,76.589155,10722.481770
1538.673204,-153.178311,382.945777,10722.481770
1538.673508,76.589155,0.000000,10952.249236
1538.673812,0.000000,76.589155,10799.070925
1538.674115,-306.356622,-153.178311,10722.481770
1538.674419,76.589155,76.589155,10952.249236
1538.674722,0.000000,76.589155,10799.070925
1538.675025,-153.178311,229.767466,10799.070925
1538.675329,-306.356622,0.000000,10952.249236
1538.675632,76.589155,382.945777,10722.481770
1538.675935,0.000000,76.589155,10799.070925
1538.676241,-153.178311,76.589155,10799.070925
1538.676544,-153.178311,-306.356622,10799.070925
1538.676847,382.945777,76.589155,10952.249236
1538.677150,0.000000,76.589155,10799.070925
1538.677454,-153.178311,0.000000,11105.427547
1538.677757,-306.356622,-153.178311,10952.249236
1538.678060,382.945777,76.589155,10799.070925
1538.678363,229.767466,76.589155,10952.249236
1538.678682,-306.356622,76.589155,10799.070925
1538.678983,-153.178311,0.000000,11105.427547
1538.679284,229.767466,76.589155,10952.249236
1538.679586,0.000000,76.589155,10952.249236
1538.679887,-306.356622,76.589155,10952.249236
1538.680188,-306.356622,229.767466,10952.249236
1538.680490,76.589155,-153.178311,11105.427547
1538.680791,0.000000,-153.178311,10952.249236
1538.681094,-153.178311,0.000000,10722.481770
1538.681398,0.000000,0.000000,10799.070925
1538.681701,76.589155,0.000000,11105.427547
1538.682005,-153.178311,229.767466,10569.303459
1538.682308,76.589155,229.767466,10722.481770
1538.682612,76.589155,382.945777,10799.070925
1538.682915,76.589155,229.767466,10569.303459
1538.683219,0.000000,0.000000,10799.070925
1538.683522,-306.356622,-153.178311,10722.481770
1538.683825,0.000000,-153.178311,10722.481770
1538.684129,0.000000,0.000000,10799.070925
1538.684432,-153.178311,76.589155,11105.427547
1538.684736,-459.534933,229.767466,10722.481770
1538.685040,-153.178311,229.767466,10952.249236
1538.685343,0.000000,76.589155,10799.070925
1538.685647,76.589155,76.589155,10952.249236
1538.685957,-153.178311,-153.178311,10952.249236
1538.686260,0.000000,76.589155,10952.249236
1538.686562,-153.178311,-459.534933,10799.070925
1538.686865,76.589155,-153.178311,10952.249236
1538.687167,-306.356622,-153.178311,10952.249236
1538.687470,-306.356622,0.000000,10952.249236
1538.687772,-153.178311,76.589155,10799.070925
1538.688075,0.000000,76.589155,10952.249236
1538.688377,229.767466,229.767466,11105.427547
1538.688681,-153.178311,229.767466,10952.249236
1538.688985,76.589155,0.000000,11105.427547
1538.689288,-153.178311,0.000000,10952.249236
1538.689592,76.589155,229.767466,10722.481770
1538.689895,0.000000,0.000000,10952.249236
1538.690199,0.000000,76.589155,10952.249236
1538.690502,0.000000,229.767466,10952.249236
1538.690808,76.589155,0.000000,11105.427547
1538.691111,-153.178311,-153.178311,10952.249236
1538.691414,-153.178311,0.000000,10952.249236
1538.691717,76.589155,-153.178311,11105.427547
1538.692021,76.589155,229.767466,10799.070925
1538.692324,-765.891555,-153.178311,10799.070925
1538.692627,0.000000,229.767466,10799.070925
1538.692930,0.000000,229.767466,10569.303459
1538.693236,-153.178311,0.000000,10952.249236
1538.693539,-153.178311,0.000000,11105.427547
1538.693842,229.767466,229.767466,10952.249236
1538.694146,0.000000,0.000000,11105.427547
1538.694449,-153.178311,76.589155,10799.070925
1538.694752,-153.178311,0.000000,10799.070925
1538.695055,76.589155,76.589155,10952.249236
1538.695358,-153.178311,229.767466,10952.249236
1538.695677,-153.178311,76.589155,10799.070925
1538.695978,-153.178311,-153.178311,11105.427547
1538.696279,76.589155,0.000000,11258.605858
1538.696581,-306.356622,-306.356622,11258.605858
1538.696882,0.000000,76.589155,10952.249236
1538.697183,-306.356622,0.000000,10952.249236
1538.697485,-153.178311,382.945777,10722.481770
1538.697786,0.000000,76.589155,10722.481770
1538.698095,0.000000,76.589155,10799.070925
1538.698398,0.000000,-153.178311,10952.249236
1538.698701,76.589155,0.000000,10952.249236
1538.699003,0.000000,76.589155,11105.427547
1538.699306,-459.534933,76.589155,10799.070925
1538.699609,0.000000,382.945777,10952.249236
1538.699911,0.000000,229.767466,10722.481770
1538.700214,-153.178311,382.945777,10799.070925
1538.700517,0.000000,-153.178311,10569.303459
1538.700821,76.589155,0.000000,10799.070925
1538.701124,76.589155,-153.178311,11105.427547
1538.701428,76.589155,0.000000,10952.249236
1538.701731,-306.356622,-153.178311,11105.427547
1538.702035,0.000000,76.589155,10722.481770
1538.702338,-153.178311,229.767466,10722.481770
1538.702642,-153.178311,536.124088,10799.070925
1538.702945,0.000000,229.767466,10799.070925
1538.703248,229.767466,76.589155,10952.249236
1538.703552,-153.178311,-153.178311,10799.070925
1538.703856,-153.178311,0.000000,10952.249236
1538.704159,76.589155,-153.178311,10952.249236
1538.704463,0.000000,0.000000,10952.249236
1538.704766,-612.713244,-153.178311,10952.249236
1538.705070,-153.178311,229.767466,10722.481770
1538.705373,76.589155,0.000000,10799.070925
1538.705676,0.000000,76.589155,11105.427547
1538.705980,0.000000,229.767466,11258.605858
1538.706284,0.000000,0.000000,10799.070925
1538.706587,-153.178311,76.589155,10799.070925
1538.706891,-459.534933,0.000000,11105.427547
1538.707194,0.000000,229.767466,10952.249236
1538.707498,0.000000,229.767466,10722.481770
1538.707803,-153.178311,382.945777,10952.249236
1538.708106,76.589155,76.589155,10799.070925
1538.708409,229.767466,76.589155,10569.303459
1538.708713,-153.178311,-153.178311,10952.249236
1538.709016,0.000000,0.000000,10799.070925
1538.709319,76.589155,-153.178311,10799.070925
1538.709622,-153.178311,229.767466,11105.427547
1538.709925,-306.356622,0.000000,10799.070925
1538.710229,0.000000,229.767466,10799.070925
1538.710532,-306.356622,76.589155,10799.070925
1538.710836,0.000000,76.589155,10799.070925
1538.711139,-153.178311,0.000000,10952.249236
1538.711443,76.589155,-306.356622,10799.070925
1538.711746,-153.178311,0.000000,10799.070925
1538.712050,-153.178311,0.000000,10952.249236
1538.712354,0.000000,76.589155,10952.249236
1538.712672,0.000000,0.000000,10722.481770
1538.712974,-153.178311,229.767466,10799.070925
1538.713275,0.000000,76.589155,10799.070925
1538.713576,76.589155,76.589155,10799.070925
1538.713878,-153.178311,76.589155,10952.249236
1538.714179,76.589155,229.767466,10722.481770
1538.714480,-459.534933,-153.178311,10952.249236
1538.714781,0.000000,229.767466,10952.249236
1538.715091,-153.178311,76.589155,10722.481770
1538.715394,229.767466,76.589155,10799.070925
1538.715696,0.000000,76.589155,10799.070925
1538.715999,0.000000,76.589155,10952.249236
1538.716302,0.000000,0.000000,10799.070925
1538.716604,-153.178311,0.000000,10952.249236
1538.716907,-306.356622,-459.534933,10952.249236
1538.717209,-306.356622,76.589155,10722.481770
1538.717512,-153.178311,229.767466,10722.481770
1538.717816,-306.356622,0.000000,10799.070925
1538.718119,0.000000,76.589155,10799.070925
1538.718423,76.589155,76.589155,11105.427547
1538.718726,0.000000,76.589155,10952.249236
1538.719029,76.589155,229.767466,10799.070925
1538.719333,0.000000,-153.178311,10799.070925
1538.719636,-306.356622,0.000000,10952.249236
1538.719940,0.000000,0.000000,10799.070925
1538.720243,-306.356622,0.000000,10799.070925
1538.720547,0.000000,76.589155,10799.070925
1538.720851,0.000000,76.589155,10952.249236
1538.721154,229.767466,76.589155,10799.070925
1538.721458,-153.178311,0.000000,10799.070925
1538.721761,0.000000,76.589155,10952.249236
1538.722065,0.000000,-153.178311,10952.249236
1538.722368,-153.178311,229.767466,10799.070925
1538.722671,-153.178311,0.000000,10799.070925
1538.722975,76.589155,229.767466,10952.249236
1538.723278,76.589155,0.000000,10952.249236
1538.723582,76.589155,229.767466,10952.249236
1538.723886,-153.178311,76.589155,10952.249236
1538.724189,0.000000,229.767466,10952.249236
1538.724493,-153.178311,76.589155,10799.070925
1538.724799,-153.178311,76.589155,10799.070925
1538.725102,-459.534933,-153.178311,10799.070925
1538.725405,0.000000,76.589155,10799.070925
1538.725708,0.000000,76.589155,10799.070925
1538.726011,-306.356622,76.589155,10799.070925
1538.726314,76.589155,76.589155,10722.481770
1538.726617,0.000000,382.945777,10952.249236
1538.726920,0.000000,76.589155,10799.070925
1538.727243,-306.356622,229.767466,10722.481770
1538.727544,-153.178311,-153.178311,10799.070925
1538.727844,76.589155,-153.178311,10952.249236
1538.728145,-153.178311,0.000000,10952.249236
1538.728446,-459.534933,-153.178311,10952.249236
1538.728747,229.767466,0.000000,10799.070925
1538.729047,76.589155,-306.356622,10952.249236
1538.729348,-153.178311,76.589155,10952.249236
1538.729656,-306.356622,76.589155,10722.481770
1538.729959,229.767466,76.589155,10799.070925
1538.730262,229.767466,76.589155,10722.481770
1538.730564,-153.178311,0.000000,10799.070925
1538.730867,-153.178311,0.000000,10952.249236
1538.731170,382.945777,76.589155,10722.481770
1538.731473,0.000000,76.589155,10952.249236
1538.731776,-459.534933,0.000000,10952.249236
1538.732085,229.767466,76.589155,10569.303459
1538.732388,76.589155,229.767466,10952.249236
1538.732691,0.000000,76.589155,10799.070925
1538.732993,-153.178311,229.767466,10799.070925
1538.733296,229.767466,76.589155,10952.249236
1538.733599,-153.178311,229.767466,10722.481770
1538.733901,-306.356622,76.589155,10569.303459
1538.734204,0.000000,76.589155,10799.070925
1538.734507,229.767466,229.767466,10799.070925
1538.734810,-153.178311,-153.178311,10952.249236
1538.735114,-153.178311,-153.178311,10799.070925
1538.735417,-306.356622,0.000000,10799.070925
1538.735721,0.000000,-153.178311,11105.427547
1538.736025,-153.178311,76.589155,10952.249236
1538.736328,76.589155,76.589155,11105.427547
1538.736632,0.000000,-153.178311,11105.427547
1538.736943,-153.178311,0.000000,10799.070925
1538.737245,-153.178311,-306.356622,10952.249236
1538.737548,0.000000,0.000000,10952.249236
1538.737850,229.767466,229.767466,10952.249236
1538.738152,-153.178311,0.000000,11105.427547
1538.738455,76.589155,229.767466,10799.070925
1538.738757,-153.178311,0.000000,10799.070925
1538.739060,229.767466,76.589155,10952.249236
1538.739363,-153.178311,0.000000,10799.070925
1538.739667,-153.178311,0.000000,10952.249236
1538.739970,-153.178311,-153.178311,10952.249236
1538.740274,0.000000,382.945777,10799.070925
1538.740577,-153.178311,-306.356622,10952.249236
1538.740881,-306.356622,76.589155,10952.249236
1538.741184,76.589155,-153.178311,10722.481770
1538.741488,76.589155,229.767466,10799.070925
1538.741794,-459.534933,0.000000,10569.303459
1538.742097,76.589155,0.000000,10952.249236
1538.742400,-153.178311,0.000000,10799.070925
1538.742703,0.000000,0.000000,10722.481770
1538.743006,-612.713244,-153.178311,10799.070925
1538.743309,-153.178311,76.589155,10799.070925
1538.743612,229.767466,0.000000,10952.249236
1538.743915,0.000000,76.589155,10952.249236
1538.744238,-306.356622,0.000000,10952.249236
1538.744539,0.000000,0.000000,11258.605858
1538.744839,0.000000,76.589155,10799.070925
1538.745140,-306.356622,229.767466,10799.070925
1538.745441,76.589155,229.767466,10952.249236
1538.745742,-153.178311,76.589155,10799.070925
1538.746042,229.767466,76.589155,10952.249236
1538.746343,0.000000,-306.356622,10952.249236
1538.746656,-153.178311,0.000000,10952.249236
1538.746958,76.589155,-306.356622,11105.427547
1538.747260,0.000000,229.767466,10952.249236
1538.747563,-153.178311,0.000000,11105.427547
1538.747865,-306.356622,382.945777,10722.481770
1538.748167,76.589155,382.945777,10799.070925
1538.748469,0.000000,0.000000,10952.249236
1538.748771,-459.534933,0.000000,10952.249236
1538.749080,76.589155,229.767466,10722.481770
1538.749383,-153.178311,-153.178311,10952.249236
1538.749685,-153.178311,-306.356622,10952.249236
1538.749988,-306.356622,0.000000,10799.070925
1538.750291,76.589155,229.767466,10952.249236
1538.750593,0.000000,76.589155,10722.481770
1538.750896,-153.178311,229.767466,10799.070925
1538.751199,-306.356622,0.000000,10952.249236
1538.751502,0.000000,76.589155,10952.249236
1538.751805,0.000000,0.000000,10799.070925
1538.752109,-153.178311,76.589155,10952.249236
1538.752412,76.589155,0.000000,10952.249236
1538.752716,76.589155,76.589155,10799.070925
1538.753020,229.767466,76.589155,10952.249236
1538.753323,0.000000,76.589155,11105.427547
1538.753627,0.000000,76.589155,10722.481770
1538.753938,-153.178311,0.000000,10722.481770
1538.754240,0.000000,0.000000,10952.249236
1538.754543,76.589155,76.589155,10799.070925
1538.754845,0.000000,-153.178311,10799.070925
1538.755147,-612.713244,-153.178311,10799.070925
1538.755450,0.000000,76.589155,10952.249236
1538.755752,-153.178311,-306.356622,11258.605858
1538.756055,-459.534933,0.000000,10799.070925
1538.756358,-612.713244,-153.178311,10952.249236
1538.756662,76.589155,229.767466,11105.427547
1538.756965,0.000000,229.767466,11105.427547
1538.757269,-306.356622,76.589155,10799.070925
1538.757572,-306.356622,76.589155,10799.070925
1538.757876,229.767466,229.767466,10799.070925
1538.758179,-153.178311,76.589155,10952.249236
1538.758482,0.000000,382.945777,10722.481770
1538.758789,-153.178311,-153.178311,10952.249236
1538.759092,76.589155,0.000000,11105.427547
1538.759395,0.000000,76.589155,10722.481770
1538.759698,-153.178311,-153.178311,10952.249236
1538.760001,-153.178311,0.000000,10952.249236
1538.760304,229.767466,229.767466,10799.070925
1538.760607,-153.178311,0.000000,10952.249236
1538.760910,-153.178311,229.767466,10722.481770
1538.761233,-153.178311,-153.178311,10952.249236
1538.761533,76.589155,-153.178311,10799.070925
1538.761834,-153.178311,0.000000,10799.070925
1538.762135,-153.178311,76.589155,10952.249236
1538.762436,-153.178311,0.000000,10799.070925
1538.762737,-306.356622,0.000000,10952.249236
1538.763037,0.000000,76.589155,10952.249236
1538.763338,0.000000,76.589155,10799.070925
1538.763652,0.000000,382.945777,10722.481770
1538.763954,0.000000,0.000000,10799.070925
1538.764256,-153.178311,229.767466,10952.249236
1538.764558,0.000000,0.000000,10952.249236
1538.764860,-153.178311,76.589155,10799.070925
1538.765162,0.000000,0.000000,10952.249236
1538.765464,76.589155,0.000000,11105.427547
1538.765766,0.000000,0.000000,10722.481770
1538.766075,0.000000,76.589155,10799.070925
1538.766378,76.589155,76.589155,11105.427547
1538.766681,0.000000,229.767466,11105.427547
1538.766983,0.000000,-153.178311,10799.070925
1538.767286,0.000000,0.000000,10952.249236
1538.767588,-153.178311,229.767466,10799.070925
1538.767891,-153.178311,229.767466,10799.070925
1538.768194,-306.356622,0.000000,10799.070925
1538.768497,-306.356622,76.589155,10722.481770
1538.768800,-306.356622,76.589155,10952.249236
1538.769104,0.000000,76.589155,10799.070925
1538.769407,-306.356622,0.000000,10799.070925
1538.769711,-459.534933,76.589155,10799.070925
1538.770014,0.000000,229.767466,10799.070925
1538.770318,-306.356622,76.589155,11105.427547
1538.770621,0.000000,0.000000,10952.249236
1538.770933,-153.178311,0.000000,10952.249236
1538.771235,76.589155,-153.178311,10799.070925
1538.771537,0.000000,76.589155,10799.070925
1538.771840,-153.178311,-153.178311,10952.249236
1538.772142,0.000000,0.000000,11105.427547
1538.772445,229.767466,229.767466,10799.070925
1538.772747,-306.356622,0.000000,10799.070925
1538.773049,76.589155,229.767466,10799.070925
1538.773352,0.000000,0.000000,11258.605858
1538.773656,382.945777,-153.178311,10952.249236
1538.773959,-306.356622,0.000000,10952.249236
1538.774263,-306.356622,229.767466,10799.070925
1538.774566,-153.178311,-153.178311,11105.427547
1538.774870,0.000000,382.945777,10952.249236
1538.775174,-153.178311,76.589155,10722.481770
1538.775477,-306.356622,76.589155,10952.249236
1538.775780,-153.178311,76.589155,10569.303459
1538.776084,-153.178311,0.000000,10722.481770
1538.776387,-306.356622,76.589155,10799.070925
1538.776691,-153.178311,76.589155,10722.481770
1538.776994,76.589155,0.000000,10952.249236
1538.777298,0.000000,0.000000,10799.070925
1538.777601,0.000000,382.945777,10799.070925
1538.777905,-306.356622,0.000000,10722.481770
1538.778208,76.589155,76.589155,10799.070925
1538.778511,-306.356622,76.589155,10952.249236
1538.778815,0.000000,229.767466,10799.070925
1538.779118,0.000000,76.589155,10952.249236
1538.779422,0.000000,76.589155,10799.070925
1538.779726,-153.178311,0.000000,10799.070925
1538.780029,-153.178311,76.589155,10952.249236
1538.780333,0.000000,-153.178311,11105.427547
1538.780636,0.000000,-153.178311,10799.070925
1538.780939,0.000000,-153.178311,10952.249236
1538.781243,76.589155,-153.178311,10952.249236
1538.781546,-153.178311,76.589155,10799.070925
1538.781850,0.000000,382.945777,10952.249236
1538.782153,76.589155,0.000000,10799.070925
1538.782457,-306.356622,76.589155,10799.070925
1538.782760,-153.178311,-153.178311,10952.249236
1538.783070,-153.178311,0.000000,10952.249236
1538.783372,0.000000,229.767466,11105.427547
1538.783675,76.589155,0.000000,10952.249236
1538.783978,76.589155,382.945777,10799.070925
1538.784280,-306.356622,229.767466,10799.070925
1538.784583,229.767466,229.767466,10799.070925
1538.784886,0.000000,229.767466,10952.249236
1538.785188,-306.356622,76.589155,10799.070925
1538.785491,-153.178311,-153.178311,11258.605858
1538.785795,76.589155,76.589155,10952.249236
1538.786098,0.000000,-153.178311,10952.249236
1538.786402,-153.178311,76.589155,10952.249236
1538.786705,-153.178311,-306.356622,10952.249236
1538.787009,76.589155,382.945777,10952.249236
1538.787313,-153.178311,76.589155,10952.249236
1538.787616,-153.178311,76.589155,10952.249236
1538.787927,-153.178311,-153.178311,11105.427547
1538.788229,229.767466,0.000000,10799.070925
1538.788532,-153.178311,76.589155,10799.070925
1538.788834,0.000000,76.589155,10722.481770
1538.789137,-153.178311,0.000000,10952.249236
1538.789439,76.589155,76.589155,10952.249236
1538.789742,-153.178311,76.589155,11105.427547
1538.790044,0.000000,0.000000,10722.481770
1538.790347,0.000000,-153.178311,11105.427547
1538.790650,229.767466,229.767466,11105.427547
1538.790954,-153.178311,-153.178311,10952.249236
1538.791258,-153.178311,0.000000,10799.070925
1538.791561,229.767466,229.767466,10799.070925
1538.791865,0.000000,-153.178311,10952.249236
1538.792168,-306.356622,382.945777,10952.249236
1538.792472,0.000000,0.000000,11105.427547
1538.792775,0.000000,0.000000,11105.427547
1538.793078,-153.178311,76.589155,10722.481770
1538.793382,-459.534933,0.000000,10952.249236
1538.793686,76.589155,0.000000,10799.070925
1538.793989,0.000000,229.767466,10952.249236
1538.794293,0.000000,0.000000,11105.427547
1538.794596,-153.178311,229.767466,10722.481770
1538.794900,0.000000,0.000000,10952.249236
1538.795203,-153.178311,0.000000,10952.249236
1538.795506,0.000000,0.000000,10799.070925
1538.795810,-153.178311,76.589155,10799.070925
1538.796113,-306.356622,76.589155,10952.249236
1538.796417,76.589155,229.767466,10722.481770
1538.796720,-153.178311,0.000000,11105.427547
1538.797024,76.589155,382.945777,10722.481770
1538.797328,-306.356622,0.000000,10952.249236
1538.797636,76.589155,-153.178311,11105.427547
1538.797939,-153.178311,0.000000,10799.070925
1538.798241,0.000000,0.000000,10952.249236
1538.798544,-306.356622,76.589155,10952.249236
1538.798847,76.589155,536.124088,10799.070925
1538.799150,-153.178311,0.000000,11105.427547
1538.799453,0.000000,382.945777,10722.481770
1538.799755,0.000000,76.589155,10799.070925
1538.800071,76.589155,-153.178311,10952.249236
1538.800373,0.000000,76.589155,10799.070925
1538.800674,-306.356622,-153.178311,11105.427547
1538.800976,-153.178311,0.000000,10952.249236
1538.801278,0.000000,382.945777,10952.249236
1538.801580,0.000000,0.000000,10722.481770
1538.801881,-153.178311,229.767466,10799.070925
1538.802183,229.767466,382.945777,10722.481770
1538.802487,229.767466,76.589155,10952.249236
1538.802790,0.000000,76.589155,10722.481770
1538.803093,-306.356622,0.000000,10952.249236
1538.803397,0.000000,0.000000,10799.070925
1538.803700,-153.178311,76.589155,10722.481770
1538.804004,0.000000,76.589155,11105.427547
1538.804307,-153.178311,0.000000,10952.249236
1538.804610,0.000000,229.767466,10799.070925
1538.804921,0.000000,-153.178311,11105.427547
1538.805224,0.000000,76.589155,10799.070925
1538.805526,-153.178311,0.000000,10952.249236
1538.805829,76.589155,229.767466,10952.249236
1538.806131,0.000000,0.000000,10952.249236
1538.806433,-306.356622,76.589155,10952.249236
1538.806736,0.000000,0.000000,10952.249236
1538.807038,76.589155,76.589155,11105.427547
1538.807354,-153.178311,0.000000,11105.427547
1538.807655,0.000000,0.000000,11105.427547
1538.807957,-153.178311,0.000000,10799.070925
1538.808259,0.000000,76.589155,10799.070925
1538.808561,76.589155,229.767466,10799.070925
1538.808863,-306.356622,76.589155,10952.249236
1538.809165,76.589155,229.767466,10799.070925
1538.809467,76.589155,-153.178311,10722.481770
1538.809770,0.000000,-153.178311,10952.249236
1538.810073,-153.178311,0.000000,10799.070925
1538.810377,0.000000,0.000000,10952.249236
1538.810680,-153.178311,76.589155,10799.070925
1538.810984,-306.356622,0.000000,10799.070925
1538.811287,-306.356622,0.000000,10952.249236
1538.811591,0.000000,382.945777,10722.481770
1538.811895,76.589155,0.000000,10722.481770
1538.812211,0.000000,-153.178311,10952.249236
1538.812512,0.000000,76.589155,10799.070925
1538.812814,76.589155,76.589155,10952.249236
1538.813116,76.589155,0.000000,10952.249236
1538.813417,-153.178311,76.589155,10722.481770
1538.813719,-153.178311,-306.356622,10952.249236
1538.814021,229.767466,76.589155,10722.481770
1538.814322,0.000000,-153.178311,11105.427547
1538.814631,-153.178311,-306.356622,11105.427547
1538.814933,76.589155,229.767466,10952.249236
1538.815236,0.000000,-306.356622,11105.427547
1538.815539,76.589155,382.945777,10952.249236
1538.815842,-306.356622,229.767466,10799.070925
1538.816144,0.000000,229.767466,11105.427547
1538.816447,-153.178311,76.589155,10952.249236
1538.816750,-153.178311,0.000000,10799.070925
1538.817065,-306.356622,-153.178311,10952.249236
1538.817367,0.000000,76.589155,10722.481770
1538.817669,0.000000,-153.178311,10952.249236
1538.817971,0.000000,229.767466,10952.249236
1538.818273,-306.356622,76.589155,10799.070925
1538.818574,-153.178311,76.589155,11105.427547
1538.818876,76.589155,229.767466,10722.481770
1538.819178,76.589155,76.589155,10952.249236
1538.819481,-153.178311,0.000000,11105.427547
1538.819785,-153.178311,229.767466,10722.481770
1538.820088,229.767466,-153.178311,10799.070925
1538.820392,0.000000,0.000000,10952.249236
1538.820695,0.000000,0.000000,10722.481770
1538.820999,0.000000,0.000000,11105.427547
1538.821302,76.589155,76.589155,10799.070925
1538.821606,0.000000,-153.178311,11105.427547
1538.821909,-153.178311,76.589155,10952.249236
1538.822212,76.589155,0.000000,10722.481770
1538.822516,229.767466,76.589155,10952.249236
1538.822819,-459.534933,0.000000,10569.303459
1538.823123,-153.178311,76.589155,10799.070925
1538.823426,76.589155,229.767466,10952.249236
1538.823730,76.589155,229.767466,10799.070925
1538.824033,-459.534933,-306.356622,10952.249236
1538.824348,0.000000,76.589155,10799.070925
1538.824650,76.589155,-153.178311,10952.249236
1538.824952,-153.178311,229.767466,10799.070925
1538.825254,-459.534933,76.589155,10799.070925
1538.825556,76.589155,382.945777,10799.070925
1538.825858,76.589155,0.000000,10799.070925
1538.826160,-153.178311,229.767466,10799.070925
1538.826462,-153.178311,-306.356622,10799.070925
1538.826764,0.000000,76.589155,10952.249236
1538.827068,-153.178311,-153.178311,10952.249236
1538.827372,0.000000,229.767466,10799.070925
1538.827675,0.000000,76.589155,10799.070925
1538.827979,0.000000,76.589155,10799.070925
1538.828282,0.000000,229.767466,10799.070925
1538.828586,-306.356622,0.000000,10952.249236
1538.828889,-153.178311,76.589155,10569.303459
1538.829192,0.000000,0.000000,10952.249236
1538.829496,-153.178311,76.589155,10799.070925
1538.829799,-306.356622,76.589155,10722.481770
1538.830103,-153.178311,76.589155,10799.070925
1538.830406,-153.178311,-153.178311,10799.070925
1538.830710,76.589155,0.000000,10799.070925
1538.831014,0.000000,-153.178311,10952.249236
1538.831317,76.589155,-153.178311,10952.249236
1538.831620,0.000000,0.000000,10952.249236
1538.831924,0.000000,0.000000,11105.427547
1538.832227,-153.178311,76.589155,10799.070925
1538.832531,-153.178311,229.767466,10722.481770
1538.832834,-306.356622,0.000000,10799.070925
1538.833138,76.589155,76.589155,10952.249236
1538.833441,0.000000,0.000000,10799.070925
1538.833745,0.000000,76.589155,10799.070925
1538.834065,-153.178311,-306.356622,10952.249236
1538.834366,76.589155,76.589155,10799.070925
1538.834667,-153.178311,76.589155,10799.070925
1538.834968,-153.178311,382.945777,10722.481770
1538.835269,-153.178311,229.767466,10799.070925
1538.835571,0.000000,76.589155,10722.481770
1538.835872,76.589155,76.589155,10952.249236
1538.836173,229.767466,76.589155,10799.070925
1538.836476,0.000000,0.000000,10952.249236
1538.836779,-153.178311,0.000000,10952.249236
1538.837083,0.000000,76.589155,10952.249236
1538.837386,-306.356622,0.000000,10952.249236
1538.837690,-153.178311,76.589155,10799.070925
1538.837994,0.000000,0.000000,10799.070925
1538.838297,76.589155,0.000000,10799.070925
1538.838601,-153.178311,0.000000,10952.249236
1538.838907,76.589155,0.000000,10952.249236
1538.839210,0.000000,76.589155,10952.249236
1538.839513,-153.178311,0.000000,10799.070925
1538.839816,-153.178311,-153.178311,11105.427547
1538.840119,229.767466,76.589155,11105.427547
1538.840422,-153.178311,76.589155,10799.070925
1538.840725,-153.178311,0.000000,10952.249236
1538.841028,-153.178311,-153.178311,10952.249236
1538.841335,229.767466,76.589155,10799.070925
1538.841638,0.000000,0.000000,10952.249236
1538.841941,0.000000,76.589155,10952.249236
1538.842244,-153.178311,76.589155,10722.481770
1538.842547,76.589155,229.767466,11105.427547
1538.842850,0.000000,76.589155,10799.070925
1538.843153,0.000000,0.000000,10799.070925
1538.843456,0.000000,-306.356622,10799.070925
1538.843759,229.767466,76.589155,10799.070925
1538.844063,0.000000,0.000000,11258.605858
1538.844366,-153.178311,-153.178311,10799.070925
1538.844670,-153.178311,76.589155,10722.481770
1538.844973,76.589155,-153.178311,11105.427547
1538.845277,-153.178311,229.767466,10722.481770
1538.845580,-306.356622,76.589155,11105.427547
1538.845884,0.000000,76.589155,10952.249236
1538.846187,76.589155,0.000000,10952.249236
1538.846490,-153.178311,0.000000,10799.070925
1538.846794,-306.356622,-153.178311,11105.427547
1538.847098,76.589155,229.767466,10952.249236
1538.847401,0.000000,229.767466,11105.427547
1538.847705,0.000000,229.767466,10952.249236
1538.848008,-153.178311,0.000000,10952.249236
1538.848312,76.589155,76.589155,10952.249236
1538.848615,0.000000,0.000000,10952.249236
1538.848919,382.945777,0.000000,10799.070925
1538.849222,76.589155,-306.356622,10952.249236
1538.849526,0.000000,76.589155,10799.070925
1538.849829,0.000000,-153.178311,10722.481770
1538.850133,-153.178311,382.945777,10799.070925
1538.850436,-153.178311,0.000000,10799.070925
1538.850740,76.589155,0.000000,10799.070925
1538.851043,0.000000,0.000000,10952.249236
1538.851346,229.767466,0.000000,11105.427547
1538.851650,-153.178311,-153.178311,11105.427547
1538.851953,-306.356622,229.767466,10799.070925
1538.852257,-153.178311,76.589155,10799.070925
1538.852560,0.000000,76.589155,10722.481770
1538.852864,-153.178311,76.589155,10799.070925
1538.853167,-153.178311,76.589155,10799.070925
1538.853470,229.767466,229.767466,10569.303459
1538.853774,76.589155,0.000000,10952.249236
1538.854077,-153.178311,229.767466,10952.249236
1538.854381,76.589155,0.000000,10799.070925
1538.854684,76.589155,76.589155,10952.249236
1538.854988,0.000000,76.589155,10952.249236
1538.855291,-153.178311,76.589155,10799.070925
1538.855595,0.000000,0.000000,10952.249236
1538.855903,0.000000,0.000000,11105.427547
1538.856206,76.589155,-153.178311,10952.249236
1538.856508,76.589155,0.000000,11105.427547
1538.856811,-306.356622,0.000000,10952.249236
1538.857114,-153.178311,0.000000,10952.249236
1538.857417,0.000000,0.000000,10799.070925
1538.857720,0.000000,229.767466,10799.070925
1538.858022,-306.356622,0.000000,10952.249236
1538.858328,-153.178311,0.000000,11105.427547
1538.858632,76.589155,0.000000,10799.070925
1538.858935,-153.178311,0.000000,11105.427547
1538.859238,-153.178311,76.589155,11105.427547
1538.859541,0.000000,76.589155,10799.070925
1538.859844,-153.178311,76.589155,10799.070925
1538.860148,-153.178311,229.767466,10799.070925
1538.860451,229.767466,76.589155,10722.481770
1538.860754,229.767466,-153.178311,10952.249236
1538.861057,-153.178311,-153.178311,10799.070925
1538.861361,0.000000,-153.178311,11105.427547
1538.861664,0.000000,0.000000,10799.070925
1538.861968,76.589155,0.000000,10799.070925
1538.862272,0.000000,76.589155,10952.249236
1538.862575,-153.178311,382.945777,10952.249236
1538.862879,76.589155,76.589155,10799.070925
1538.863182,0.000000,0.000000,10799.070925
1538.863485,-153.178311,76.589155,10952.249236
1538.863789,0.000000,-153.178311,10722.481770
1538.864092,-153.178311,0.000000,10799.070925
1538.864396,-153.178311,0.000000,10722.481770
1538.864699,-612.713244,0.000000,10952.249236
1538.865003,0.000000,382.945777,10799.070925
1538.865307,0.000000,76.589155,10799.070925
1538.865610,-153.178311,76.589155,10952.249236
1538.865913,0.000000,0.000000,10799.070925
1538.866217,229.767466,-153.178311,11105.427547
1538.866520,-153.178311,-153.178311,11105.427547
1538.866824,-153.178311,76.589155,10799.070925
1538.867127,-153.178311,0.000000,10952.249236
1538.867431,76.589155,229.767466,10722.481770
1538.867734,0.000000,76.589155,10799.070925
1538.868040,0.000000,0.000000,10799.070925
1538.868343,76.589155,-153.178311,11105.427547
1538.868646,-153.178311,0.000000,10799.070925
1538.868949,0.000000,-153.178311,10722.481770
1538.869253,0.000000,-153.178311,10722.481770
1538.869556,0.000000,76.589155,10799.070925
1538.869859,-153.178311,229.767466,10799.070925
1538.870162,229.767466,536.124088,10799.070925
1538.870465,-153.178311,76.589155,10952.249236
1538.870769,0.000000,-153.178311,10952.249236
1538.871072,0.000000,-153.178311,10799.070925
1538.871376,0.000000,0.000000,10952.249236
1538.871679,0.000000,76.589155,10799.070925
1538.871983,-153.178311,229.767466,10722.481770
1538.872286,0.000000,0.000000,10799.070925
1538.872590,0.000000,229.767466,10722.481770
1538.872894,76.589155,-153.178311,10952.249236
1538.873197,0.000000,0.000000,10799.070925
1538.873501,0.000000,-153.178311,10952.249236
1538.873804,76.589155,0.000000,11105.427547
1538.874107,0.000000,-153.178311,10952.249236
1538.874411,-153.178311,229.767466,10722.481770
1538.874714,-459.534933,229.767466,10952.249236
1538.875017,382.945777,382.945777,10952.249236
1538.875329,-153.178311,229.767466,10799.070925
1538.875631,-153.178311,76.589155,10952.249236
1538.875934,-153.178311,0.000000,11105.427547
1538.876236,76.589155,76.589155,11105.427547
1538.876539,-765.891555,-306.356622,10952.249236
1538.876841,-306.356622,0.000000,10952.249236
1538.877143,229.767466,76.589155,10799.070925
1538.877446,76.589155,229.767466,10952.249236
1538.877761,-153.178311,229.767466,10799.070925
1538.878062,0.000000,229.767466,10799.070925
1538.878364,229.767466,229.767466,10722.481770
1538.878666,0.000000,76.589155,10722.481770
1538.878968,-612.713244,0.000000,10799.070925
1538.879270,0.000000,229.767466,10799.070925
1538.879572,536.124088,229.767466,10722.481770
1538.879874,-153.178311,0.000000,10799.070925
1538.880176,-153.178311,229.767466,10722.481770
1538.880480,-306.356622,229.767466,10799.070925
1538.880784,76.589155,76.589155,10952.249236
1538.881087,-306.356622,-153.178311,11105.427547
1538.881391,0.000000,76.589155,10952.249236
1538.881694,-153.178311,-153.178311,10799.070925
1538.881998,-153.178311,0.000000,10799.070925
1538.882301,-306.356622,-153.178311,10952.249236
1538.882604,76.589155,0.000000,10799.070925
1538.882908,0.000000,76.589155,10952.249236
1538.883211,-153.178311,0.000000,10952.249236
1538.883515,0.000000,-153.178311,10952.249236
1538.883819,76.589155,0.000000,11105.427547
1538.884122,76.589155,0.000000,10952.249236
1538.884426,-153.178311,0.000000,10722.481770
1538.884729,-153.178311,76.589155,10799.070925
1538.885032,-153.178311,-306.356622,11105.427547
1538.885336,0.000000,76.589155,10952.249236
1538.885639,0.000000,229.767466,10952.249236
1538.885943,-153.178311,0.000000,10952.249236
1538.886246,0.000000,76.589155,10952.249236
1538.886550,0.000000,0.000000,11105.427547
1538.886854,-153.178311,0.000000,10799.070925
1538.887157,0.000000,229.767466,10952.249236
1538.887460,-306.356622,0.000000,10799.070925
1538.887763,-153.178311,229.767466,10952.249236
1538.888067,-306.356622,76.589155,10952.249236
1538.888370,0.000000,229.767466,10799.070925
1538.888674,-153.178311,76.589155,10569.303459
1538.888977,-153.178311,-153.178311,10799.070925
1538.889281,0.000000,-153.178311,10799.070925
1538.889584,-153.178311,0.000000,11105.427547
1538.889888,-306.356622,-153.178311,10722.481770
1538.890192,0.000000,229.767466,10799.070925
1538.890495,0.000000,76.589155,10799.070925
1538.890799,229.767466,229.767466,10952.249236
1538.891102,-153.178311,76.589155,10799.070925
1538.891405,0.000000,76.589155,10722.481770
1538.891709,0.000000,-153.178311,10952.249236
1538.892012,229.767466,229.767466,10799.070925
1538.892324,0.000000,76.589155,10952.249236
1538.892627,76.589155,76.589155,10799.070925
1538.892929,76.589155,0.000000,10799.070925
1538.893231,76.589155,76.589155,10799.070925
1538.893533,0.000000,0.000000,10799.070925
1538.893836,-306.356622,-153.178311,10799.070925
1538.894138,0.000000,0.000000,10799.070925
1538.894440,76.589155,-153.178311,10799.070925
1538.894755,-306.356622,0.000000,10799.070925
1538.895057,-306.356622,382.945777,10722.481770
1538.895359,76.589155,229.767466,10799.070925
1538.895661,76.589155,0.000000,10799.070925
1538.895963,-153.178311,229.767466,10799.070925
1538.896265,-153.178311,-459.534933,10799.070925
1538.896566,76.589155,-306.356622,10722.481770
1538.896868,0.000000,-153.178311,10952.249236
1538.897177,-306.356622,76.589155,10722.481770
1538.897480,-153.178311,229.767466,10799.070925
1538.897783,76.589155,76.589155,10799.070925
1538.898085,229.767466,229.767466,10952.249236
1538.898388,0.000000,0.000000,10952.249236
1538.898691,0.000000,0.000000,10799.070925
1538.898993,0.000000,0.000000,10952.249236
1538.899296,76.589155,-153.178311,11105.427547
1538.899599,-306.356622,-153.178311,11105.427547
1538.899903,76.589155,0.000000,10952.249236
1538.900206,0.000000,0.000000,10799.070925
1538.900510,0.000000,0.000000,10799.070925
1538.900813,0.000000,0.000000,11105.427547
1538.901117,-153.178311,76.589155,10799.070925
1538.901420,-306.356622,-153.178311,10799.070925
1538.901724,76.589155,0.000000,10952.249236
1538.902028,-153.178311,0.000000,10952.249236
1538.902332,76.589155,382.945777,10722.481770
1538.902635,-153.178311,0.000000,10952.249236
1538.902938,0.000000,0.000000,11105.427547
1538.903242,-306.356622,76.589155,10952.249236
1538.903545,-153.178311,76.589155,10952.249236
1538.903849,76.589155,76.589155,11105.427547
1538.904152,0.000000,76.589155,10952.249236
1538.904455,0.000000,76.589155,10799.070925
1538.904759,-153.178311,536.124088,10952.249236
1538.905062,-153.178311,0.000000,10799.070925
1538.905366,76.589155,76.589155,10952.249236
1538.905669,0.000000,0.000000,10799.070925
1538.905972,0.000000,76.589155,10952.249236
1538.906276,-153.178311,76.589155,11105.427547
1538.906579,76.589155,0.000000,10799.070925
1538.906887,0.000000,-153.178311,10952.249236
1538.907190,-153.178311,229.767466,10722.481770
1538.907492,0.000000,76.589155,10799.070925
1538.907795,-306.356622,-153.178311,11105.427547
1538.908098,0.000000,229.767466,10799.070925
1538.908401,-459.534933,0.000000,10799.070925
1538.908704,76.589155,229.767466,10799.070925
1538.909007,-153.178311,76.589155,10799.070925
1538.909325,229.767466,0.000000,10952.249236
1538.909627,-153.178311,76.589155,10799.070925
1538.909928,0.000000,76.589155,10952.249236
1538.910230,-153.178311,-153.178311,10952.249236
1538.910531,0.000000,76.589155,10722.481770
1538.910832,-153.178311,-153.178311,10799.070925
1538.911134,0.000000,229.767466,10952.249236
1538.911435,-153.178311,76.589155,10722.481770
1538.911761,229.767466,76.589155,10952.249236
1538.912061,0.000000,76.589155,10799.070925
1538.912362,-153.178311,76.589155,10952.249236
1538.912662,-153.178311,0.000000,10952.249236
1538.912962,0.000000,76.589155,11105.427547
1538.913263,76.589155,-153.178311,10952.249236
1538.913563,-306.356622,76.589155,10799.070925
1538.913863,76.589155,76.589155,10722.481770
1538.914167,-153.178311,-306.356622,11105.427547
1538.914470,-153.178311,536.124088,10799.070925
1538.914773,-306.356622,0.000000,10952.249236
1538.915077,0.000000,0.000000,10952.249236
1538.915380,-153.178311,76.589155,10799.070925
1538.915684,-153.178311,-153.178311,10952.249236
1538.915987,-306.356622,0.000000,10952.249236
1538.916291,229.767466,382.945777,10569.303459
1538.916594,76.589155,-306.356622,11105.427547
1538.916897,-153.178311,0.000000,10799.070925
1538.917201,-153.178311,0.000000,10952.249236
1538.917504,0.000000,229.767466,10952.249236
1538.917808,0.000000,76.589155,10569.303459
1538.918112,0.000000,76.589155,11105.427547
1538.918415,76.589155,229.767466,10952.249236
1538.918719,-153.178311,229.767466,10799.070925
1538.919023,-153.178311,0.000000,10952.249236
1538.919326,0.000000,229.767466,10799.070925
1538.919629,229.767466,-153.178311,10799.070925
1538.919933,-306.356622,0.000000,10952.249236
1538.920236,0.000000,0.000000,10722.481770
1538.920540,76.589155,-153.178311,10799.070925
1538.920843,0.000000,76.589155,10952.249236
1538.921147,0.000000,382.945777,10569.303459
1538.921449,-153.178311,229.767466,10799.070925
1538.921753,-153.178311,229.767466,10799.070925
1538.922057,0.000000,0.000000,10952.249236
1538.922360,-153.178311,-153.178311,10722.481770
1538.922664,0.000000,76.589155,10722.481770
1538.922967,76.589155,-153.178311,10952.249236
1538.923271,-306.356622,-153.178311,10952.249236
1538.923574,0.000000,229.767466,10799.070925
1538.923877,0.000000,382.945777,10799.070925
1538.924181,0.000000,76.589155,10799.070925
1538.924485,229.767466,229.767466,10799.070925
1538.924788,0.000000,-153.178311,10952.249236
1538.925092,0.000000,229.767466,10952.249236
1538.925395,-153.178311,-306.356622,10952.249236
1538.925699,0.000000,-153.178311,11105.427547
1538.926002,-153.178311,0.000000,10952.249236
1538.926319,-153.178311,76.589155,10799.070925
1538.926621,-153.178311,0.000000,10952.249236
1538.926922,76.589155,76.589155,10722.481770
1538.927224,-153.178311,-153.178311,10952.249236
1538.927526,0.000000,229.767466,10799.070925
1538.927827,0.000000,229.767466,10799.070925
1538.928129,-306.356622,0.000000,11105.427547
1538.928430,0.000000,76.589155,10722.481770
1538.928749,-153.178311,229.767466,10799.070925
1538.929050,0.000000,76.589155,10952.249236
1538.929352,0.000000,76.589155,10722.481770
1538.929653,-153.178311,0.000000,11105.427547
1538.929954,76.589155,-153.178311,10952.249236
1538.930255,0.000000,76.589155,10722.481770
1538.930557,-612.713244,0.000000,10952.249236
1538.930858,0.000000,76.589155,10722.481770
1538.931167,0.000000,76.589155,10799.070925
1538.931470,0.000000,0.000000,10799.070925
1538.931772,76.589155,76.589155,10799.070925
1538.932075,76.589155,-153.178311,11105.427547
1538.932378,0.000000,0.000000,10952.249236
1538.932680,-153.178311,0.000000,10952.249236
1538.932983,0.000000,76.589155,10952.249236
1538.933286,-153.178311,0.000000,10799.070925
1538.933589,-153.178311,0.000000,10799.070925
1538.933892,76.589155,229.767466,11105.427547
1538.934196,0.000000,76.589155,10799.070925
1538.934499,0.000000,0.000000,10799.070925
1538.934803,0.000000,-306.356622,10952.249236
1538.935107,0.000000,0.000000,10952.249236
1538.935410,-306.356622,0.000000,11105.427547
1538.935714,-306.356622,76.589155,10952.249236
1538.936024,-153.178311,0.000000,10799.070925
1538.936327,0.000000,229.767466,10799.070925
1538.936629,-153.178311,76.589155,10952.249236
1538.936932,0.000000,229.767466,10799.070925
1538.937234,0.000000,76.589155,11105.427547
1538.937537,76.589155,76.589155,10952.249236
1538.937839,-153.178311,0.000000,10799.070925
1538.938141,-306.356622,229.767466,10722.481770
1538.938444,0.000000,0.000000,10722.481770
1538.938748,0.000000,0.000000,10799.070925
1538.939052,-153.178311,0.000000,10952.249236
1538.939355,-153.178311,-153.178311,10952.249236
1538.939659,76.589155,76.589155,10722.481770
1538.939962,0.000000,-153.178311,10799.070925
1538.940266,-306.356622,229.767466,10952.249236
1538.940569,0.000000,0.000000,10952.249236
1538.940875,0.000000,76.589155,10952.249236
1538.941178,-153.178311,76.589155,10799.070925
1538.941481,0.000000,0.000000,10952.249236
1538.941784,-153.178311,76.589155,10722.481770
1538.942087,0.000000,76.589155,10952.249236
1538.942391,-153.178311,-153.178311,10952.249236
1538.942694,0.000000,229.767466,10799.070925
1538.942997,0.000000,76.589155,10952.249236
1538.943303,0.000000,229.767466,10799.070925
1538.943606,0.000000,0.000000,10952.249236
1538.943909,76.589155,0.000000,10799.070925
1538.944212,-153.178311,-306.356622,11105.427547
1538.944516,76.589155,229.767466,10799.070925
1538.944819,-306.356622,-306.356622,10952.249236
1538.945122,0.000000,229.767466,10799.070925
1538.945425,-153.178311,0.000000,10799.070925
1538.945744,0.000000,76.589155,10952.249236
1538.946045,-153.178311,382.945777,10799.070925
1538.946346,-153.178311,0.000000,10952.249236
1538.946648,0.000000,-153.178311,10952.249236
1538.946949,76.589155,76.589155,10799.070925
1538.947250,0.000000,-306.356622,11105.427547
1538.947552,-612.713244,76.589155,10799.070925
1538.947853,0.000000,76.589155,10722.481770
1538.948162,0.000000,76.589155,10799.070925
1538.948465,0.000000,382.945777,10569.303459
1538.948767,-153.178311,76.589155,10799.070925
1538.949070,76.589155,229.767466,10952.249236
1538.949373,76.589155,76.589155,10722.481770
1538.949675,76.589155,0.000000,10952.249236
1538.949978,-153.178311,76.589155,10952.249236
1538.950281,76.589155,76.589155,10952.249236
1538.950584,-153.178311,0.000000,10799.070925
1538.950887,-153.178311,229.767466,10799.070925
1538.951191,-153.178311,76.589155,10799.070925
1538.951494,0.000000,76.589155,10952.249236
1538.951798,0.000000,0.000000,10799.070925
1538.952102,0.000000,76.589155,10952.249236
1538.952405,-306.356622,-153.178311,10799.070925
1538.952709,0.000000,0.000000,10799.070925
1538.953011,0.000000,0.000000,10952.249236
1538.953315,-306.356622,76.589155,10799.070925
1538.953619,-153.178311,0.000000,10952.249236
1538.953922,76.589155,76.589155,10952.249236
1538.954226,76.589155,76.589155,11105.427547
1538.954529,-306.356622,229.767466,10799.070925
1538.954833,76.589155,76.589155,10799.070925
1538.955137,-153.178311,0.000000,10799.070925
1538.955439,76.589155,76.589155,10799.070925
1538.955743,-153.178311,0.000000,10952.249236
1538.956046,76.589155,76.589155,10799.070925
1538.956350,76.589155,-153.178311,10952.249236
1538.956654,76.589155,76.589155,10799.070925
1538.956957,0.000000,-153.178311,10799.070925
1538.957261,76.589155,76.589155,10799.070925
1538.957564,0.000000,76.589155,10799.070925
1538.957870,0.000000,0.000000,10952.249236
1538.958173,-153.178311,0.000000,10952.249236
1538.958477,-306.356622,0.000000,10799.070925
1538.958780,76.589155,0.000000,10799.070925
1538.959083,-153.178311,-153.178311,10952.249236
1538.959386,-306.356622,0.000000,10952.249236
1538.959689,76.589155,76.589155,10799.070925
1538.959992,76.589155,229.767466,10952.249236
1538.960303,-306.356622,76.589155,10722.481770
1538.960606,76.589155,229.767466,10799.070925
1538.960908,229.767466,-153.178311,10952.249236
1538.961210,-153.178311,0.000000,10799.070925
1538.961513,-153.178311,-153.178311,10952.249236
1538.961815,0.000000,0.000000,11258.605858
1538.962117,229.767466,0.000000,10799.070925
1538.962420,0.000000,382.945777,10952.249236
1538.962739,0.000000,76.589155,10952.249236
1538.963040,76.589155,382.945777,10799.070925
1538.963341,0.000000,0.000000,10952.249236
1538.963642,76.589155,-153.178311,10952.249236
1538.963944,0.000000,0.000000,10799.070925
1538.964245,-153.178311,76.589155,10952.249236
1538.964546,0.000000,76.589155,10799.070925
1538.964848,-153.178311,382.945777,10799.070925
1538.965157,0.000000,382.945777,10799.070925
1538.965460,-306.356622,76.589155,10799.070925
1538.965763,0.000000,-153.178311,10952.249236
1538.966065,0.000000,-153.178311,10952.249236
1538.966368,-306.356622,76.589155,10952.249236
1538.966670,-153.178311,0.000000,10799.070925
1538.966973,0.000000,0.000000,10799.070925
1538.967275,0.000000,229.767466,10799.070925
1538.967578,-153.178311,229.767466,10799.070925
1538.967882,229.767466,76.589155,10952.249236
1538.968185,229.767466,0.000000,10952.249236
1538.968489,-153.178311,-306.356622,11105.427547
1538.968792,0.000000,0.000000,11105.427547
1538.969096,76.589155,76.589155,11105.427547
1538.969399,0.000000,76.589155,10799.070925
1538.969703,-306.356622,76.589155,10799.070925
1538.970006,76.589155,229.767466,10799.070925
1538.970310,0.000000,76.589155,10722.481770
1538.970613,229.767466,-153.178311,10799.070925
1538.970917,-153.178311,-306.356622,10952.249236
1538.971221,-153.178311,76.589155,11105.427547
1538.971524,-306.356622,-459.534933,10799.070925
1538.971828,0.000000,0.000000,10952.249236
1538.972131,-153.178311,76.589155,10799.070925
1538.972434,-153.178311,382.945777,10799.070925
1538.972738,-153.178311,229.767466,10722.481770
1538.973041,0.000000,76.589155,10799.070925
1538.973345,0.000000,76.589155,10799.070925
1538.973648,-153.178311,229.767466,10799.070925
1538.973952,0.000000,229.767466,10799.070925
1538.974256,76.589155,0.000000,10799.070925
1538.974559,0.000000,229.767466,10799.070925
1538.974865,-153.178311,-153.178311,10799.070925
1538.975168,0.000000,76.589155,10952.249236
1538.975472,0.000000,76.589155,10799.070925
1538.975775,0.000000,76.589155,10799.070925
1538.976078,-153.178311,0.000000,10952.249236
1538.976381,0.000000,0.000000,10799.070925
1538.976684,0.000000,-306.356622,10799.070925
1538.976987,0.000000,76.589155,10799.070925
1538.977309,-612.713244,76.589155,10799.070925
1538.977610,76.589155,76.589155,11105.427547
1538.977911,0.000000,-306.356622,11105.427547
1538.978212,-153.178311,76.589155,10799.070925
1538.978513,-153.178311,0.000000,10722.481770
1538.978813,0.000000,0.000000,10799.070925
1538.979114,0.000000,76.589155,10569.303459
1538.979415,-153.178311,229.767466,10952.249236
1538.979733,-153.178311,0.000000,10799.070925
1538.980035,0.000000,-153.178311,10952.249236
1538.980336,0.000000,0.000000,10799.070925
1538.980637,0.000000,0.000000,10952.249236
1538.980939,0.000000,76.589155,10952.249236
1538.981240,229.767466,76.589155,10952.249236
1538.981541,76.589155,76.589155,10799.070925
1538.981843,-153.178311,229.767466,10799.070925
1538.982153,0.000000,76.589155,10799.070925
1538.982455,0.000000,-153.178311,10799.070925
1538.982758,0.000000,229.767466,10952.249236
1538.983060,-153.178311,0.000000,10799.070925
1538.983363,229.767466,76.589155,10952.249236
1538.983666,0.000000,0.000000,10952.249236
1538.983968,-459.534933,76.589155,10952.249236
1538.984271,-306.356622,229.767466,10799.070925
1538.984574,76.589155,0.000000,10952.249236
1538.984878,-306.356622,-306.356622,10799.070925
1538.985181,-306.356622,229.767466,10799.070925
1538.985485,76.589155,-306.356622,10952.249236
1538.985788,0.000000,76.589155,10952.249236
1538.986092,-153.178311,76.589155,10799.070925
1538.986395,-153.178311,0.000000,11105.427547
1538.986699,76.589155,76.589155,10799.070925
1538.987003,76.589155,0.000000,10952.249236
1538.987307,-612.713244,76.589155,10952.249236
1538.987610,76.589155,229.767466,10952.249236
1538.987913,76.589155,-306.356622,10952.249236
1538.988217,229.767466,76.589155,11105.427547
1538.988520,-306.356622,76.589155,10722.481770
1538.988823,-153.178311,229.767466,10952.249236
1538.989127,76.589155,229.767466,10799.070925
1538.989430,0.000000,229.767466,10799.070925
1538.989733,-153.178311,0.000000,10799.070925
1538.990037,76.589155,0.000000,10799.070925
1538.990340,76.589155,-153.178311,10799.070925
1538.990644,-153.178311,0.000000,10952.249236
1538.990947,-153.178311,0.000000,10722.481770
1538.991251,76.589155,0.000000,10952.249236
1538.991554,0.000000,229.767466,10569.303459
1538.991861,-306.356622,0.000000,10952.249236
1538.992164,76.589155,76.589155,10799.070925
1538.992467,76.589155,0.000000,10799.070925
1538.992770,0.000000,0.000000,10952.249236
1538.993073,0.000000,-153.178311,10799.070925
1538.993376,0.000000,0.000000,11105.427547
1538.993679,0.000000,229.767466,10952.249236
1538.993982,76.589155,229.767466,10799.070925
1538.994305,-153.178311,76.589155,10722.481770
1538.994605,76.589155,382.945777,10952.249236
1538.994906,0.000000,0.000000,11258.605858
1538.995207,76.589155,-153.178311,11105.427547
1538.995508,0.000000,0.000000,10722.481770
1538.995809,-153.178311,-153.178311,10952.249236
1538.996109,-153.178311,76.589155,10952.249236
1538.996410,-306.356622,76.589155,10952.249236
1538.996713,-153.178311,76.589155,10952.249236
1538.997017,0.000000,76.589155,10952.249236
1538.997320,0.000000,-153.178311,11105.427547
1538.997624,0.000000,76.589155,10799.070925
1538.997927,0.000000,0.000000,10952.249236
1538.998231,-153.178311,76.589155,10799.070925
1538.998534,0.000000,229.767466,10799.070925
1538.998838,0.000000,229.767466,10722.481770
1538.999153,0.000000,0.000000,10799.070925
1538.999455,-306.356622,76.589155,10722.481770
1538.999757,229.767466,-153.178311,10952.249236
1539.000058,0.000000,0.000000,10952.249236
1539.000360,0.000000,229.767466,10799.070925
1539.000662,-153.178311,0.000000,10952.249236
1539.000964,76.589155,229.767466,10952.249236
1539.001266,0.000000,76.589155,10952.249236
1539.001569,-153.178311,76.589155,10952.249236
1539.001872,-306.356622,0.000000,10952.249236
1539.002176,229.767466,-153.178311,11105.427547
1539.002479,76.589155,-153.178311,10952.249236
1539.002783,-612.713244,76.589155,10952.249236
1539.003086,-153.178311,76.589155,10952.249236
1539.003390,-306.356622,0.000000,10799.070925
1539.003694,-306.356622,0.000000,10952.249236
1539.004005,-306.356622,76.589155,11105.427547
1539.004307,0.000000,229.767466,10799.070925
1539.004609,76.589155,0.000000,11105.427547
1539.004912,-306.356622,76.589155,11105.427547
1539.005214,-153.178311,76.589155,10952.249236
1539.005517,76.589155,229.767466,10799.070925
1539.005819,0.000000,76.589155,10952.249236
1539.006121,0.000000,382.945777,10722.481770
1539.006425,-153.178311,76.589155,10799.070925
1539.006728,0.000000,76.589155,11105.427547
1539.007032,0.000000,0.000000,10799.070925
1539.007335,0.000000,0.000000,10952.249236
1539.007639,76.589155,-153.178311,10952.249236
1539.007942,0.000000,76.589155,10799.070925
1539.008246,-306.356622,76.589155,10952.249236
1539.008549,-153.178311,229.767466,10569.303459
1539.008855,-306.356622,-153.178311,10799.070925
1539.009158,-153.178311,229.767466,10799.070925
1539.009462,0.000000,-153.178311,10799.070925
1539.009765,0.000000,-459.534933,10799.070925
1539.010068,-153.178311,-765.891555,10799.070925
1539.010371,-306.356622,-306.356622,11105.427547
1539.010674,-306.356622,-153.178311,10952.249236
1539.010977,-306.356622,0.000000,10569.303459
1539.011280,229.767466,-765.891555,11105.427547
1539.011583,-919.069866,-1684.961421,11411.784169
1539.011887,229.767466,229.767466,10722.481770
1539.012191,536.124088,-1225.426488,10952.249236
1539.012494,76.589155,-459.534933,11258.605858
1539.012798,76.589155,-1225.426488,10722.481770
1539.013101,-153.178311,-1378.604799,11105.427547
1539.013405,-153.178311,-1378.604799,10722.481770
1539.013718,842.480710,-1531.783110,10952.249236
1539.014020,-1072.248177,-1838.139732,10952.249236
1539.014322,76.589155,-1225.426488,10722.481770
1539.014624,382.945777,-2221.085509,10722.481770
1539.014926,-153.178311,-2833.798753,11105.427547
1539.015228,-919.069866,-2374.263820,10799.070925
1539.015531,-153.178311,-2527.442131,10799.070925
1539.015833,76.589155,-2374.263820,10722.481770
1539.016142,-765.891555,-2833.798753,10799.070925
1539.016445,-612.713244,-2221.085509,10722.481770
1539.016747,-612.713244,-2067.907198,10569.303459
1539.017050,-306.356622,-2374.263820,10952.249236
1539.017353,229.767466,-2527.442131,10722.481770
1539.017655,-612.713244,-3293.333686,10799.070925
1539.017958,-1608.372265,-3446.511997,10952.249236
1539.018261,229.767466,-2833.798753,10722.481770
1539.018564,229.767466,-3752.868619,11411.784169
1539.018867,-153.178311,-2833.798753,10722.481770
1539.019171,229.767466,-3293.333686,10799.070925
1539.019474,1148.837332,-3140.155375,11718.140791
1539.019778,1455.193954,-2221.085509,10952.249236
1539.020081,689.302399,-2680.620442,10952.249236
1539.020385,689.302399,-2221.085509,11411.784169
1539.020689,1302.015643,-1072.248177,10722.481770
1539.020999,-919.069866,-2067.907198,11105.427547
1539.021302,-306.356622,-1225.426488,10569.303459
1539.021604,842.480710,-1914.728887,10569.303459
1539.021907,-1608.372265,-2527.442131,10952.249236
1539.022209,-919.069866,-2067.907198,10416.125148
1539.022512,-1531.783110,-3446.511997,10799.070925
1539.022814,-2221.085509,-3982.636086,11258.605858
1539.023116,-765.891555,-3599.690308,10952.249236
1539.023419,-765.891555,-4135.814397,11564.962480
1539.023723,-153.178311,-2374.263820,11258.605858
1539.024026,689.302399,-1225.426488,10952.249236
1539.024330,1991.318043,-153.178311,11258.605858
1539.024633,1455.193954,1761.550576,10722.481770
1539.024937,1991.318043,2144.496354,10416.125148
1539.025241,2297.674665,2144.496354,10569.303459
1539.025544,842.480710,1455.193954,10109.768526
1539.025847,229.767466,536.124088,10569.303459
1539.026151,-765.891555,-306.356622,10416.125148
1539.026454,-1531.783110,-1914.728887,10799.070925
1539.026758,-2527.442131,-3829.457775,11411.784169
1539.027061,-4135.814397,-3982.636086,10799.070925
1539.027365,-3216.744531,-4748.527641,11564.962480
1539.027668,-459.534933,-4135.814397,11871.319102
1539.027972,229.767466,-2527.442131,11564.962480
1539.028294,1684.961421,-1225.426488,11718.140791
1539.028595,2297.674665,1148.837332,11105.427547
1539.028896,3599.690308,3063.566220,10722.481770
1539.029197,4059.225241,3752.868619,10722.481770
1539.029497,2450.852976,4518.760174,9650.233593
1539.029798,536.124088,3216.744531,9650.233593
1539.030099,-306.356622,536.124088,9956.590215
1539.030400,-1531.783110,-1072.248177,9956.590215
1539.030712,-4825.116796,-4135.814397,10722.481770
1539.031014,-5437.830040,-4901.705952,11105.427547
1539.031317,-3676.279464,-4595.349330,11564.962480
1539.031619,-1225.426488,-4901.705952,12330.854035
1539.031921,-1531.783110,-3446.511997,12024.497413
1539.032223,-1914.728887,-1914.728887,11258.605858
1539.032525,1148.837332,229.767466,11258.605858
1539.032827,2297.674665,1838.139732,10569.303459
1539.033143,2450.852976,2910.387909,10262.946837
1539.033444,4365.581863,3752.868619,9803.411904
1539.033746,5973.954129,3216.744531,9956.590215
1539.034048,5973.954129,2144.496354,10569.303459
1539.034350,1838.139732,0.000000,10799.070925
1539.034651,-153.178311,-1838.139732,11258.605858
1539.034953,536.124088,-4288.992708,11411.784169
1539.035255,-3369.922842,-7275.969772,12330.854035
1539.035559,-7658.915550,-7582.326394,12024.497413
1539.035862,-7505.737239,-7275.969772,12024.497413
1539.036165,-2986.977064,-4135.814397,11564.962480
1539.036469,0.000000,-1225.426488,10952.249236
1539.036772,-1608.372265,1608.372265,10262.946837
1539.037076,382.945777,3752.868619,9803.411904
1539.037379,4365.581863,4978.295107,9267.287815
1539.037683,3446.511997,3216.744531,9650.233593
1539.037994,995.659021,1455.193954,10262.946837
1539.038296,76.589155,0.000000,10262.946837
1539.038599,1684.961421,-2221.085509,11105.427547
1539.038901,3446.511997,-2986.977064,11718.140791
1539.039204,3063.566220,-4288.992708,11718.140791
1539.039506,2297.674665,-4595.349330,12024.497413
1539.039808,-1531.783110,-6050.543284,11871.319102
1539.040111,-4595.349330,-6816.434839,12330.854035
1539.040414,-4978.295107,-6203.721595,12330.854035
1539.040717,-2067.907198,-3829.457775,10952.249236
1539.041021,-612.713244,-1684.961421,10799.070925
1539.041324,-1378.604799,536.124088,9803.411904
1539.041628,-459.534933,2757.209598,9497.055282
1539.041932,-765.891555,2144.496354,9267.287815
1539.042235,-1225.426488,1148.837332,9497.055282
1539.042539,0.000000,-1225.426488,10262.946837
1539.042845,3063.566220,-2067.907198,10799.070925
1539.043148,5667.597507,-3982.636086,11564.962480
1539.043451,5361.240885,-5208.062574,12407.443191
1539.043754,842.480710,-5744.186662,12330.854035
1539.044057,-1608.372265,-5667.597507,11564.962480
1539.044360,-2067.907198,-5897.364973,11411.784169
1539.044663,-3140.155375,-4442.171019,10799.070925
1539.044967,-1378.604799,-1838.139732,10722.481770
1539.045283,-919.069866,842.480710,9803.411904
1539.045584,-3676.279464,842.480710,9497.055282
1539.045886,-4595.349330,-765.891555,10262.946837
1539.046188,-2833.798753,-919.069866,10416.125148
1539.046489,-1072.248177,-1378.604799,10262.946837
1539.046791,1991.318043,-1225.426488,10722.481770
1539.047093,5820.775818,-1072.248177,11258.605858
1539.047394,5514.419196,-1072.248177,11411.784169
1539.047703,3446.511997,-2221.085509,11718.140791
1539.048005,2604.031287,-3293.333686,11871.319102
1539.048308,2604.031287,-4288.992708,12330.854035
1539.048611,1531.783110,-2833.798753,12177.675724
1539.048914,-3982.636086,-919.069866,10569.303459
1539.049216,-7888.683016,-459.534933,9956.590215
1539.049519,-6893.023995,229.767466,9803.411904
1539.049822,0.000000,1455.193954,10109.768526
1539.050142,-306.356622,536.124088,10722.481770
1539.050443,-2067.907198,76.589155,10109.768526
1539.050745,1838.139732,-1914.728887,10799.070925
1539.051046,995.659021,-3982.636086,11564.962480
1539.051347,3446.511997,-2986.977064,11258.605858
1539.051648,5973.954129,-4288.992708,12407.443191
1539.051949,3446.511997,-1838.139732,12177.675724
1539.052250,-1531.783110,-612.713244,10722.481770
1539.052554,-2221.085509,-765.891555,10799.070925
1539.052857,536.124088,-153.178311,11105.427547
1539.053161,4365.581863,2297.674665,11105.427547
1539.053464,-153.178311,2604.031287,10262.946837
1539.053768,-7352.558928,2757.209598,9650.233593
1539.054072,-7812.093861,-459.534933,10109.768526
1539.054375,-1225.426488,-612.713244,10109.768526
1539.054679,229.767466,-1531.783110,9650.233593
1539.054990,-2221.085509,-3446.511997,10952.249236
1539.055292,-2067.907198,-4901.705952,11564.962480
1539.055594,3446.511997,-5054.884263,12713.799813
1539.055897,10033.179370,-4748.527641,13632.869679
1539.056199,11028.838392,-1838.139732,12713.799813
1539.056501,995.659021,-153.178311,11411.784169
1539.056804,-5744.186662,229.767466,10416.125148
1539.057106,-2067.907198,1991.318043,9956.590215
1539.057409,-1072.248177,1455.193954,9497.055282
1539.057712,-2221.085509,2757.209598,9956.590215
1539.058016,-6586.667373,1838.139732,8195.039638
1539.058319,-6203.721595,-1378.604799,10569.303459
1539.058623,842.480710,-3140.155375,11718.140791
1539.058926,5973.954129,-2221.085509,11871.319102
1539.059230,2297.674665,-3752.868619,12177.675724
1539.059534,-2527.442131,-3446.511997,11105.427547
1539.059837,-2067.907198,-4595.349330,11258.605858
1539.060140,2910.387909,-2833.798753,11564.962480
1539.060444,1148.837332,382.945777,10416.125148
1539.060747,-3216.744531,842.480710,10262.946837
1539.061051,1684.961421,995.659021,10952.249236
1539.061354,7735.504705,2910.387909,10799.070925
1539.061658,4518.760174,842.480710,10722.481770
1539.061961,-5284.651729,-1914.728887,10416.125148
1539.062277,-4595.349330,-3752.868619,10416.125148
1539.062579,1684.961421,-5361.240885,12024.497413
1539.062881,689.302399,-3293.333686,11411.784169
1539.063182,-6433.489062,-3829.457775,10416.125148
1539.063484,-3216.744531,-3982.636086,11564.962480
1539.063786,6816.434839,-2527.442131,12407.443191
1539.064087,6510.078217,-459.534933,12177.675724
1539.064389,-4671.938485,1302.015643,10109.768526
1539.064697,-5284.651729,1761.550576,9343.876971
1539.065000,-153.178311,1148.837332,10262.946837
1539.065303,1531.783110,2297.674665,10416.125148
1539.065606,-4595.349330,2450.852976,8807.752882
1539.065909,-5284.651729,382.945777,9343.876971
1539.066212,5361.240885,-1914.728887,11718.140791
1539.066515,10492.714303,-2680.620442,13479.691368
1539.066817,3063.566220,-1072.248177,11718.140791
1539.067133,-4135.814397,-2221.085509,10416.125148
1539.067434,1531.783110,-4135.814397,12330.854035
1539.067736,4365.581863,-2527.442131,12713.799813
1539.068038,-5284.651729,-153.178311,10722.481770
1539.068340,-9650.233593,689.302399,9114.109504
1539.068642,-1378.604799,382.945777,10416.125148
1539.068943,7429.148083,2297.674665,11411.784169
1539.069245,842.480710,4212.403552,10416.125148
1539.069548,-8807.752882,4365.581863,9114.109504
1539.069852,-1225.426488,1302.015643,10416.125148
1539.070155,5361.240885,-919.069866,12177.675724
1539.070459,-2986.977064,1302.015643,10109.768526
1539.070762,-4825.116796,229.767466,9650.233593
1539.071066,4671.938485,-765.891555,11564.962480
1539.071369,12790.388968,-765.891555,13020.156435
1539.071673,3599.690308,229.767466,12713.799813
1539.071978,-5591.008351,1991.318043,9497.055282
1539.072281,0.000000,-919.069866,10569.303459
1539.072584,3140.155375,-4595.349330,13479.691368
1539.072888,-4288.992708,-306.356622,11564.962480
1539.073191,-12024.497413,1838.139732,8501.396260
1539.073494,-7352.558928,1455.193954,9114.109504
1539.073797,6510.078217,1302.015643,11411.784169
1539.074100,5973.954129,3216.744531,11411.784169
1539.074416,-4595.349330,4518.760174,9343.876971
1539.074717,-2221.085509,2297.674665,9267.287815
1539.075019,5667.597507,-1838.139732,12330.854035
1539.075321,2144.496354,-1914.728887,12713.799813
1539.075623,-4595.349330,842.480710,9803.411904
1539.075925,1148.837332,76.589155,10109.768526
1539.076227,7582.326394,-1378.604799,12560.621502
1539.076529,5361.240885,1761.550576,11871.319102
1539.076832,-3140.155375,4671.938485,9267.287815
1539.077135,-6050.543284,3216.744531,8348.217949
1539.077439,842.480710,-765.891555,11258.605858
1539.077742,995.659021,-2067.907198,12407.443191
1539.078046,-8654.574571,-612.713244,9956.590215
1539.078350,-8041.861327,-2680.620442,9803.411904
1539.078653,2297.674665,-4135.814397,12560.621502
1539.078957,7275.969772,-459.534933,12713.799813
1539.079273,689.302399,2450.852976,10722.481770
1539.079574,-2221.085509,3676.279464,9343.876971
1539.079876,3752.868619,76.589155,11411.784169
1539.080178,3906.046930,-1072.248177,12713.799813
1539.080479,-2680.620442,2450.852976,10262.946837
1539.080781,-4288.992708,2297.674665,9114.109504
1539.081083,3140.155375,1148.837332,11105.427547
1539.081385,7275.969772,1991.318043,11718.140791
1539.081688,76.589155,2757.209598,10722.481770
1539.081991,-6433.489062,1455.193954,9267.287815
1539.082295,-1761.550576,-1684.961421,10109.768526
1539.082598,3752.868619,-5054.884263,13326.513057
1539.082901,-2221.085509,-3599.690308,11718.140791
1539.083205,-10416.125148,-3446.511997,10262.946837
1539.083508,-1608.372265,-3829.457775,11871.319102
1539.083812,8424.807105,-1225.426488,11871.319102
1539.084131,4518.760174,2450.852976,11411.784169
1539.084433,-5591.008351,3676.279464,9114.109504
1539.084734,-2067.907198,3523.101153,8960.931193
1539.085035,5054.884263,-459.534933,12024.497413
1539.085337,2450.852976,1302.015643,10799.070925
1539.085638,-6433.489062,229.767466,9497.055282
1539.085939,-3140.155375,-1684.961421,10722.481770
1539.086240,6510.078217,-1531.783110,11564.962480
1539.086543,5208.062574,-1378.604799,12024.497413
1539.086847,-4595.349330,0.000000,9803.411904
1539.087151,-4135.814397,-1684.961421,9956.590215
1539.087454,3446.511997,-6050.543284,13173.334746
1539.087758,2910.387909,-3982.636086,13020.156435
1539.088061,-6739.845684,-2374.263820,10569.303459
1539.088365,-7812.093861,-1072.248177,9803.411904
1539.088668,2910.387909,-1531.783110,11718.140791
1539.088974,6127.132440,76.589155,12407.443191
1539.089277,-1072.248177,4059.225241,9267.287815
1539.089580,-3982.636086,2910.387909,9114.109504
1539.089883,1684.961421,0.000000,10952.249236
1539.090186,4748.527641,-765.891555,12024.497413
1539.090489,-2680.620442,-765.891555,11718.140791
1539.090793,-4978.295107,76.589155,9267.287815
1539.091096,4212.403552,-2986.977064,11564.962480
1539.091410,7429.148083,-3446.511997,13326.513057
1539.091712,-612.713244,1148.837332,10569.303459
1539.092014,-5437.830040,2144.496354,8807.752882
1539.092316,842.480710,0.000000,11105.427547
1539.092618,3906.046930,-1914.728887,12560.621502
1539.092920,-2374.263820,-306.356622,11564.962480
1539.093222,-10722.481770,1148.837332,9267.287815
1539.093524,-4671.938485,-765.891555,9803.411904
1539.093827,7965.272172,-306.356622,12866.978124
1539.094131,4059.225241,3523.101153,10569.303459
1539.094434,-5437.830040,3906.046930,8807.752882
1539.094738,-1761.550576,1148.837332,9803.411904
1539.095041,5667.597507,-919.069866,12177.675724
1539.095345,995.659021,-1225.426488,12177.675724
1539.095649,-5437.830040,1148.837332,9803.411904
1539.095952,-765.891555,-1225.426488,10722.481770
1539.096255,6510.078217,-1684.961421,13479.691368
1539.096559,5208.062574,1838.139732,11871.319102
1539.096862,-4442.171019,4978.295107,8960.931193
1539.097166,-4671.938485,3216.744531,8807.752882
1539.097469,2604.031287,-153.178311,11718.140791
1539.097773,2450.852976,229.767466,12330.854035
1539.098076,-8195.039638,76.589155,9956.590215
1539.098380,-7199.380617,-1072.248177,10262.946837
1539.098683,4059.225241,-1838.139732,12024.497413
1539.098986,7582.326394,-153.178311,12560.621502
1539.099290,-2833.798753,1838.139732,10416.125148
1539.099593,-4671.938485,3063.566220,8807.752882
1539.099897,2910.387909,-1378.604799,11871.319102
1539.100201,4671.938485,-1225.426488,12713.799813
1539.100504,-2527.442131,1608.372265,10262.946837
1539.100808,-5897.364973,1148.837332,9956.590215
1539.101118,4748.527641,995.659021,11105.427547
1539.101421,8884.342038,536.124088,12330.854035
1539.101723,-1761.550576,2604.031287,10722.481770
1539.102026,-6280.310751,3906.046930,7888.683016
1539.102328,1838.139732,-153.178311,9956.590215
1539.102631,5054.884263,-2680.620442,13020.156435
1539.102933,-3982.636086,-1225.426488,11258.605858
1539.103236,-8960.931193,-1378.604799,10109.768526
1539.103539,0.000000,-1684.961421,11258.605858
1539.103842,8271.628794,-1838.139732,12713.799813
1539.104146,1148.837332,1838.139732,11871.319102
1539.104449,-7812.093861,4518.760174,8041.861327
1539.104753,-1225.426488,1991.318043,9650.233593
1539.105056,6203.721595,-153.178311,12024.497413
1539.105360,382.945777,842.480710,11411.784169
1539.105663,-6739.845684,1148.837332,10109.768526
1539.105969,-306.356622,842.480710,10262.946837
1539.106272,7735.504705,-919.069866,12407.443191
1539.106575,5208.062574,842.480710,11871.319102
1539.106878,-5437.830040,2450.852976,9343.876971
1539.107182,-2833.798753,382.945777,10109.768526
1539.107485,5054.884263,-1838.139732,12330.854035
1539.107788,1148.837332,-2374.263820,12407.443191
1539.108091,-8195.039638,-612.713244,10799.070925
1539.108397,-5744.186662,-612.713244,9803.411904
1539.108700,4212.403552,-2067.907198,12407.443191
1539.109003,4901.705952,1148.837332,12024.497413
1539.109306,-4135.814397,4518.760174,8654.574571
1539.109610,-4978.295107,2757.209598,9267.287815
1539.109913,2144.496354,689.302399,10262.946837
1539.110216,4518.760174,-1531.783110,12024.497413
1539.110519,-3523.101153,-306.356622,10952.249236
1539.110822,-4825.116796,382.945777,8960.931193
1539.111126,4671.938485,-3140.155375,12024.497413
1539.111429,8577.985416,-2680.620442,13020.156435
1539.111733,76.589155,536.124088,10569.303459
1539.112037,-6203.721595,842.480710,9114.109504
1539.112340,1838.139732,-612.713244,10416.125148
1539.112644,4901.705952,-2527.442131,12560.621502
1539.112947,-4135.814397,-765.891555,11564.962480
1539.113250,-8960.931193,382.945777,8960.931193
1539.113554,-1378.604799,-2680.620442,11105.427547
1539.113857,6969.613150,-1378.604799,12560.621502
1539.114161,1991.318043,2144.496354,10722.481770
1539.114464,-5591.008351,2604.031287,9114.109504
1539.114768,-2221.085509,536.124088,9497.055282
1539.115072,4901.705952,-2067.907198,12177.675724
1539.115375,995.659021,-1531.783110,12407.443191
1539.115679,-4825.116796,995.659021,8807.752882
1539.115982,229.767466,-2067.907198,11718.140791
1539.116285,6356.899906,-2221.085509,13173.334746
1539.116589,4671.938485,842.480710,11564.962480
1539.116892,-4442.171019,3752.868619,9803.411904
1539.117196,-3829.457775,3369.922842,8348.217949
1539.117499,4365.581863,-1072.248177,11718.140791
1539.117802,2144.496354,-765.891555,12330.854035
1539.118107,-7888.683016,1761.550576,8807.752882
1539.118411,-8195.039638,-1378.604799,10262.946837
1539.118714,4518.760174,-1225.426488,12407.443191
1539.119017,7429.148083,76.589155,12024.497413
1539.119321,-3369.922842,2297.674665,10262.946837
1539.119624,-5284.651729,3063.566220,8501.396260
1539.119928,2757.209598,-1072.248177,11564.962480
1539.120231,3906.046930,-1072.248177,12560.621502
1539.120534,-4288.992708,1761.550576,10262.946837
1539.120837,-3676.279464,382.945777,10109.768526
1539.121141,4901.705952,-765.891555,12024.497413
1539.121444,8271.628794,382.945777,12713.799813
1539.121748,-1531.783110,1991.318043,10722.481770
1539.122052,-6050.543284,3676.279464,8807.752882
1539.122355,2450.852976,-306.356622,10416.125148
1539.122659,4748.527641,-2374.263820,13020.156435
1539.122969,-5897.364973,-919.069866,10952.249236
1539.123272,-9267.287815,-459.534933,9956.590215
1539.123574,1302.015643,-1684.961421,11564.962480
1539.123876,8424.807105,-1225.426488,12560.621502
1539.124179,76.589155,536.124088,11411.784169
1539.124481,-7812.093861,3906.046930,8501.396260
1539.124784,229.767466,2297.674665,9114.109504
1539.125086,6127.132440,-306.356622,11871.319102
1539.125398,-1225.426488,689.302399,11105.427547
1539.125700,-6203.721595,1838.139732,9343.876971
1539.126002,995.659021,76.589155,10416.125148
1539.126305,8577.985416,-1072.248177,12713.799813
1539.126607,3599.690308,76.589155,12024.497413
1539.126910,-6280.310751,2757.209598,9114.109504
1539.127212,-1914.728887,1608.372265,8807.752882
1539.127514,6356.899906,-2067.907198,12024.497413
1539.127817,382.945777,-2221.085509,12407.443191
1539.128121,-9803.411904,-459.534933,10109.768526
1539.128424,-5131.473418,-919.069866,10109.768526
1539.128728,6663.256528,-1531.783110,12407.443191
1539.129032,5514.419196,689.302399,12407.443191
1539.129335,-5284.651729,3752.868619,9650.233593
1539.129639,-5284.651729,4212.403552,8195.039638
1539.129942,4671.938485,382.945777,10952.249236
1539.130245,2604.031287,-919.069866,12407.443191
1539.130549,-5591.008351,382.945777,10569.303459
1539.130852,-2986.977064,-612.713244,10722.481770
1539.131156,4901.705952,-1914.728887,12560.621502
1539.131459,7965.272172,-1225.426488,13326.513057
1539.131763,0.000000,1302.015643,11258.605858
1539.132067,-4978.295107,4365.581863,8501.396260
1539.132370,2144.496354,382.945777,10109.768526
1539.132674,5361.240885,-1072.248177,12866.978124
1539.132977,-4595.349330,842.480710,10262.946837
1539.133281,-8960.931193,-459.534933,9650.233593
1539.133584,-612.713244,-1838.139732,11718.140791
1539.133888,7582.326394,229.767466,11718.140791
1539.134191,842.480710,1455.193954,10722.481770
1539.134495,-7505.737239,2757.209598,8807.752882
1539.134798,-306.356622,1148.837332,9267.287815
1539.135113,5361.240885,-2067.907198,12330.854035
1539.135415,-2221.085509,-765.891555,10952.249236
1539.135717,-4595.349330,0.000000,9650.233593
1539.136019,1991.318043,-2374.263820,11718.140791
1539.136320,7812.093861,76.589155,12407.443191
1539.136622,4748.527641,1302.015643,11258.605858
1539.136924,-3676.279464,2910.387909,9650.233593
1539.137226,-2833.798753,1761.550576,8807.752882
1539.137529,5361.240885,-1838.139732,11718.140791
1539.137833,689.302399,-1531.783110,12024.497413
1539.138136,-8807.752882,-765.891555,9497.055282
1539.138440,-6586.667373,-1684.961421,10722.481770
1539.138743,3906.046930,-2067.907198,11871.319102
1539.139047,6663.256528,-306.356622,12407.443191
1539.139350,-3829.457775,995.659021,10416.125148
1539.139654,-4978.295107,1302.015643,9497.055282
1539.139958,3140.155375,-1838.139732,11718.140791
1539.140261,3906.046930,-919.069866,12330.854035
1539.140565,-3676.279464,1302.015643,10262.946837
1539.140868,-2986.977064,229.767466,10109.768526
1539.141171,5208.062574,-1914.728887,12560.621502
1539.141474,8271.628794,842.480710,12330.854035
1539.141778,-1531.783110,1608.372265,10722.481770
1539.142081,-6203.721595,2757.209598,8654.574571
1539.142393,842.480710,-153.178311,10109.768526
1539.142696,4748.527641,-1914.728887,12713.799813
1539.142998,-4978.295107,-306.356622,10569.303459
1539.143300,-10416.125148,-1072.248177,9803.411904
1539.143603,689.302399,-2986.977064,12024.497413
1539.143905,7965.272172,-1072.248177,12407.443191
1539.144207,1455.193954,1761.550576,11258.605858
1539.144509,-5897.364973,3369.922842,9267.287815
1539.144836,382.945777,3063.566220,9343.876971
1539.145136,5361.240885,76.589155,11718.140791
1539.145436,-306.356622,1991.318043,10799.070925
1539.145736,-5591.008351,2604.031287,8348.217949
1539.146037,1531.783110,-1072.248177,10722.481770
1539.146337,8118.450483,-1225.426488,13173.334746
1539.146637,2297.674665,382.945777,11564.962480
1539.146937,-5284.651729,1991.318043,9497.055282
1539.147241,-1914.728887,-153.178311,9650.233593
1539.147544,4059.225241,-3599.690308,12407.443191
1539.147848,-306.356622,-2221.085509,12330.854035
1539.148151,-9267.287815,-306.356622,9650.233593
1539.148455,-4442.171019,-1914.728887,10799.070925
1539.148758,7275.969772,-2527.442131,12866.978124
1539.149062,5820.775818,76.589155,12866.978124
1539.149365,-4825.116796,3063.566220,9803.411904
1539.149669,-4978.295107,3369.922842,8654.574571
1539.149972,4365.581863,0.000000,11411.784169
1539.150276,3599.690308,-1072.248177,12024.497413
1539.150579,-4671.938485,382.945777,10109.768526
1539.150882,-2986.977064,-1684.961421,10569.303459
1539.151186,6203.721595,-2833.798753,12866.978124
1539.151489,7275.969772,-1531.783110,13173.334746
1539.151793,-2374.263820,1608.372265,10722.481770
1539.152103,-4825.116796,3063.566220,8041.861327
1539.152406,2910.387909,-765.891555,10262.946837
1539.152708,3140.155375,-1914.728887,12177.675724
1539.153011,-5744.186662,-306.356622,10109.768526
1539.153313,-8501.396260,-1378.604799,9956.590215
1539.153616,1455.193954,-1531.783110,11411.784169
1539.153918,8577.985416,76.589155,12177.675724
1539.154221,76.589155,2604.031287,10799.070925
1539.154524,-6433.489062,4365.581863,8195.039638
1539.154828,229.767466,1455.193954,9650.233593
1539.155131,5054.884263,-306.356622,11871.319102
1539.155434,-1608.372265,76.589155,10416.125148
1539.155738,-5437.830040,-459.534933,10416.125148
1539.156041,2144.496354,-1531.783110,11411.784169
1539.156345,7965.272172,-1225.426488,12866.978124
1539.156648,1684.961421,229.767466,12330.854035
1539.156952,-5591.008351,2910.387909,9497.055282
1539.157256,-612.713244,995.659021,9650.233593
1539.157559,4518.760174,-1225.426488,12024.497413
1539.157863,-1531.783110,-459.534933,11718.140791
1539.158166,-8041.861327,1302.015643,10416.125148
1539.158469,-2680.620442,1302.015643,10262.946837
1539.158773,6203.721595,536.124088,12024.497413
1539.159076,5361.240885,1608.372265,12024.497413
1539.159392,-3523.101153,2757.209598,9803.411904
1539.159694,-3829.457775,1761.550576,9803.411904
1539.159996,3906.046930,-306.356622,11258.605858
1539.160297,2297.674665,-1225.426488,11718.140791
1539.160599,-5591.008351,0.000000,10416.125148
1539.160901,-2374.263820,-612.713244,10416.125148
1539.161203,5514.419196,-1225.426488,12330.854035
1539.161504,4901.705952,0.000000,12560.621502
1539.161831,-3140.155375,2450.852976,9803.411904
1539.162131,-4442.171019,2450.852976,8960.931193
1539.162431,2450.852976,-306.356622,10416.125148
1539.162731,3293.333686,-1072.248177,11871.319102
1539.163032,-5284.651729,-459.534933,10416.125148
1539.163332,-6280.310751,-612.713244,9803.411904
1539.163632,3063.566220,-2527.442131,11564.962480
1539.163932,6127.132440,-765.891555,12330.854035
1539.164236,229.767466,1302.015643,10722.481770
1539.164539,-3829.457775,1991.318043,9497.055282
1539.164843,-612.713244,229.767466,10262.946837
1539.165146,3906.046930,-1378.604799,11718.140791
1539.165450,-1608.372265,-919.069866,11105.427547
1539.165753,-5284.651729,76.589155,9956.590215
1539.166057,1684.961421,-1531.783110,11411.784169
1539.166360,6969.613150,-2527.442131,13479.691368
1539.166663,1684.961421,382.945777,12024.497413
1539.166967,-3829.457775,2910.387909,9267.287815
1539.167270,-459.534933,2144.496354,8807.752882
1539.167574,3752.868619,-306.356622,11105.427547
1539.167877,-612.713244,-765.891555,11105.427547
1539.168181,-8654.574571,-1072.248177,10109.768526
1539.168485,-3216.744531,-3293.333686,10952.249236
1539.168788,7582.326394,-2374.263820,12713.799813
1539.169092,4748.527641,-1378.604799,12177.675724
1539.169395,-5897.364973,1991.318043,9803.411904
1539.169699,-4978.295107,1838.139732,9114.109504
1539.170002,4518.760174,-919.069866,11105.427547
1539.170306,2604.031287,-1225.426488,11564.962480
1539.170609,-5437.830040,0.000000,10416.125148
1539.170913,-3140.155375,-612.713244,10262.946837
1539.171216,5514.419196,-1072.248177,12560.621502
1539.171519,7122.791461,689.302399,12560.621502
1539.171822,-2067.907198,1838.139732,10262.946837
1539.172126,-3982.636086,1148.837332,9497.055282
1539.172430,3140.155375,-1838.139732,10722.481770
1539.172733,3446.511997,-2221.085509,12330.854035
1539.173037,-7046.202306,-459.534933,10722.481770
1539.173340,-8348.217949,229.767466,9650.233593
1539.173644,3752.868619,-2067.907198,12177.675724
1539.173947,6969.613150,-1225.426488,13020.156435
1539.174250,-919.069866,2144.496354,10569.303459
1539.174554,-6433.489062,2450.852976,8807.752882
1539.174858,689.302399,1148.837332,9956.590215
1539.175161,4365.581863,-459.534933,11564.962480
1539.175465,-2374.263820,-459.534933,11258.605858
1539.175768,-5284.651729,536.124088,9956.590215
1539.176072,2450.852976,-1531.783110,11258.605858
1539.176389,8424.807105,-1838.139732,13326.513057
1539.176690,842.480710,1455.193954,11258.605858
1539.176992,-6893.023995,2297.674665,9267.287815
1539.177293,-1225.426488,76.589155,9803.411904
1539.177595,6127.132440,-1225.426488,11871.319102
1539.177896,-919.069866,-1531.783110,11718.140791
1539.178198,-10722.481770,382.945777,9956.590215
1539.178499,-2067.907198,-306.356622,10416.125148
1539.178807,7965.272172,-2221.085509,13020.156435
1539.179110,3906.046930,1302.015643,12024.497413
1539.179413,-2833.798753,3906.046930,9497.055282
1539.179715,-2833.798753,3523.101153,8807.752882
1539.180018,3140.155375,0.000000,11258.605858
1539.180321,1455.193954,0.000000,11871.319102
1539.180624,-4671.938485,382.945777,9497.055282
1539.180927,-2680.620442,-1684.961421,10952.249236
1539.181231,4901.705952,-2680.620442,12866.978124
1539.181534,6127.132440,-1072.248177,12866.978124
1539.181838,-3140.155375,1608.372265,10722.481770
1539.182141,-4442.171019,3523.101153,8041.861327
1539.182445,2297.674665,-612.713244,10799.070925
1539.182748,3063.566220,-612.713244,12177.675724
1539.183051,-4978.295107,1838.139732,9267.287815
1539.183355,-6586.667373,-765.891555,10109.768526
1539.183658,3140.155375,-1531.783110,11718.140791
1539.183961,6816.434839,-306.356622,12177.675724
1539.184265,-919.069866,1761.550576,11411.784169
1539.184568,-4595.349330,4518.760174,7888.683016
1539.184872,-153.178311,229.767466,10109.768526
1539.185175,3752.868619,-1531.783110,12177.675724
1539.185479,-2374.263820,-1072.248177,10722.481770
1539.185782,-6050.543284,-1838.139732,10799.070925
1539.186089,1531.783110,-919.069866,11411.784169
1539.186392,7122.791461,0.000000,12177.675724
1539.186695,995.659021,995.659021,12024.497413
1539.186998,-5897.364973,3676.279464,8501.396260
1539.187301,76.589155,842.480710,9497.055282
1539.187604,5667.597507,-1684.961421,12177.675724
1539.187908,-1914.728887,-612.713244,10722.481770
1539.188211,-8960.931193,-1531.783110,10722.481770
1539.188514,-1378.604799,-1225.426488,11411.784169
1539.188817,7812.093861,-919.069866,12024.497413
1539.189121,3599.690308,-765.891555,12866.978124
1539.189424,-5437.830040,3369.922842,9267.287815
1539.189728,-2986.977064,1838.139732,8960.931193
1539.190031,3599.690308,-1684.961421,12024.497413
1539.190335,995.659021,-1072.248177,11411.784169
1539.190639,-5284.651729,-1072.248177,10569.303459
1539.190941,-2527.442131,-1225.426488,10722.481770
1539.191245,5973.954129,-1914.728887,11871.319102
1539.191549,5667.597507,-1378.604799,12713.799813
1539.191852,-3216.744531,1761.550576,9803.411904
1539.192156,-5284.651729,382.945777,9267.287815
1539.192459,3140.155375,-2067.907198,11564.962480
1539.192763,4365.581863,-459.534933,11411.784169
1539.193066,-6739.845684,-459.534933,10569.303459
1539.193383,-7658.915550,-306.356622,9803.411904
1539.193685,5208.062574,-1225.426488,11411.784169
1539.193987,7122.791461,-1838.139732,13173.334746
1539.194288,-3140.155375,3216.744531,9956.590215
1539.194590,-6280.310751,2604.031287,8041.861327
1539.194891,1531.783110,-459.534933,11105.427547
1539.195193,4671.938485,-612.713244,11718.140791
1539.195494,-2680.620442,229.767466,10799.070925
1539.195813,-6050.543284,1148.837332,9497.055282
1539.196114,2604.031287,-919.069866,10952.249236
1539.196416,7122.791461,-2680.620442,13786.047990
1539.196717,536.124088,842.480710,11411.784169
1539.197018,-6050.543284,1761.550576,8960.931193
1539.197320,536.124088,-1684.961421,11105.427547
1539.197621,6127.132440,-1378.604799,12407.443191
1539.197922,-2986.977064,-306.356622,11258.605858
1539.198231,-10569.303459,842.480710,9650.233593
1539.198534,1302.015643,-1225.426488,10569.303459
1539.198837,7735.504705,-3293.333686,13939.226301
1539.199139,1838.139732,2604.031287,11411.784169
1539.199442,-4671.938485,4212.403552,8501.396260
1539.199745,-3140.155375,1761.550576,9650.233593
1539.200047,4671.938485,-612.713244,11871.319102
1539.200350,382.945777,-306.356622,11258.605858
1539.200653,-6203.721595,-306.356622,10416.125148
1539.200956,-1608.372265,-2527.442131,10952.249236
1539.201260,6356.899906,-2374.263820,13173.334746
1539.201564,4671.938485,536.124088,12177.675724
1539.201867,-3829.457775,3216.744531,8654.574571
1539.202171,-3140.155375,1608.372265,9267.287815
1539.202474,3599.690308,-612.713244,11411.784169
1539.202778,3599.690308,382.945777,11564.962480
1539.203084,-7658.915550,842.480710,9650.233593
1539.203387,-5591.008351,-765.891555,9803.411904
1539.203690,5054.884263,-2374.263820,12177.675724
1539.203993,5514.419196,995.659021,11871.319102
1539.204296,-1914.728887,2910.387909,9650.233593
1539.204600,-5131.473418,1455.193954,9114.109504
1539.204903,0.000000,-612.713244,10952.249236
1539.205206,3906.046930,-612.713244,11871.319102
1539.205509,-3216.744531,536.124088,10109.768526
1539.205812,-5897.364973,-153.178311,10416.125148
1539.206116,3140.155375,-1684.961421,11871.319102
1539.206420,7122.791461,-1378.604799,13479.691368
1539.206723,-153.178311,1455.193954,11105.427547
1539.207027,-5284.651729,2297.674665,9497.055282
1539.207330,2450.852976,1302.015643,10569.303459
1539.207634,5514.419196,0.000000,12024.497413
1539.207940,-3216.744531,842.480710,11105.427547
1539.208243,-8960.931193,689.302399,9956.590215
1539.208546,-919.069866,-919.069866,11105.427547
1539.208849,7812.093861,-1531.783110,13173.334746
1539.209152,1838.139732,1608.372265,11411.784169
1539.209455,-6893.023995,2604.031287,8960.931193
1539.209759,-2374.263820,2144.496354,9650.233593
1539.210062,5514.419196,-306.356622,11564.962480
1539.210367,536.124088,-153.178311,11871.319102
1539.210670,-6586.667373,995.659021,9497.055282
1539.210974,-765.891555,-765.891555,10722.481770
1539.211277,6510.078217,-1378.604799,12866.978124
1539.211580,4901.705952,1608.372265,11871.319102
1539.211883,-4671.938485,3063.566220,9267.287815
1539.212186,-2067.907198,2757.209598,8654.574571
1539.212490,3906.046930,-1838.139732,11564.962480
1539.212809,995.659021,-765.891555,11871.319102
1539.213110,-7505.737239,-306.356622,9497.055282
1539.213411,-6050.543284,-2221.085509,10799.070925
1539.213712,5054.884263,-2527.442131,12407.443191
1539.214014,6969.613150,-765.891555,12713.799813
1539.214315,-4135.814397,1991.318043,10109.768526
1539.214616,-5744.186662,3369.922842,8195.039638
1539.214917,3599.690308,-306.356622,10952.249236
1539.215227,4671.938485,-765.891555,11871.319102
1539.215529,-3140.155375,0.000000,10569.303459
1539.215832,-4825.116796,-1531.783110,10722.481770
1539.216135,4212.403552,-1072.248177,11718.140791
1539.216437,7429.148083,-1531.783110,12866.978124
1539.216740,-919.069866,1148.837332,11105.427547
1539.217043,-5284.651729,1991.318043,8960.931193
1539.217345,-765.891555,-612.713244,10262.946837
1539.217648,3752.868619,-1225.426488,12024.497413
1539.217952,-3829.457775,-765.891555,10722.481770
1539.218255,-8654.574571,-1684.961421,10416.125148
1539.218559,229.767466,-2067.907198,11258.605858
1539.218863,6663.256528,-2374.263820,12560.621502
1539.219166,2450.852976,1302.015643,12024.497413
1539.219470,-4442.171019,5591.008351,8041.861327
1539.219773,-2527.442131,3676.279464,8041.861327
1539.220076,5514.419196,-459.534933,11258.605858
1539.220380,382.945777,-1072.248177,11258.605858
1539.220683,-5284.651729,-306.356622,10416.125148
1539.220987,-459.534933,-1838.139732,10722.481770
1539.221291,6816.434839,-2067.907198,12713.799813
1539.221594,2757.209598,-612.713244,12560.621502
1539.221898,-5744.186662,3063.566220,8960.931193
1539.222201,-3369.922842,689.302399,8807.752882
1539.222504,3446.511997,-3293.333686,12560.621502
1539.222808,1531.783110,-1684.961421,12560.621502
1539.223111,-7658.915550,689.302399,10109.768526
1539.223415,-5131.473418,382.945777,9803.411904
1539.223718,5667.597507,-919.069866,12177.675724
1539.224022,6510.078217,995.659021,12407.443191
1539.224325,-2680.620442,3752.868619,9956.590215
1539.224629,-3982.636086,2604.031287,8960.931193
1539.224935,2604.031287,-459.534933,11105.427547
1539.225238,4059.225241,-1072.248177,12330.854035
1539.225541,-3140.155375,-306.356622,10569.303459
1539.225844,-4671.938485,-306.356622,10799.070925
1539.226147,3752.868619,-2221.085509,11718.140791
1539.226450,6127.132440,-2527.442131,13479.691368
1539.226754,-1914.728887,2604.031287,9956.590215
1539.227057,-5897.364973,2144.496354,8195.039638
1539.227379,1455.193954,229.767466,10416.125148
1539.227680,5054.884263,0.000000,11411.784169
1539.227980,-2986.977064,-306.356622,10799.070925
1539.228281,-9114.109504,-612.713244,9803.411904
1539.228582,1838.139732,-306.356622,10799.070925
1539.228883,7812.093861,-765.891555,12177.675724
1539.229184,1302.015643,2144.496354,10952.249236
1539.229484,-6050.543284,3523.101153,8348.217949
1539.229792,-612.713244,1302.015643,10109.768526
1539.230095,6203.721595,76.589155,11105.427547
1539.230398,-306.356622,-612.713244,11411.784169
1539.230701,-7352.558928,-765.891555,10569.303459
1539.231004,-765.891555,-612.713244,10799.070925
1539.231306,7582.326394,-1684.961421,13326.513057
1539.231609,2450.852976,1608.372265,11871.319102
1539.231912,-5437.830040,3906.046930,8807.752882
1539.232222,-2374.263820,1302.015643,9650.233593
1539.232525,4901.705952,-1072.248177,11718.140791
1539.232827,842.480710,-919.069866,12330.854035
1539.233130,-8195.039638,229.767466,10416.125148
1539.233432,-3829.457775,-765.891555,10722.481770
1539.233735,6356.899906,-2221.085509,13020.156435
1539.234037,5208.062574,229.767466,12560.621502
1539.234340,-3982.636086,3216.744531,9956.590215
1539.234643,-3369.922842,3752.868619,9114.109504
1539.234946,3140.155375,1148.837332,10722.481770
1539.235250,3752.868619,76.589155,11718.140791
1539.235553,-3829.457775,689.302399,10262.946837
1539.235857,-4288.992708,-1684.961421,10722.481770
1539.236160,3906.046930,-2221.085509,12560.621502
1539.236464,6356.899906,-459.534933,12177.675724
1539.236767,-2986.977064,1991.318043,9956.590215
1539.237075,-5437.830040,1991.318043,8501.396260
1539.237378,1531.783110,-1225.426488,10799.070925
1539.237681,4671.938485,-1838.139732,12330.854035
1539.237984,-4288.992708,0.000000,10416.125148
1539.238287,-9267.287815,-612.713244,9650.233593
1539.238590,1838.139732,-765.891555,11411.784169
1539.238893,8271.628794,-765.891555,12177.675724
1539.239196,1302.015643,1838.139732,11258.605858
1539.239499,-4288.992708,4059.225241,8348.217949
1539.239803,382.945777,536.124088,9956.590215
1539.240106,4748.527641,-1378.604799,11871.319102
1539.240410,-153.178311,-153.178311,10722.481770
1539.240713,-5897.364973,-1378.604799,10569.303459
1539.241017,-153.178311,-1838.139732,11105.427547
1539.241320,6816.434839,-3752.868619,13479.691368
1539.241624,2144.496354,-612.713244,12407.443191
1539.241930,-5897.364973,1991.318043,8807.752882
1539.242233,-3369.922842,-459.534933,9803.411904
1539.242536,4748.527641,-2221.085509,12330.854035
1539.242839,536.124088,-306.356622,11564.962480
1539.243142,-9114.109504,382.945777,10262.946837
1539.243445,-3676.279464,76.589155,9803.411904
1539.243748,7812.093861,-1225.426488,12407.443191
1539.244051,6127.132440,0.000000,12560.621502
1539.244374,-4135.814397,3752.868619,9267.287815
1539.244674,-3982.636086,2910.387909,9114.109504
1539.244975,4059.225241,-306.356622,10952.249236
1539.245276,3752.868619,-459.534933,11718.140791
1539.245577,-5437.830040,-1378.604799,10416.125148
1539.245877,-4978.295107,-1531.783110,10569.303459
1539.246178,5361.240885,-2527.442131,12407.443191
1539.246479,6127.132440,-1531.783110,12713.799813
1539.246798,-4671.938485,1455.193954,9803.411904
1539.247099,-5897.364973,1608.372265,8807.752882
1539.247400,3752.868619,-612.713244,10569.303459
1539.247701,5361.240885,-1838.139732,12330.854035
1539.248002,-5284.651729,0.000000,10569.303459
1539.248304,-7812.093861,382.945777,9497.055282
1539.248605,2604.031287,-1531.783110,11564.962480
1539.248906,7965.272172,-612.713244,12330.854035
1539.249211,1455.193954,1838.139732,10952.249236
1539.249514,-5591.008351,3216.744531,8807.752882
1539.249818,536.124088,1302.015643,9956.590215
1539.250121,5973.954129,-1225.426488,12330.854035
1539.250424,-1225.426488,842.480710,11105.427547
1539.250728,-7658.915550,382.945777,9267.287815
1539.251031,1455.193954,-1684.961421,11411.784169
1539.251335,8271.628794,-1684.961421,13326.513057
1539.251638,689.302399,1148.837332,11105.427547
1539.251941,-6586.667373,2604.031287,8807.752882
1539.252245,-1914.728887,689.302399,9267.287815
1539.252548,5667.597507,-1378.604799,12407.443191
1539.252852,-612.713244,-153.178311,11564.962480
1539.253155,-9114.109504,-459.534933,9803.411904
1539.253459,-2680.620442,-1914.728887,11564.962480
1539.253762,7429.148083,-1072.248177,12407.443191
1539.254073,4671.938485,1761.550576,12024.497413
1539.254376,-4135.814397,4365.581863,9267.287815
1539.254678,-2986.977064,3752.868619,8654.574571
1539.254981,4212.403552,-459.534933,11871.319102
1539.255283,2604.031287,0.000000,11564.962480
1539.255585,-4595.349330,76.589155,10262.946837
1539.255888,-3523.101153,-919.069866,10799.070925
1539.256190,5667.597507,-306.356622,11871.319102
1539.256494,5208.062574,-153.178311,12713.799813
1539.256797,-4288.992708,2910.387909,9803.411904
1539.257101,-4978.295107,1761.550576,8501.396260
1539.257404,3063.566220,-3293.333686,11871.319102
1539.257708,3906.046930,-1225.426488,12330.854035
1539.258011,-5591.008351,536.124088,10109.768526
1539.258314,-8041.861327,-459.534933,10109.768526
1539.258618,2604.031287,0.000000,10952.249236
1539.258924,7812.093861,76.589155,12560.621502
1539.259227,995.659021,3369.922842,10569.303459
1539.259530,-4288.992708,4212.403552,8041.861327
1539.259834,76.589155,382.945777,10722.481770
1539.260137,4518.760174,536.124088,11411.784169
1539.260440,-1072.248177,382.945777,10416.125148
1539.260743,-5897.364973,-459.534933,10416.125148
1539.261046,842.480710,-2680.620442,11258.605858
1539.261368,7275.969772,-3293.333686,14015.815456
1539.261669,76.589155,-919.069866,11718.140791
1539.261970,-5744.186662,1838.139732,9114.109504
1539.262271,-1225.426488,-459.534933,10416.125148
1539.262571,6127.132440,-919.069866,12330.854035
1539.262872,-1378.604799,536.124088,11105.427547
1539.263173,-8501.396260,995.659021,9803.411904
1539.263474,-1914.728887,-612.713244,10416.125148
1539.263787,7429.148083,-2067.907198,12560.621502
1539.264089,4901.705952,1302.015643,12177.675724
1539.264391,-3676.279464,4212.403552,8654.574571
1539.264693,-2221.085509,2297.674665,9343.876971
1539.264995,3293.333686,-765.891555,11718.140791
1539.265297,1838.139732,-1072.248177,11718.140791
1539.265600,-5897.364973,-765.891555,10262.946837
1539.265902,-3676.279464,-1531.783110,10262.946837
1539.266211,6203.721595,-2833.798753,12866.978124
1539.266514,4671.938485,-1225.426488,12713.799813
1539.266816,-5591.008351,2450.852976,9497.055282
1539.267119,-2986.977064,2757.209598,8654.574571
1539.267422,4518.760174,-1072.248177,11105.427547
1539.267724,2297.674665,-612.713244,12024.497413
1539.268027,-8041.861327,229.767466,9803.411904
1539.268330,-5591.008351,-306.356622,9803.411904
1539.268633,4901.705952,-2986.977064,12407.443191
1539.268936,7122.791461,-919.069866,12866.978124
1539.269240,-2067.907198,1302.015643,10569.303459
1539.269543,-4978.295107,3369.922842,8807.752882
1539.269847,1991.318043,689.302399,10416.125148
1539.270150,3446.511997,-612.713244,12024.497413
1539.270454,-2680.620442,76.589155,10569.303459
1539.270757,-5437.830040,-1225.426488,10262.946837
1539.271068,3293.333686,-2680.620442,12330.854035
1539.271371,7812.093861,-1072.248177,12713.799813
1539.271673,382.945777,2450.852976,10569.303459
1539.271976,-5284.651729,2910.387909,8501.396260
1539.272278,-153.178311,382.945777,9803.411904
1539.272580,4059.225241,-2067.907198,12330.854035
1539.272883,-1761.550576,-612.713244,10722.481770
1539.273185,-8960.931193,-1684.961421,9803.411904
1539.273488,-1531.783110,-2680.620442,11564.962480
1539.273792,7122.791461,-2527.442131,12866.978124
1539.274095,2910.387909,1148.837332,11871.319102
1539.274399,-4671.938485,2757.209598,8960.931193
1539.274702,-612.713244,1455.193954,9497.055282
1539.275006,3752.868619,-919.069866,11258.605858
1539.275310,995.659021,382.945777,11105.427547
1539.275613,-4135.814397,229.767466,10109.768526
1539.275916,-1072.248177,-153.178311,10569.303459
1539.276220,6663.256528,-1684.961421,12407.443191
1539.276523,4518.760174,-612.713244,12713.799813
1539.276827,-4595.349330,2757.209598,9343.876971
1539.277130,-4288.992708,995.659021,9114.109504
1539.277434,3140.155375,-1914.728887,12024.497413
1539.277737,2144.496354,-765.891555,12330.854035
1539.278041,-6739.845684,-459.534933,10416.125148
1539.278344,-6586.667373,-153.178311,10109.768526
1539.278647,4365.581863,-1378.604799,11105.427547
1539.278951,6203.721595,-919.069866,13173.334746
1539.279254,-1225.426488,4518.760174,9956.590215
1539.279558,-3216.744531,5131.473418,7888.683016
1539.279862,229.767466,1148.837332,10416.125148
1539.280165,4059.225241,382.945777,11411.784169
1539.280469,-2221.085509,-919.069866,10952.249236
1539.280772,-3829.457775,-612.713244,10722.481770
1539.281075,1838.139732,-1838.139732,11564.962480
