#time,accel_x,accel_y,accel_z
1540.707748,-153.178311,0.000000,10952.249236
1540.708051,-459.534933,0.000000,10799.070925
1540.708355,0.000000,-153.178311,10952.249236
1540.708658,0.000000,-153.178311,10799.070925
1540.708961,-153.178311,0.000000,10799.070925
1540.709265,-306.356622,0.000000,10799.070925
1540.709569,-306.356622,-153.178311,10952.249236
1540.709872,229.767466,76.589155,10799.070925
1540.710176,0.000000,229.767466,10799.070925
1540.710479,-306.356622,-153.178311,10799.070925
1540.710783,382.945777,76.589155,10952.249236
1540.711086,76.589155,0.000000,10952.249236
1540.711390,76.589155,0.000000,10799.070925
1540.711693,-306.356622,76.589155,10952.249236
1540.711996,76.589155,0.000000,10799.070925
1540.712300,0.000000,76.589155,10952.249236
1540.712603,-153.178311,76.589155,10799.070925
1540.712907,0.000000,0.000000,10799.070925
1540.713210,76.589155,76.589155,10799.070925
1540.713521,76.589155,76.589155,10799.070925
1540.713823,-459.534933,-153.178311,10799.070925
1540.714126,-153.178311,76.589155,10799.070925
1540.714428,0.000000,-153.178311,10952.249236
1540.714731,-459.534933,229.767466,10799.070925
1540.715033,-306.356622,76.589155,10952.249236
1540.715336,0.000000,0.000000,10952.249236
1540.715639,0.000000,76.589155,11105.427547
1540.715941,0.000000,0.000000,10952.249236
1540.716245,-306.356622,0.000000,10952.249236
1540.716548,-153.178311,76.589155,10722.481770
1540.716852,76.589155,0.000000,11105.427547
1540.717156,-306.356622,229.767466,10952.249236
1540.717459,0.000000,229.767466,10722.481770
1540.717763,76.589155,229.767466,10722.481770
1540.718066,0.000000,76.589155,10799.070925
1540.718371,76.589155,76.589155,10952.249236
1540.718674,-153.178311,0.000000,10952.249236
1540.718977,0.000000,0.000000,10722.481770
1540.719281,76.589155,229.767466,10952.249236
1540.719584,-306.356622,76.589155,10952.249236
1540.719887,-153.178311,0.000000,10722.481770
1540.720190,-153.178311,0.000000,10722.481770
1540.720494,-153.178311,0.000000,10952.249236
1540.720805,0.000000,-153.178311,10952.249236
1540.721108,-153.178311,-153.178311,10799.070925
1540.721410,-306.356622,-153.178311,10952.249236
1540.721712,76.589155,0.000000,10952.249236
1540.722015,-153.178311,0.000000,10952.249236
1540.722317,-306.356622,0.000000,11105.427547
1540.722620,0.000000,76.589155,10799.070925
1540.722922,0.000000,382.945777,11105.427547
1540.723225,0.000000,0.000000,10952.249236
1540.723528,76.589155,229.767466,10952.249236
1540.723832,-153.178311,76.589155,10952.249236
1540.724136,229.767466,229.767466,10952.249236
1540.724439,-153.178311,0.000000,10952.249236
1540.724743,229.767466,229.767466,10799.070925
1540.725046,-153.178311,76.589155,10952.249236
1540.725350,0.000000,229.767466,10952.249236
1540.725653,0.000000,0.000000,10799.070925
1540.725956,-153.178311,76.589155,10799.070925
1540.726260,0.000000,0.000000,10799.070925
1540.726563,0.000000,76.589155,10722.481770
1540.726867,-153.178311,0.000000,11105.427547
1540.727171,-153.178311,229.767466,10722.481770
1540.727474,-153.178311,0.000000,10952.249236
1540.727778,76.589155,76.589155,10722.481770
1540.728081,-153.178311,0.000000,10799.070925
1540.728384,-306.356622,76.589155,10722.481770
1540.728688,-153.178311,0.000000,10799.070925
1540.728991,-153.178311,0.000000,10952.249236
1540.729295,0.000000,0.000000,10952.249236
1540.729599,-153.178311,76.589155,10952.249236
1540.729902,0.000000,-153.178311,11258.605858
1540.730206,0.000000,-153.178311,10799.070925
1540.730521,0.000000,229.767466,10952.249236
1540.730823,-306.356622,0.000000,10952.249236
1540.731125,0.000000,229.767466,10952.249236
1540.731426,76.589155,76.589155,10952.249236
1540.731728,229.767466,229.767466,11105.427547
1540.732030,0.000000,76.589155,10799.070925
1540.732332,0.000000,229.767466,10952.249236
1540.732634,0.000000,76.589155,11105.427547
1540.732937,0.000000,76.589155,10799.070925
1540.733240,-306.356622,-153.178311,10569.303459
1540.733544,0.000000,76.589155,10799.070925
1540.733847,0.000000,0.000000,11105.427547
1540.734151,-153.178311,0.000000,10799.070925
1540.734454,-153.178311,0.000000,10952.249236
1540.734758,76.589155,0.000000,11105.427547
1540.735062,-153.178311,76.589155,10722.481770
1540.735366,-306.356622,76.589155,10799.070925
1540.735669,-306.356622,76.589155,10722.481770
1540.735972,-153.178311,382.945777,10799.070925
1540.736276,76.589155,229.767466,10799.070925
1540.736579,0.000000,76.589155,10799.070925
1540.736882,-306.356622,0.000000,10722.481770
1540.737185,-153.178311,76.589155,11105.427547
1540.737489,76.589155,76.589155,10722.481770
1540.737795,0.000000,0.000000,10799.070925
1540.738098,0.000000,76.589155,10799.070925
1540.738401,382.945777,382.945777,10799.070925
1540.738704,76.589155,0.000000,11105.427547
1540.739008,76.589155,76.589155,10952.249236
1540.739311,229.767466,0.000000,10799.070925
1540.739614,-153.178311,-153.178311,11258.605858
1540.739917,0.000000,76.589155,10952.249236
1540.740243,-153.178311,-306.356622,10799.070925
1540.740544,-153.178311,0.000000,10799.070925
1540.740844,-153.178311,76.589155,11105.427547
1540.741144,0.000000,0.000000,10799.070925
1540.741444,-153.178311,-153.178311,10799.070925
1540.741745,-153.178311,0.000000,11105.427547
1540.742045,0.000000,0.000000,11105.427547
1540.742345,-153.178311,76.589155,10799.070925
1540.742648,-306.356622,229.767466,10952.249236
1540.742952,-153.178311,382.945777,10722.481770
1540.743255,-153.178311,229.767466,10722.481770
1540.743559,229.767466,229.767466,11105.427547
1540.743862,76.589155,0.000000,10722.481770
1540.744166,76.589155,229.767466,10799.070925
1540.744469,-612.713244,-306.356622,10952.249236
1540.744773,76.589155,76.589155,10799.070925
1540.745076,-153.178311,76.589155,10799.070925
1540.745380,-153.178311,229.767466,10799.070925
1540.745683,0.000000,76.589155,10952.249236
1540.745987,76.589155,76.589155,11105.427547
1540.746290,76.589155,76.589155,10952.249236
1540.746594,0.000000,-153.178311,10952.249236
1540.746897,76.589155,0.000000,10799.070925
1540.747201,-153.178311,-306.356622,10952.249236
1540.747504,-306.356622,76.589155,10952.249236
1540.747807,-306.356622,0.000000,10952.249236
1540.748111,0.000000,76.589155,10799.070925
1540.748415,-153.178311,0.000000,10952.249236
1540.748718,0.000000,76.589155,10952.249236
1540.749022,0.000000,76.589155,10799.070925
1540.749325,0.000000,229.767466,11105.427547
1540.749629,76.589155,76.589155,10799.070925
1540.749932,0.000000,229.767466,10952.249236
1540.750235,-153.178311,229.767466,10799.070925
1540.750539,229.767466,76.589155,10799.070925
1540.750842,76.589155,76.589155,10952.249236
1540.751146,76.589155,76.589155,10799.070925
1540.751449,0.000000,0.000000,11105.427547
1540.751753,76.589155,-153.178311,11105.427547
1540.752056,-306.356622,-306.356622,10799.070925
1540.752360,-153.178311,229.767466,10952.249236
1540.752664,-153.178311,76.589155,10799.070925
1540.752967,-306.356622,229.767466,10799.070925
1540.753271,0.000000,0.000000,10722.481770
1540.753574,229.767466,76.589155,10952.249236
1540.753877,0.000000,229.767466,10799.070925
1540.754181,0.000000,0.000000,10952.249236
1540.754484,-153.178311,0.000000,10952.249236
1540.754800,-153.178311,229.767466,10799.070925
1540.755101,-306.356622,0.000000,10799.070925
1540.755403,-306.356622,76.589155,10722.481770
1540.755705,229.767466,229.767466,10799.070925
1540.756007,-153.178311,0.000000,10799.070925
1540.756308,0.000000,76.589155,11105.427547
1540.756610,76.589155,0.000000,10799.070925
1540.756912,229.767466,76.589155,10799.070925
1540.757215,-153.178311,0.000000,10799.070925
1540.757519,-153.178311,0.000000,10952.249236
1540.757822,76.589155,-153.178311,11105.427547
1540.758126,0.000000,229.767466,10952.249236
1540.758429,-306.356622,0.000000,10722.481770
1540.758733,229.767466,76.589155,10799.070925
1540.759037,0.000000,76.589155,11105.427547
1540.759340,0.000000,76.589155,10952.249236
1540.759649,-306.356622,0.000000,10952.249236
1540.759952,-306.356622,0.000000,10799.070925
1540.760255,76.589155,76.589155,10799.070925
1540.760557,-306.356622,76.589155,10799.070925
1540.760860,-153.178311,0.000000,11105.427547
1540.761163,0.000000,76.589155,10952.249236
1540.761465,382.945777,229.767466,10799.070925
1540.761768,-153.178311,0.000000,10799.070925
1540.762071,76.589155,76.589155,10722.481770
1540.762374,-153.178311,-153.178311,10799.070925
1540.762678,76.589155,76.589155,10952.249236
1540.762982,0.000000,229.767466,10799.070925
1540.763285,0.000000,76.589155,10952.249236
1540.763589,76.589155,229.767466,10952.249236
1540.763892,76.589155,229.767466,10722.481770
1540.764196,0.000000,76.589155,10952.249236
1540.764499,76.589155,0.000000,10799.070925
1540.764802,76.589155,0.000000,10799.070925
1540.765106,-306.356622,-153.178311,10952.249236
1540.765410,-306.356622,229.767466,10799.070925
1540.765713,-459.534933,-153.178311,10952.249236
1540.766017,76.589155,76.589155,10799.070925
1540.766320,-153.178311,76.589155,10799.070925
1540.766624,-459.534933,76.589155,10722.481770
1540.766927,-153.178311,0.000000,11105.427547
1540.767230,-306.356622,76.589155,10952.249236
1540.767534,-153.178311,0.000000,11105.427547
1540.767837,0.000000,0.000000,10952.249236
1540.768141,0.000000,76.589155,10799.070925
1540.768444,76.589155,0.000000,11258.605858
1540.768748,229.767466,76.589155,10799.070925
1540.769051,76.589155,-153.178311,10799.070925
1540.769360,-153.178311,0.000000,10952.249236
1540.769663,229.767466,229.767466,10799.070925
1540.769966,-153.178311,-153.178311,10952.249236
1540.770269,0.000000,76.589155,10799.070925
1540.770571,0.000000,229.767466,10722.481770
1540.770874,0.000000,229.767466,10952.249236
1540.771177,0.000000,-153.178311,10952.249236
1540.771480,-153.178311,0.000000,10722.481770
1540.771797,-153.178311,-306.356622,10799.070925
1540.772098,0.000000,0.000000,10799.070925
1540.772400,-306.356622,0.000000,10799.070925
1540.772701,-306.356622,0.000000,10952.249236
1540.773003,-306.356622,76.589155,10799.070925
1540.773305,0.000000,76.589155,10952.249236
1540.773606,76.589155,229.767466,11105.427547
1540.773908,-306.356622,229.767466,11258.605858
1540.774215,382.945777,76.589155,11105.427547
1540.774518,-306.356622,76.589155,11105.427547
1540.774821,76.589155,76.589155,10952.249236
1540.775124,-153.178311,-153.178311,10799.070925
1540.775427,229.767466,229.767466,10799.070925
1540.775730,-153.178311,0.000000,10722.481770
1540.776033,0.000000,229.767466,10722.481770
1540.776336,0.000000,76.589155,10952.249236
1540.776645,229.767466,229.767466,10952.249236
1540.776947,0.000000,76.589155,10799.070925
1540.777250,0.000000,76.589155,10799.070925
1540.777553,76.589155,-153.178311,10722.481770
1540.777855,0.000000,-153.178311,10799.070925
1540.778158,-153.178311,76.589155,10799.070925
1540.778461,0.000000,0.000000,10799.070925
1540.778763,-153.178311,0.000000,10722.481770
1540.779085,-153.178311,76.589155,10722.481770
1540.779386,0.000000,76.589155,10799.070925
1540.779687,-153.178311,0.000000,10722.481770
1540.779988,-153.178311,229.767466,10952.249236
1540.780288,76.589155,76.589155,10952.249236
1540.780589,-153.178311,0.000000,10799.070925
1540.780890,-153.178311,0.000000,10952.249236
1540.781191,76.589155,76.589155,10799.070925
1540.781494,0.000000,76.589155,10952.249236
1540.781798,229.767466,76.589155,10799.070925
1540.782101,76.589155,76.589155,10799.070925
1540.782405,76.589155,229.767466,10952.249236
1540.782708,0.000000,229.767466,10952.249236
1540.783012,-153.178311,229.767466,10952.249236
1540.783316,76.589155,-153.178311,10722.481770
1540.783619,-306.356622,229.767466,10952.249236
1540.783922,-153.178311,76.589155,10952.249236
1540.784226,-153.178311,-153.178311,11105.427547
1540.784529,-306.356622,76.589155,10722.481770
1540.784833,0.000000,76.589155,10799.070925
1540.785136,76.589155,0.000000,10799.070925
1540.785440,0.000000,229.767466,10952.249236
1540.785743,-459.534933,-153.178311,10952.249236
1540.786047,-153.178311,76.589155,10952.249236
1540.786352,76.589155,76.589155,10799.070925
1540.786655,-153.178311,0.000000,10799.070925
1540.786958,-153.178311,229.767466,10952.249236
1540.787262,229.767466,76.589155,10952.249236
1540.787565,0.000000,382.945777,10722.481770
1540.787868,76.589155,229.767466,10952.249236
1540.788172,0.000000,76.589155,10799.070925
1540.788475,229.767466,229.767466,10952.249236
1540.788792,0.000000,76.589155,10952.249236
1540.789093,0.000000,76.589155,10952.249236
1540.789395,-153.178311,0.000000,11105.427547
1540.789696,0.000000,0.000000,10799.070925
1540.789998,0.000000,-153.178311,10952.249236
1540.790300,-153.178311,76.589155,10952.249236
1540.790601,-306.356622,76.589155,10722.481770
1540.790903,0.000000,-306.356622,10952.249236
1540.791210,76.589155,229.767466,10952.249236
1540.791513,-153.178311,-153.178311,10799.070925
1540.791816,-306.356622,-153.178311,10799.070925
1540.792119,229.767466,76.589155,10799.070925
1540.792422,-153.178311,0.000000,10952.249236
1540.792725,-306.356622,0.000000,10799.070925
1540.793028,76.589155,76.589155,10799.070925
1540.793331,0.000000,-153.178311,11105.427547
1540.793640,0.000000,382.945777,10799.070925
1540.793942,-153.178311,229.767466,10799.070925
1540.794245,76.589155,229.767466,10799.070925
1540.794548,0.000000,382.945777,10799.070925
1540.794850,0.000000,76.589155,10722.481770
1540.795153,0.000000,0.000000,10799.070925
1540.795456,0.000000,229.767466,10799.070925
1540.795758,76.589155,0.000000,10952.249236
1540.796061,0.000000,76.589155,10799.070925
1540.796365,-153.178311,76.589155,10952.249236
1540.796668,-306.356622,0.000000,10799.070925
1540.796972,-306.356622,0.000000,10722.481770
1540.797276,-153.178311,0.000000,10952.249236
1540.797579,-306.356622,229.767466,10799.070925
1540.797883,-153.178311,76.589155,10952.249236
1540.798186,-153.178311,-153.178311,10952.249236
1540.798492,76.589155,76.589155,11105.427547
1540.798795,0.000000,-153.178311,10952.249236
1540.799098,0.000000,0.000000,10952.249236
1540.799401,-306.356622,76.589155,10952.249236
1540.799704,76.589155,0.000000,10952.249236
1540.800008,76.589155,76.589155,11105.427547
1540.800311,76.589155,536.124088,10952.249236
1540.800614,-153.178311,76.589155,10799.070925
1540.800918,0.000000,229.767466,10799.070925
1540.801221,76.589155,0.000000,10799.070925
1540.801525,0.000000,-153.178311,10952.249236
1540.801828,0.000000,-153.178311,10952.249236
1540.802132,0.000000,0.000000,10799.070925
1540.802435,-306.356622,76.589155,10952.249236
1540.802739,-306.356622,229.767466,10799.070925
1540.803042,0.000000,536.124088,10799.070925
1540.803348,-306.356622,76.589155,10799.070925
1540.803651,0.000000,229.767466,10952.249236
1540.803954,-306.356622,-153.178311,10799.070925
1540.804257,-306.356622,0.000000,11258.605858
1540.804560,-306.356622,0.000000,10799.070925
1540.804864,0.000000,229.767466,10799.070925
1540.805167,-153.178311,76.589155,10952.249236
1540.805470,-153.178311,229.767466,10722.481770
1540.805787,76.589155,0.000000,10799.070925
1540.806088,76.589155,76.589155,10722.481770
1540.806390,-153.178311,0.000000,10799.070925
1540.806692,-153.178311,76.589155,10952.249236
1540.806993,229.767466,0.000000,10722.481770
1540.807295,76.589155,-306.356622,10952.249236
1540.807596,-306.356622,76.589155,10799.070925
1540.807898,0.000000,76.589155,10799.070925
1540.808217,76.589155,0.000000,10952.249236
1540.808518,0.000000,229.767466,10722.481770
1540.808819,-153.178311,0.000000,10952.249236
1540.809121,-153.178311,0.000000,10952.249236
1540.809422,-153.178311,0.000000,10722.481770
1540.809723,-306.356622,-153.178311,10952.249236
1540.810025,-306.356622,76.589155,10799.070925
1540.810326,76.589155,0.000000,10722.481770
1540.810629,-153.178311,0.000000,10799.070925
1540.810933,0.000000,76.589155,10799.070925
1540.811236,0.000000,-153.178311,10952.249236
1540.811540,229.767466,76.589155,11105.427547
1540.811843,0.000000,0.000000,10569.303459
1540.812147,0.000000,76.589155,10952.249236
1540.812450,0.000000,229.767466,10799.070925
1540.812754,76.589155,229.767466,10799.070925
1540.813057,0.000000,76.589155,10952.249236
1540.813360,76.589155,76.589155,10952.249236
1540.813664,229.767466,0.000000,10799.070925
1540.813967,0.000000,-306.356622,10722.481770
1540.814271,-153.178311,76.589155,10799.070925
1540.814574,-153.178311,0.000000,10952.249236
1540.814878,76.589155,229.767466,10952.249236
1540.815182,76.589155,229.767466,10799.070925
1540.815487,-153.178311,76.589155,11105.427547
1540.815790,-153.178311,0.000000,10952.249236
1540.816093,76.589155,-153.178311,11105.427547
1540.816397,0.000000,-306.356622,10722.481770
1540.816700,-306.356622,-153.178311,10952.249236
1540.817003,0.000000,-153.178311,10952.249236
1540.817306,76.589155,76.589155,10952.249236
1540.817609,0.000000,382.945777,11105.427547
1540.817912,0.000000,76.589155,10799.070925
1540.818216,-153.178311,229.767466,10722.481770
1540.818520,76.589155,382.945777,10952.249236
1540.818823,-153.178311,0.000000,10799.070925
1540.819127,-153.178311,229.767466,10799.070925
1540.819430,0.000000,0.000000,10799.070925
1540.819734,76.589155,229.767466,10952.249236
1540.820037,-306.356622,0.000000,10952.249236
1540.820340,-306.356622,76.589155,10952.249236
1540.820644,382.945777,229.767466,10569.303459
1540.820947,76.589155,229.767466,10799.070925
1540.821251,-306.356622,229.767466,10799.070925
1540.821555,-306.356622,76.589155,10799.070925
1540.821858,0.000000,76.589155,11105.427547
1540.822162,-153.178311,-153.178311,10722.481770
1540.822465,-459.534933,-153.178311,10952.249236
1540.822788,-153.178311,0.000000,10722.481770
1540.823088,-306.356622,-153.178311,10952.249236
1540.823389,0.000000,76.589155,11105.427547
1540.823690,0.000000,-153.178311,10722.481770
1540.823991,0.000000,76.589155,10799.070925
1540.824292,-153.178311,-153.178311,10952.249236
1540.824592,76.589155,76.589155,10952.249236
1540.824893,0.000000,0.000000,10952.249236
1540.825212,76.589155,76.589155,10799.070925
1540.825513,76.589155,229.767466,10952.249236
1540.825815,76.589155,229.767466,10799.070925
1540.826116,-153.178311,76.589155,10799.070925
1540.826417,-153.178311,0.000000,10952.249236
1540.826719,229.767466,0.000000,10799.070925
1540.827020,229.767466,-153.178311,11105.427547
1540.827321,-153.178311,-153.178311,11105.427547
1540.827631,-306.356622,0.000000,10799.070925
1540.827934,-153.178311,229.767466,11105.427547
1540.828236,0.000000,229.767466,10799.070925
1540.828539,-459.534933,76.589155,10799.070925
1540.828841,-153.178311,0.000000,10952.249236
1540.829144,76.589155,0.000000,10952.249236
1540.829447,229.767466,-153.178311,10799.070925
1540.829749,-306.356622,-153.178311,10952.249236
1540.830053,0.000000,0.000000,10722.481770
1540.830356,76.589155,382.945777,10952.249236
1540.830659,229.767466,76.589155,10952.249236
1540.830963,-306.356622,229.767466,10952.249236
1540.831266,76.589155,76.589155,10952.249236
1540.831570,382.945777,76.589155,11105.427547
1540.831873,-306.356622,-306.356622,10799.070925
1540.832176,-153.178311,-153.178311,10952.249236
1540.832483,229.767466,76.589155,11105.427547
1540.832786,76.589155,229.767466,10952.249236
1540.833089,-306.356622,76.589155,10799.070925
1540.833392,0.000000,229.767466,10799.070925
1540.833695,76.589155,76.589155,10722.481770
1540.833999,0.000000,0.000000,10952.249236
1540.834302,-306.356622,-306.356622,10952.249236
1540.834605,0.000000,-153.178311,10799.070925
1540.834908,0.000000,-306.356622,10799.070925
1540.835211,-459.534933,229.767466,10952.249236
1540.835515,-306.356622,0.000000,10799.070925
1540.835819,-153.178311,229.767466,10799.070925
1540.836122,0.000000,382.945777,10722.481770
1540.836426,0.000000,0.000000,10799.070925
1540.836729,0.000000,-153.178311,10952.249236
1540.837033,-153.178311,229.767466,10799.070925
1540.837339,76.589155,0.000000,10952.249236
1540.837642,0.000000,229.767466,11105.427547
1540.837945,-306.356622,76.589155,10799.070925
1540.838249,76.589155,382.945777,10952.249236
1540.838552,76.589155,382.945777,10569.303459
1540.838855,229.767466,0.000000,10799.070925
1540.839158,76.589155,-153.178311,10799.070925
1540.839461,0.000000,-153.178311,10952.249236
1540.839772,76.589155,-153.178311,10952.249236
1540.840075,-153.178311,-153.178311,10952.249236
1540.840377,-306.356622,0.000000,10952.249236
1540.840679,-153.178311,0.000000,10799.070925
1540.840982,-153.178311,76.589155,10799.070925
1540.841284,229.767466,-153.178311,10952.249236
1540.841586,-306.356622,0.000000,10799.070925
1540.841889,0.000000,-153.178311,10799.070925
1540.842207,0.000000,-306.356622,11105.427547
1540.842509,-153.178311,76.589155,10952.249236
1540.842810,-306.356622,0.000000,10799.070925
1540.843111,-153.178311,76.589155,10952.249236
1540.843412,0.000000,229.767466,10799.070925
1540.843713,76.589155,76.589155,10952.249236
1540.844015,0.000000,229.767466,10799.070925
1540.844316,76.589155,0.000000,10952.249236
1540.844626,0.000000,0.000000,10952.249236
1540.844928,0.000000,76.589155,10952.249236
1540.845231,0.000000,0.000000,10952.249236
1540.845534,-306.356622,76.589155,10722.481770
1540.845836,76.589155,229.767466,10799.070925
1540.846139,-153.178311,-306.356622,10952.249236
1540.846442,229.767466,76.589155,10799.070925
1540.846744,-153.178311,-153.178311,11258.605858
1540.847047,0.000000,76.589155,11105.427547
1540.847351,0.000000,-153.178311,10799.070925
1540.847654,-153.178311,0.000000,10952.249236
1540.847958,-306.356622,76.589155,10569.303459
1540.848262,-153.178311,76.589155,10952.249236
1540.848565,0.000000,76.589155,10952.249236
1540.848869,-153.178311,76.589155,10799.070925
1540.849172,76.589155,0.000000,10952.249236
1540.849477,0.000000,0.000000,10952.249236
1540.849780,76.589155,0.000000,10569.303459
1540.850084,-306.356622,0.000000,10952.249236
1540.850387,-306.356622,382.945777,10722.481770
1540.850690,-153.178311,76.589155,10799.070925
1540.850993,76.589155,229.767466,11105.427547
1540.851297,76.589155,0.000000,11258.605858
1540.851600,76.589155,-306.356622,11105.427547
1540.851903,-153.178311,0.000000,10952.249236
1540.852206,382.945777,0.000000,11105.427547
1540.852510,-306.356622,0.000000,10952.249236
1540.852814,0.000000,382.945777,10722.481770
1540.853117,-306.356622,0.000000,10952.249236
1540.853421,-153.178311,76.589155,10952.249236
1540.853724,-153.178311,382.945777,10722.481770
1540.854028,76.589155,0.000000,10799.070925
1540.854334,0.000000,0.000000,10952.249236
1540.854637,-153.178311,0.000000,10569.303459
1540.854940,76.589155,76.589155,10799.070925
1540.855243,-459.534933,0.000000,10799.070925
1540.855546,-153.178311,76.589155,10799.070925
1540.855849,0.000000,0.000000,10722.481770
1540.856153,0.000000,76.589155,10799.070925
1540.856456,229.767466,0.000000,10722.481770
1540.856778,0.000000,229.767466,10952.249236
1540.857079,76.589155,0.000000,10799.070925
1540.857379,229.767466,76.589155,10799.070925
1540.857680,-153.178311,76.589155,10952.249236
1540.857981,0.000000,-153.178311,11105.427547
1540.858282,-153.178311,0.000000,10799.070925
1540.858583,76.589155,0.000000,10952.249236
1540.858883,0.000000,-306.356622,11105.427547
1540.859186,76.589155,76.589155,10952.249236
1540.859490,-306.356622,-153.178311,10952.249236
1540.859794,-153.178311,536.124088,10952.249236
1540.860097,-306.356622,0.000000,10952.249236
1540.860401,-153.178311,76.589155,10952.249236
1540.860704,0.000000,0.000000,10569.303459
1540.861008,-153.178311,0.000000,10952.249236
1540.861311,0.000000,76.589155,11105.427547
1540.861626,382.945777,229.767466,10952.249236
1540.861928,229.767466,-153.178311,10799.070925
1540.862230,0.000000,76.589155,10799.070925
1540.862532,-153.178311,229.767466,10799.070925
1540.862834,0.000000,76.589155,10952.249236
1540.863136,-153.178311,229.767466,10569.303459
1540.863438,76.589155,229.767466,10722.481770
1540.863739,-153.178311,0.000000,10722.481770
1540.864042,229.767466,229.767466,10952.249236
1540.864346,76.589155,76.589155,11105.427547
1540.864649,76.589155,76.589155,10952.249236
1540.864953,-153.178311,76.589155,10799.070925
1540.865257,-153.178311,76.589155,10952.249236
1540.865560,0.000000,0.000000,10799.070925
1540.865864,0.000000,0.000000,10799.070925
1540.866167,0.000000,-153.178311,11105.427547
1540.866473,0.000000,-153.178311,10799.070925
1540.866776,0.000000,0.000000,10799.070925
1540.867079,-306.356622,76.589155,10799.070925
1540.867382,0.000000,76.589155,10952.249236
1540.867685,0.000000,76.589155,10799.070925
1540.867989,0.000000,229.767466,10722.481770
1540.868292,76.589155,76.589155,10722.481770
1540.868595,76.589155,0.000000,11105.427547
1540.868898,76.589155,-153.178311,10952.249236
1540.869202,76.589155,76.589155,10952.249236
1540.869505,-306.356622,0.000000,10799.070925
1540.869809,0.000000,382.945777,10952.249236
1540.870112,0.000000,76.589155,10799.070925
1540.870416,0.000000,229.767466,10799.070925
1540.870720,-306.356622,0.000000,10722.481770
1540.871023,76.589155,0.000000,10952.249236
1540.871329,76.589155,76.589155,11105.427547
1540.871633,0.000000,229.767466,10952.249236
1540.871936,-306.356622,-306.356622,10952.249236
1540.872239,-153.178311,229.767466,10799.070925
1540.872542,-153.178311,382.945777,10722.481770
1540.872845,0.000000,76.589155,10799.070925
1540.873148,-306.356622,76.589155,10722.481770
1540.873451,229.767466,-153.178311,11105.427547
1540.873774,76.589155,-153.178311,11105.427547
1540.874074,-153.178311,-306.356622,10952.249236
1540.874375,-306.356622,-306.356622,11105.427547
1540.874676,76.589155,229.767466,10952.249236
1540.874977,-153.178311,229.767466,10722.481770
1540.875278,76.589155,76.589155,10952.249236
1540.875578,0.000000,76.589155,10722.481770
1540.875879,229.767466,0.000000,11105.427547
1540.876182,76.589155,0.000000,11258.605858
1540.876486,0.000000,0.000000,10952.249236
1540.876789,0.000000,0.000000,11105.427547
1540.877093,-153.178311,0.000000,10952.249236
1540.877396,-153.178311,229.767466,10952.249236
1540.877700,-153.178311,0.000000,10799.070925
1540.878003,-153.178311,382.945777,10799.070925
1540.878307,-306.356622,-153.178311,10952.249236
1540.878610,-306.356622,0.000000,10952.249236
1540.878913,-153.178311,-153.178311,11105.427547
1540.879217,-153.178311,-153.178311,11105.427547
1540.879521,-306.356622,0.000000,10799.070925
1540.879824,0.000000,76.589155,10799.070925
1540.880128,-153.178311,382.945777,10799.070925
1540.880431,76.589155,229.767466,10722.481770
1540.880735,0.000000,0.000000,10952.249236
1540.881038,76.589155,229.767466,10952.249236
1540.881342,229.767466,0.000000,10952.249236
1540.881645,76.589155,76.589155,10952.249236
1540.881949,-153.178311,0.000000,10722.481770
1540.882252,0.000000,382.945777,10952.249236
1540.882556,0.000000,229.767466,10799.070925
1540.882859,0.000000,76.589155,10952.249236
1540.883163,229.767466,-306.356622,10952.249236
1540.883468,0.000000,-153.178311,10799.070925
1540.883771,0.000000,-153.178311,10952.249236
1540.884074,0.000000,76.589155,10952.249236
1540.884378,-306.356622,0.000000,10799.070925
1540.884681,-153.178311,-153.178311,10799.070925
1540.884984,-153.178311,229.767466,10569.303459
1540.885287,-153.178311,76.589155,10799.070925
1540.885591,0.000000,-306.356622,10952.249236
1540.885894,76.589155,-153.178311,11105.427547
1540.886197,-153.178311,-306.356622,11258.605858
1540.886501,-153.178311,-153.178311,11105.427547
1540.886804,-153.178311,-153.178311,10952.249236
1540.887108,-153.178311,76.589155,10799.070925
1540.887411,-153.178311,536.124088,10799.070925
1540.887715,76.589155,382.945777,10799.070925
1540.888019,0.000000,382.945777,10952.249236
1540.888325,-153.178311,76.589155,10799.070925
1540.888628,229.767466,76.589155,10952.249236
1540.888931,0.000000,76.589155,10952.249236
1540.889234,229.767466,-153.178311,10799.070925
1540.889537,-306.356622,0.000000,11105.427547
1540.889840,-153.178311,382.945777,10799.070925
1540.890143,0.000000,382.945777,10952.249236
1540.890447,0.000000,76.589155,10799.070925
1540.890769,0.000000,0.000000,10952.249236
1540.891070,0.000000,-153.178311,11258.605858
1540.891371,76.589155,-153.178311,10952.249236
1540.891671,-306.356622,-153.178311,10952.249236
1540.891972,-153.178311,0.000000,10722.481770
1540.892273,-306.356622,0.000000,10952.249236
1540.892574,-153.178311,0.000000,10722.481770
1540.892874,-153.178311,0.000000,10799.070925
1540.893177,0.000000,76.589155,10952.249236
1540.893481,76.589155,76.589155,10952.249236
1540.893784,76.589155,76.589155,10799.070925
1540.894088,0.000000,76.589155,10799.070925
1540.894392,-306.356622,76.589155,10799.070925
1540.894695,-153.178311,382.945777,10799.070925
1540.894999,-153.178311,0.000000,10722.481770
1540.895302,76.589155,76.589155,10952.249236
1540.895618,0.000000,-153.178311,11105.427547
1540.895919,229.767466,0.000000,11258.605858
1540.896221,76.589155,-306.356622,10952.249236
1540.896523,-153.178311,0.000000,10952.249236
1540.896825,0.000000,76.589155,10952.249236
1540.897127,0.000000,229.767466,10799.070925
1540.897428,-306.356622,382.945777,10952.249236
1540.897730,-306.356622,76.589155,10722.481770
1540.898033,0.000000,229.767466,10569.303459
1540.898337,0.000000,0.000000,10952.249236
1540.898640,-153.178311,-306.356622,10799.070925
1540.898944,-459.534933,-153.178311,10952.249236
1540.899247,0.000000,229.767466,10952.249236
1540.899551,-153.178311,76.589155,10722.481770
1540.899854,0.000000,382.945777,10799.070925
1540.900158,-306.356622,76.589155,10952.249236
1540.900469,229.767466,76.589155,10952.249236
1540.900771,76.589155,0.000000,10952.249236
1540.901074,76.589155,0.000000,11105.427547
1540.901376,-153.178311,229.767466,10799.070925
1540.901679,76.589155,229.767466,10952.249236
1540.901981,76.589155,76.589155,10722.481770
1540.902283,-306.356622,229.767466,10799.070925
1540.902586,-306.356622,0.000000,10952.249236
1540.902889,382.945777,76.589155,11105.427547
1540.903193,76.589155,-306.356622,11105.427547
1540.903496,-153.178311,-153.178311,10952.249236
1540.903800,-306.356622,76.589155,10799.070925
1540.904103,0.000000,0.000000,10799.070925
1540.904407,-306.356622,-153.178311,10952.249236
1540.904710,-153.178311,536.124088,10722.481770
1540.905014,0.000000,0.000000,10799.070925
1540.905320,229.767466,229.767466,10799.070925
1540.905623,76.589155,76.589155,10952.249236
1540.905926,0.000000,-153.178311,11105.427547
1540.906229,0.000000,229.767466,10952.249236
1540.906532,0.000000,0.000000,10799.070925
1540.906835,0.000000,229.767466,10799.070925
1540.907139,-153.178311,382.945777,10952.249236
1540.907442,-153.178311,76.589155,10799.070925
1540.907745,0.000000,76.589155,10799.070925
1540.908048,76.589155,76.589155,10799.070925
1540.908352,0.000000,0.000000,11105.427547
1540.908655,-153.178311,0.000000,10799.070925
1540.908959,-153.178311,229.767466,11105.427547
1540.909262,0.000000,76.589155,10799.070925
1540.909566,-153.178311,76.589155,10722.481770
1540.909869,76.589155,76.589155,10952.249236
1540.910178,-306.356622,0.000000,10799.070925
1540.910481,0.000000,76.589155,10952.249236
1540.910783,-153.178311,-306.356622,10952.249236
1540.911086,-612.713244,0.000000,10952.249236
1540.911389,-153.178311,0.000000,10952.249236
1540.911692,-153.178311,76.589155,10799.070925
1540.911994,0.000000,76.589155,10722.481770
1540.912297,-306.356622,76.589155,10952.249236
1540.912607,0.000000,76.589155,10952.249236
1540.912909,76.589155,76.589155,10722.481770
1540.913212,382.945777,229.767466,10799.070925
1540.913515,0.000000,0.000000,10952.249236
1540.913817,0.000000,76.589155,10722.481770
1540.914120,0.000000,76.589155,10799.070925
1540.914422,76.589155,76.589155,10799.070925
1540.914725,0.000000,76.589155,10722.481770
1540.915028,0.000000,0.000000,10799.070925
1540.915331,0.000000,76.589155,10799.070925
1540.915635,76.589155,-153.178311,10722.481770
1540.915938,-153.178311,-153.178311,11258.605858
1540.916242,0.000000,0.000000,10799.070925
1540.916545,-306.356622,-306.356622,10952.249236
1540.916849,-153.178311,0.000000,10952.249236
1540.917152,-306.356622,0.000000,10799.070925
1540.917464,-306.356622,229.767466,10952.249236
1540.917766,-306.356622,-153.178311,10952.249236
1540.918069,229.767466,76.589155,10799.070925
1540.918371,76.589155,-306.356622,11105.427547
1540.918674,0.000000,0.000000,10952.249236
1540.918976,0.000000,0.000000,10952.249236
1540.919278,76.589155,229.767466,10952.249236
1540.919581,-459.534933,229.767466,10722.481770
1540.919884,0.000000,229.767466,10799.070925
1540.920187,0.000000,76.589155,10799.070925
1540.920491,229.767466,382.945777,10799.070925
1540.920795,-153.178311,-153.178311,11105.427547
1540.921098,0.000000,0.000000,10952.249236
1540.921402,229.767466,-153.178311,10952.249236
1540.921705,0.000000,76.589155,10799.070925
1540.922009,-612.713244,76.589155,10799.070925
1540.922312,-306.356622,0.000000,10952.249236
1540.922616,76.589155,76.589155,10799.070925
1540.922919,0.000000,0.000000,10952.249236
1540.923223,-153.178311,76.589155,10952.249236
1540.923526,0.000000,229.767466,10799.070925
1540.923830,0.000000,76.589155,10722.481770
1540.924133,-153.178311,229.767466,10569.303459
1540.924437,-459.534933,76.589155,10799.070925
1540.924740,76.589155,229.767466,10799.070925
1540.925043,382.945777,0.000000,10722.481770
1540.925347,0.000000,-153.178311,10952.249236
1540.925650,-153.178311,76.589155,11105.427547
1540.925954,76.589155,76.589155,10952.249236
1540.926257,229.767466,229.767466,10952.249236
1540.926561,-306.356622,382.945777,10799.070925
1540.926865,76.589155,229.767466,11105.427547
1540.927173,0.000000,229.767466,10722.481770
1540.927476,76.589155,0.000000,10799.070925
1540.927779,-306.356622,-306.356622,11105.427547
1540.928081,0.000000,76.589155,11105.427547
1540.928384,0.000000,-153.178311,10799.070925
1540.928687,-306.356622,76.589155,10952.249236
1540.928990,-765.891555,229.767466,10722.481770
1540.929293,229.767466,76.589155,10952.249236
1540.929608,0.000000,229.767466,10952.249236
1540.929910,-459.534933,0.000000,10722.481770
1540.930212,76.589155,0.000000,10799.070925
1540.930513,0.000000,-306.356622,11105.427547
1540.930815,229.767466,0.000000,11258.605858
1540.931117,-306.356622,-153.178311,10952.249236
1540.931419,0.000000,536.124088,10722.481770
1540.931720,-153.178311,76.589155,10799.070925
1540.932024,229.767466,536.124088,10799.070925
1540.932327,-153.178311,0.000000,10799.070925
1540.932631,76.589155,76.589155,10952.249236
1540.932934,382.945777,-306.356622,10799.070925
1540.933238,-153.178311,-153.178311,10952.249236
1540.933541,-153.178311,0.000000,10952.249236
1540.933845,-153.178311,229.767466,10799.070925
1540.934148,0.000000,229.767466,10799.070925
1540.934464,-153.178311,0.000000,10952.249236
1540.934766,-306.356622,76.589155,10799.070925
1540.935067,-153.178311,0.000000,11105.427547
1540.935369,76.589155,0.000000,10952.249236
1540.935670,-306.356622,-459.534933,11105.427547
1540.935972,0.000000,-153.178311,11105.427547
1540.936274,76.589155,76.589155,10799.070925
1540.936575,-153.178311,0.000000,10799.070925
1540.936891,-153.178311,76.589155,11105.427547
1540.937192,76.589155,76.589155,10952.249236
1540.937494,76.589155,76.589155,10952.249236
1540.937796,0.000000,0.000000,10799.070925
1540.938098,0.000000,-153.178311,10952.249236
1540.938400,229.767466,76.589155,11105.427547
1540.938702,-306.356622,76.589155,10799.070925
1540.939004,-153.178311,382.945777,10569.303459
1540.939307,0.000000,229.767466,10569.303459
1540.939610,76.589155,229.767466,10799.070925
1540.939914,0.000000,0.000000,11105.427547
1540.940217,76.589155,76.589155,11258.605858
1540.940521,-153.178311,-153.178311,10952.249236
1540.940825,0.000000,0.000000,10799.070925
1540.941128,-459.534933,0.000000,10569.303459
1540.941432,-306.356622,229.767466,10722.481770
1540.941748,0.000000,229.767466,10799.070925
1540.942049,-153.178311,76.589155,10722.481770
1540.942351,-153.178311,-153.178311,10799.070925
1540.942653,0.000000,-153.178311,10952.249236
1540.942955,0.000000,-153.178311,11105.427547
1540.943256,-306.356622,-153.178311,10799.070925
1540.943558,-306.356622,229.767466,10799.070925
1540.943860,-153.178311,382.945777,10722.481770
1540.944163,0.000000,229.767466,10722.481770
1540.944466,76.589155,229.767466,10952.249236
1540.944770,-153.178311,76.589155,10799.070925
1540.945073,0.000000,0.000000,10952.249236
1540.945377,229.767466,-153.178311,10952.249236
1540.945680,-153.178311,-153.178311,11105.427547
1540.945984,-459.534933,76.589155,10952.249236
1540.946287,-306.356622,0.000000,10799.070925
1540.946607,0.000000,229.767466,10799.070925
1540.946908,0.000000,76.589155,10799.070925
1540.947209,0.000000,76.589155,10799.070925
1540.947510,0.000000,76.589155,10799.070925
1540.947812,0.000000,0.000000,10799.070925
1540.948113,-153.178311,-153.178311,10799.070925
1540.948414,-153.178311,0.000000,10799.070925
1540.948715,-306.356622,-153.178311,10799.070925
1540.949018,0.000000,229.767466,10952.249236
1540.949322,0.000000,76.589155,10799.070925
1540.949625,0.000000,76.589155,10722.481770
1540.949929,0.000000,-153.178311,11105.427547
1540.950232,229.767466,76.589155,10799.070925
1540.950536,76.589155,76.589155,10952.249236
1540.950840,0.000000,0.000000,10952.249236
1540.951143,-306.356622,0.000000,10722.481770
1540.951446,229.767466,229.767466,10569.303459
1540.951750,0.000000,76.589155,10799.070925
1540.952053,76.589155,229.767466,10799.070925
1540.952357,-153.178311,-153.178311,11105.427547
1540.952660,76.589155,76.589155,10952.249236
1540.952964,0.000000,-153.178311,10799.070925
1540.953267,0.000000,0.000000,10952.249236
1540.953571,-153.178311,76.589155,10952.249236
1540.953886,-306.356622,76.589155,10952.249236
1540.954188,76.589155,0.000000,10799.070925
1540.954490,0.000000,0.000000,11105.427547
1540.954792,-153.178311,0.000000,10799.070925
1540.955094,0.000000,76.589155,11105.427547
1540.955395,229.767466,76.589155,11105.427547
1540.955697,-153.178311,-153.178311,11105.427547
1540.955999,-153.178311,76.589155,10799.070925
1540.956302,-306.356622,-153.178311,10722.481770
1540.956606,0.000000,229.767466,10799.070925
1540.956909,-153.178311,-153.178311,11105.427547
1540.957213,76.589155,76.589155,10799.070925
1540.957516,229.767466,229.767466,10799.070925
1540.957820,76.589155,76.589155,11105.427547
1540.958123,76.589155,76.589155,10799.070925
1540.958427,-153.178311,382.945777,10722.481770
1540.958730,0.000000,76.589155,10952.249236
1540.959033,-153.178311,229.767466,10799.070925
1540.959337,-153.178311,76.589155,10952.249236
1540.959641,76.589155,76.589155,10952.249236
1540.959944,-153.178311,0.000000,10722.481770
1540.960248,-153.178311,0.000000,11105.427547
1540.960551,76.589155,0.000000,10799.070925
1540.960855,-153.178311,0.000000,10722.481770
1540.961158,-306.356622,76.589155,10799.070925
1540.961462,76.589155,76.589155,10952.249236
1540.961765,-153.178311,76.589155,10952.249236
1540.962069,0.000000,0.000000,10722.481770
1540.962372,-153.178311,-153.178311,10952.249236
1540.962676,-153.178311,76.589155,10952.249236
1540.962979,76.589155,229.767466,10952.249236
1540.963283,0.000000,76.589155,10952.249236
1540.963593,76.589155,0.000000,10952.249236
1540.963896,0.000000,0.000000,10722.481770
1540.964198,76.589155,229.767466,10799.070925
1540.964501,-153.178311,0.000000,10952.249236
1540.964803,76.589155,76.589155,10952.249236
1540.965106,0.000000,0.000000,10799.070925
1540.965408,-153.178311,229.767466,10799.070925
1540.965711,0.000000,0.000000,10799.070925
1540.966014,0.000000,76.589155,10799.070925
1540.966317,-153.178311,0.000000,11105.427547
1540.966621,-306.356622,-153.178311,10952.249236
1540.966924,-153.178311,-153.178311,10799.070925
1540.967228,-153.178311,0.000000,11105.427547
1540.967531,76.589155,76.589155,10952.249236
1540.967835,0.000000,76.589155,10799.070925
1540.968138,-153.178311,229.767466,10952.249236
1540.968442,-153.178311,76.589155,10569.303459
1540.968745,76.589155,76.589155,10799.070925
1540.969049,-153.178311,76.589155,10799.070925
1540.969352,229.767466,76.589155,11105.427547
1540.969655,0.000000,-153.178311,11105.427547
1540.969959,-153.178311,229.767466,10799.070925
1540.970262,229.767466,76.589155,10799.070925
1540.970566,0.000000,229.767466,11105.427547
1540.970878,76.589155,0.000000,10952.249236
1540.971180,76.589155,76.589155,11105.427547
1540.971482,-459.534933,76.589155,10952.249236
1540.971785,-153.178311,0.000000,10952.249236
1540.972087,0.000000,-306.356622,10952.249236
1540.972389,0.000000,0.000000,10799.070925
1540.972692,-306.356622,0.000000,10952.249236
1540.972994,-153.178311,76.589155,10952.249236
1540.973297,76.589155,76.589155,10952.249236
1540.973601,-153.178311,76.589155,10799.070925
1540.973904,-153.178311,76.589155,10799.070925
1540.974208,0.000000,76.589155,10569.303459
1540.974511,0.000000,76.589155,10952.249236
1540.974815,0.000000,0.000000,10799.070925
1540.975119,-459.534933,76.589155,10799.070925
1540.975422,-153.178311,0.000000,10799.070925
1540.975725,76.589155,382.945777,10799.070925
1540.976029,0.000000,76.589155,10799.070925
1540.976332,0.000000,76.589155,10799.070925
1540.976636,0.000000,76.589155,10722.481770
1540.976939,229.767466,0.000000,10799.070925
1540.977243,0.000000,-153.178311,11105.427547
1540.977546,-153.178311,229.767466,10952.249236
1540.977850,-306.356622,0.000000,10799.070925
1540.978153,76.589155,76.589155,10799.070925
1540.978456,-306.356622,76.589155,10952.249236
1540.978760,-459.534933,-153.178311,11105.427547
1540.979063,0.000000,0.000000,10952.249236
1540.979367,76.589155,-153.178311,10799.070925
1540.979670,0.000000,0.000000,11105.427547
1540.979974,-459.534933,76.589155,10952.249236
1540.980277,0.000000,76.589155,10799.070925
1540.980588,229.767466,76.589155,10722.481770
1540.980890,-306.356622,76.589155,10952.249236
1540.981193,-153.178311,0.000000,10799.070925
1540.981496,76.589155,229.767466,10952.249236
1540.981798,0.000000,-153.178311,10799.070925
1540.982101,-306.356622,-306.356622,11105.427547
1540.982403,0.000000,76.589155,10722.481770
1540.982706,76.589155,0.000000,11258.605858
1540.983009,76.589155,229.767466,10799.070925
1540.983313,0.000000,229.767466,10722.481770
1540.983616,0.000000,0.000000,10952.249236
1540.983920,-153.178311,76.589155,10722.481770
1540.984223,-153.178311,0.000000,10952.249236
1540.984527,-306.356622,0.000000,10952.249236
1540.984830,76.589155,-153.178311,11105.427547
1540.985134,-153.178311,76.589155,10952.249236
1540.985438,0.000000,0.000000,10722.481770
1540.985742,-153.178311,76.589155,10952.249236
1540.986045,0.000000,0.000000,10722.481770
1540.986348,0.000000,76.589155,10952.249236
1540.986651,-153.178311,0.000000,10952.249236
1540.986955,229.767466,76.589155,10952.249236
1540.987258,-306.356622,0.000000,10952.249236
1540.987561,-153.178311,229.767466,10799.070925
1540.987873,76.589155,229.767466,10952.249236
1540.988175,-153.178311,229.767466,10952.249236
1540.988477,0.000000,0.000000,10799.070925
1540.988780,76.589155,76.589155,10952.249236
1540.989082,76.589155,0.000000,11105.427547
1540.989385,76.589155,76.589155,10952.249236
1540.989687,-153.178311,-153.178311,10799.070925
1540.989989,0.000000,229.767466,10799.070925
1540.990292,-153.178311,229.767466,10799.070925
1540.990596,-153.178311,76.589155,10722.481770
1540.990899,-153.178311,76.589155,10722.481770
1540.991203,-153.178311,-306.356622,10952.249236
1540.991506,76.589155,76.589155,10952.249236
1540.991810,0.000000,-306.356622,10952.249236
1540.992114,-153.178311,-153.178311,10952.249236
1540.992417,-306.356622,0.000000,10799.070925
1540.992720,0.000000,229.767466,10799.070925
1540.993024,-153.178311,76.589155,10722.481770
1540.993327,0.000000,382.945777,10722.481770
1540.993631,0.000000,76.589155,10799.070925
1540.993934,382.945777,229.767466,11105.427547
1540.994238,-153.178311,0.000000,10799.070925
1540.994541,-306.356622,-153.178311,10952.249236
1540.994845,0.000000,0.000000,10952.249236
1540.995148,76.589155,76.589155,10952.249236
1540.995451,-153.178311,0.000000,10952.249236
1540.995755,-306.356622,76.589155,10799.070925
1540.996058,76.589155,76.589155,11105.427547
1540.996362,382.945777,0.000000,10952.249236
1540.996665,-153.178311,0.000000,10952.249236
1540.996969,-306.356622,0.000000,10799.070925
1540.997273,-153.178311,76.589155,10952.249236
1540.997588,0.000000,229.767466,10799.070925
1540.997889,-612.713244,-153.178311,10799.070925
1540.998191,0.000000,0.000000,10952.249236
1540.998493,229.767466,0.000000,10799.070925
1540.998795,76.589155,0.000000,11105.427547
1540.999097,-153.178311,76.589155,10799.070925
1540.999398,0.000000,0.000000,10799.070925
1540.999700,76.589155,76.589155,10799.070925
1541.000003,-459.534933,229.767466,10799.070925
1541.000307,0.000000,0.000000,10722.481770
1541.000610,76.589155,76.589155,10799.070925
1541.000914,382.945777,76.589155,10952.249236
1541.001217,0.000000,-153.178311,11105.427547
1541.001521,-153.178311,0.000000,10952.249236
1541.001825,-153.178311,-306.356622,10952.249236
1541.002128,76.589155,0.000000,10952.249236
1541.002432,-153.178311,382.945777,10722.481770
1541.002736,-153.178311,229.767466,10799.070925
1541.003039,-306.356622,76.589155,10952.249236
1541.003342,229.767466,0.000000,10799.070925
1541.003645,229.767466,-153.178311,11258.605858
1541.003949,-306.356622,0.000000,10952.249236
1541.004252,-153.178311,0.000000,10952.249236
1541.004555,-306.356622,76.589155,10799.070925
1541.004861,0.000000,229.767466,10722.481770
1541.005164,0.000000,0.000000,11105.427547
1541.005467,-306.356622,0.000000,10952.249236
1541.005771,0.000000,-153.178311,10952.249236
1541.006074,76.589155,-306.356622,10952.249236
1541.006377,-153.178311,0.000000,10952.249236
1541.006681,0.000000,76.589155,11258.605858
1541.006984,0.000000,229.767466,10799.070925
1541.007310,0.000000,229.767466,10952.249236
1541.007610,-153.178311,229.767466,10799.070925
1541.007910,0.000000,229.767466,10799.070925
1541.008211,76.589155,0.000000,10799.070925
1541.008511,0.000000,0.000000,10952.249236
1541.008811,-306.356622,-153.178311,11105.427547
1541.009111,76.589155,229.767466,10799.070925
1541.009412,0.000000,76.589155,10799.070925
1541.009721,76.589155,229.767466,10952.249236
1541.010023,-153.178311,0.000000,10799.070925
1541.010326,-153.178311,76.589155,10722.481770
1541.010629,0.000000,76.589155,10799.070925
1541.010931,76.589155,-306.356622,10799.070925
1541.011234,-153.178311,-153.178311,11105.427547
1541.011537,-306.356622,0.000000,10799.070925
1541.011839,-153.178311,0.000000,10799.070925
1541.012142,-153.178311,229.767466,10799.070925
1541.012446,-306.356622,76.589155,10722.481770
1541.012749,0.000000,76.589155,10799.070925
1541.013053,76.589155,0.000000,10952.249236
1541.013357,76.589155,-306.356622,11105.427547
1541.013660,0.000000,0.000000,10952.249236
1541.013964,76.589155,76.589155,10952.249236
1541.014267,76.589155,76.589155,11105.427547
1541.014570,-153.178311,229.767466,10722.481770
1541.014874,-153.178311,382.945777,10722.481770
1541.015177,-153.178311,-153.178311,10799.070925
1541.015481,229.767466,0.000000,10799.070925
1541.015784,0.000000,-306.356622,11105.427547
1541.016088,0.000000,76.589155,11105.427547
1541.016392,0.000000,0.000000,10952.249236
1541.016695,-153.178311,382.945777,11105.427547
1541.016998,-459.534933,76.589155,10722.481770
1541.017302,-306.356622,229.767466,10799.070925
1541.017605,-153.178311,229.767466,10799.070925
1541.017909,-153.178311,0.000000,10799.070925
1541.018212,-153.178311,-306.356622,10952.249236
1541.018516,-306.356622,0.000000,10799.070925
1541.018819,0.000000,0.000000,10799.070925
1541.019122,0.000000,229.767466,10799.070925
1541.019426,-306.356622,229.767466,10722.481770
1541.019730,0.000000,382.945777,10799.070925
1541.020033,0.000000,76.589155,10569.303459
1541.020337,76.589155,0.000000,10799.070925
1541.020640,229.767466,0.000000,11258.605858
1541.020943,76.589155,-153.178311,10799.070925
1541.021247,-153.178311,0.000000,10952.249236
1541.021550,-153.178311,382.945777,10799.070925
1541.021868,229.767466,229.767466,10952.249236
1541.022169,-153.178311,229.767466,10952.249236
1541.022471,0.000000,229.767466,10952.249236
1541.022772,0.000000,-306.356622,10799.070925
1541.023074,229.767466,76.589155,10799.070925
1541.023376,76.589155,-459.534933,11105.427547
1541.023677,-153.178311,0.000000,11105.427547
1541.023979,-306.356622,76.589155,10952.249236
1541.024293,-459.534933,229.767466,10569.303459
1541.024595,0.000000,229.767466,10722.481770
1541.024897,0.000000,229.767466,10722.481770
1541.025199,-153.178311,0.000000,10722.481770
1541.025501,76.589155,76.589155,10952.249236
1541.025803,0.000000,-153.178311,10952.249236
1541.026105,76.589155,0.000000,10952.249236
1541.026407,0.000000,0.000000,10799.070925
1541.026716,-153.178311,229.767466,10952.249236
1541.027018,76.589155,382.945777,10799.070925
1541.027321,0.000000,76.589155,10799.070925
1541.027624,76.589155,76.589155,10722.481770
1541.027926,229.767466,-153.178311,11105.427547
1541.028229,229.767466,-153.178311,11105.427547
1541.028532,-153.178311,-306.356622,10952.249236
1541.028834,-153.178311,0.000000,10952.249236
1541.029137,-153.178311,76.589155,11105.427547
1541.029441,-153.178311,229.767466,10722.481770
1541.029744,-153.178311,229.767466,10799.070925
1541.030048,76.589155,76.589155,10799.070925
1541.030351,0.000000,-153.178311,10952.249236
1541.030655,76.589155,-153.178311,11105.427547
1541.030958,-153.178311,-306.356622,10952.249236
1541.031262,0.000000,76.589155,10799.070925
1541.031566,-306.356622,-153.178311,11105.427547
1541.031869,-306.356622,382.945777,10722.481770
1541.032173,0.000000,229.767466,10952.249236
1541.032476,76.589155,229.767466,10799.070925
1541.032779,76.589155,76.589155,10952.249236
1541.033083,76.589155,76.589155,11105.427547
1541.033386,0.000000,76.589155,10952.249236
1541.033690,-153.178311,76.589155,10952.249236
1541.033993,-306.356622,229.767466,10952.249236
1541.034297,0.000000,536.124088,10952.249236
1541.034600,-306.356622,382.945777,10569.303459
1541.034904,76.589155,76.589155,10799.070925
1541.035207,229.767466,0.000000,11105.427547
1541.035511,0.000000,-306.356622,10952.249236
1541.035814,0.000000,-306.356622,11105.427547
1541.036118,0.000000,-153.178311,10952.249236
1541.036427,-153.178311,-153.178311,10952.249236
1541.036729,-765.891555,76.589155,10722.481770
1541.037032,0.000000,229.767466,10722.481770
1541.037335,-153.178311,76.589155,10952.249236
1541.037638,0.000000,76.589155,10799.070925
1541.037940,229.767466,-306.356622,11105.427547
1541.038243,229.767466,-153.178311,11105.427547
1541.038546,-153.178311,-306.356622,10799.070925
1541.038862,-153.178311,0.000000,10952.249236
1541.039164,-153.178311,76.589155,10799.070925
1541.039466,76.589155,382.945777,10799.070925
1541.039767,-306.356622,229.767466,10722.481770
1541.040069,229.767466,382.945777,10952.249236
1541.040370,382.945777,76.589155,10799.070925
1541.040672,536.124088,-153.178311,10952.249236
1541.040973,-153.178311,-306.356622,10952.249236
1541.041292,-306.356622,0.000000,10799.070925
1541.041594,-153.178311,-153.178311,10722.481770
1541.041895,0.000000,76.589155,10799.070925
1541.042196,-306.356622,382.945777,10722.481770
1541.042497,-153.178311,76.589155,10722.481770
1541.042799,76.589155,76.589155,10952.249236
1541.043100,76.589155,-153.178311,10799.070925
1541.043401,76.589155,-153.178311,10952.249236
1541.043705,-306.356622,0.000000,10799.070925
1541.044008,-306.356622,0.000000,10799.070925
1541.044312,-306.356622,76.589155,10722.481770
1541.044615,76.589155,229.767466,10952.249236
1541.044919,76.589155,0.000000,10952.249236
1541.045222,0.000000,382.945777,10799.070925
1541.045526,76.589155,-306.356622,10952.249236
1541.045829,229.767466,76.589155,11105.427547
1541.046132,0.000000,76.589155,10799.070925
1541.046435,-153.178311,229.767466,10799.070925
1541.046739,-306.356622,229.767466,10722.481770
1541.047042,-153.178311,229.767466,10799.070925
1541.047346,-153.178311,0.000000,10722.481770
1541.047649,76.589155,0.000000,11105.427547
1541.047953,0.000000,-459.534933,11258.605858
1541.048256,0.000000,-306.356622,11411.784169
1541.048564,-153.178311,0.000000,10952.249236
1541.048867,-612.713244,-153.178311,10952.249236
1541.049170,-306.356622,229.767466,10799.070925
1541.049473,-459.534933,76.589155,10722.481770
1541.049776,0.000000,229.767466,10952.249236
1541.050079,-153.178311,76.589155,10799.070925
1541.050382,76.589155,0.000000,11258.605858
1541.050685,76.589155,0.000000,10952.249236
1541.050988,-153.178311,0.000000,10799.070925
1541.051291,-153.178311,0.000000,10722.481770
1541.051595,76.589155,229.767466,10799.070925
1541.051898,-153.178311,229.767466,10799.070925
1541.052202,0.000000,229.767466,10722.481770
1541.052506,76.589155,76.589155,11105.427547
1541.052809,536.124088,229.767466,11105.427547
1541.053113,-306.356622,-306.356622,10952.249236
1541.053416,-153.178311,229.767466,10799.070925
1541.053719,0.000000,0.000000,11105.427547
1541.054023,-306.356622,229.767466,10952.249236
1541.054326,-765.891555,76.589155,10799.070925
1541.054630,-153.178311,76.589155,11105.427547
1541.054933,0.000000,76.589155,10952.249236
1541.055237,0.000000,-153.178311,11105.427547
1541.055541,-153.178311,0.000000,10952.249236
1541.055858,0.000000,76.589155,10722.481770
1541.056159,229.767466,0.000000,10952.249236
1541.056461,-306.356622,76.589155,10952.249236
1541.056762,-153.178311,229.767466,10722.481770
1541.057063,76.589155,0.000000,10952.249236
1541.057365,229.767466,0.000000,10799.070925
1541.057666,0.000000,-153.178311,10722.481770
1541.057968,-153.178311,-153.178311,10952.249236
1541.058271,76.589155,229.767466,10952.249236
1541.058575,76.589155,0.000000,10952.249236
1541.058879,-153.178311,0.000000,10952.249236
1541.059182,0.000000,229.767466,10569.303459
1541.059486,0.000000,0.000000,10799.070925
1541.059789,76.589155,76.589155,10952.249236
1541.060093,-153.178311,-153.178311,10569.303459
1541.060397,0.000000,76.589155,11105.427547
1541.060700,0.000000,0.000000,10952.249236
1541.061003,-153.178311,-153.178311,10799.070925
1541.061307,-459.534933,0.000000,10952.249236
1541.061610,-306.356622,76.589155,10799.070925
1541.061914,-153.178311,-153.178311,10799.070925
1541.062217,-153.178311,0.000000,10799.070925
1541.062521,76.589155,0.000000,10799.070925
1541.062824,0.000000,0.000000,11105.427547
1541.063126,-153.178311,76.589155,10799.070925
1541.063430,76.589155,0.000000,10799.070925
1541.063734,0.000000,76.589155,10952.249236
1541.064037,0.000000,229.767466,10952.249236
1541.064341,0.000000,76.589155,10799.070925
1541.064645,229.767466,0.000000,10952.249236
1541.064948,229.767466,0.000000,11258.605858
1541.065252,76.589155,76.589155,11105.427547
1541.065558,0.000000,229.767466,10952.249236
1541.065861,0.000000,76.589155,10799.070925
1541.066164,-153.178311,0.000000,10799.070925
1541.066467,-306.356622,229.767466,10799.070925
1541.066770,-153.178311,76.589155,10799.070925
1541.067074,-153.178311,0.000000,10799.070925
1541.067377,0.000000,76.589155,10952.249236
1541.067680,229.767466,-153.178311,10799.070925
1541.067983,-153.178311,0.000000,10952.249236
1541.068286,-153.178311,0.000000,11105.427547
1541.068590,0.000000,76.589155,10799.070925
1541.068894,-306.356622,76.589155,10799.070925
1541.069197,-153.178311,229.767466,10799.070925
1541.069501,-306.356622,0.000000,10799.070925
1541.069804,76.589155,76.589155,10722.481770
1541.070108,0.000000,76.589155,10952.249236
1541.070411,229.767466,0.000000,10952.249236
1541.070714,76.589155,0.000000,10952.249236
1541.071018,0.000000,0.000000,10799.070925
1541.071321,-306.356622,76.589155,10722.481770
1541.071625,0.000000,229.767466,10799.070925
1541.071928,0.000000,-153.178311,10799.070925
1541.072232,229.767466,382.945777,10952.249236
1541.072535,0.000000,0.000000,10799.070925
1541.072852,229.767466,0.000000,10952.249236
1541.073154,0.000000,-153.178311,10799.070925
1541.073456,-153.178311,76.589155,10952.249236
1541.073757,-153.178311,-306.356622,10799.070925
1541.074059,76.589155,76.589155,10952.249236
1541.074360,0.000000,0.000000,10952.249236
1541.074662,-153.178311,76.589155,10952.249236
1541.074963,-153.178311,76.589155,10952.249236
1541.075282,229.767466,0.000000,11105.427547
1541.075583,-153.178311,0.000000,10952.249236
1541.075884,0.000000,0.000000,10952.249236
1541.076186,0.000000,0.000000,10799.070925
1541.076487,-153.178311,76.589155,10952.249236
1541.076788,-306.356622,76.589155,10799.070925
1541.077090,76.589155,76.589155,10799.070925
1541.077391,0.000000,229.767466,10722.481770
1541.077701,382.945777,76.589155,10799.070925
1541.078004,0.000000,0.000000,10952.249236
1541.078306,0.000000,76.589155,10952.249236
1541.078609,-153.178311,76.589155,10722.481770
1541.078911,0.000000,76.589155,10799.070925
1541.079214,0.000000,-153.178311,10799.070925
1541.079516,-153.178311,76.589155,10799.070925
1541.079819,-153.178311,76.589155,10799.070925
1541.080122,76.589155,0.000000,10799.070925
1541.080425,0.000000,-153.178311,10799.070925
1541.080729,-306.356622,0.000000,10952.249236
1541.081032,0.000000,76.589155,10952.249236
1541.081336,-153.178311,76.589155,10952.249236
1541.081639,-306.356622,-153.178311,10799.070925
1541.081943,76.589155,76.589155,10952.249236
1541.082247,0.000000,0.000000,10952.249236
1541.082552,0.000000,76.589155,10799.070925
1541.082855,0.000000,0.000000,10952.249236
1541.083159,-153.178311,-306.356622,11105.427547
1541.083462,76.589155,229.767466,11105.427547
1541.083765,-306.356622,-153.178311,10952.249236
1541.084068,-153.178311,536.124088,10952.249236
1541.084371,-153.178311,76.589155,10722.481770
1541.084675,76.589155,76.589155,10799.070925
1541.084978,0.000000,76.589155,10799.070925
1541.085282,76.589155,76.589155,10799.070925
1541.085585,-306.356622,0.000000,10799.070925
1541.085888,0.000000,0.000000,10722.481770
1541.086192,76.589155,76.589155,10952.249236
1541.086495,-306.356622,229.767466,10722.481770
1541.086799,0.000000,76.589155,10799.070925
1541.087102,0.000000,76.589155,10952.249236
1541.087405,76.589155,229.767466,10952.249236
1541.087709,0.000000,76.589155,10799.070925
1541.088012,-306.356622,0.000000,10952.249236
1541.088316,76.589155,0.000000,10799.070925
1541.088619,-153.178311,-153.178311,10799.070925
1541.088923,-153.178311,76.589155,10722.481770
1541.089227,-153.178311,0.000000,10722.481770
1541.089530,229.767466,76.589155,10799.070925
1541.089852,76.589155,76.589155,11105.427547
1541.090153,76.589155,76.589155,11105.427547
1541.090454,0.000000,0.000000,10952.249236
1541.090755,229.767466,0.000000,10952.249236
1541.091056,-153.178311,-153.178311,11258.605858
1541.091356,76.589155,229.767466,10952.249236
1541.091657,-153.178311,-306.356622,10799.070925
1541.091958,0.000000,76.589155,10799.070925
1541.092277,-153.178311,76.589155,10799.070925
1541.092578,0.000000,0.000000,10952.249236
1541.092879,76.589155,0.000000,10799.070925
1541.093180,0.000000,0.000000,10799.070925
1541.093481,0.000000,0.000000,10799.070925
1541.093783,0.000000,382.945777,10722.481770
1541.094084,-153.178311,76.589155,10722.481770
1541.094385,0.000000,0.000000,10799.070925
1541.094695,0.000000,229.767466,10722.481770
1541.094998,76.589155,-153.178311,10799.070925
1541.095300,-153.178311,76.589155,10799.070925
1541.095603,0.000000,76.589155,10799.070925
1541.095906,76.589155,76.589155,11105.427547
1541.096208,-153.178311,229.767466,10952.249236
1541.096511,0.000000,76.589155,10799.070925
1541.096813,-306.356622,-306.356622,10799.070925
1541.097117,229.767466,229.767466,10952.249236
1541.097420,76.589155,0.000000,10952.249236
1541.097724,0.000000,0.000000,10952.249236
1541.098027,-153.178311,0.000000,10722.481770
1541.098331,76.589155,0.000000,10799.070925
1541.098634,0.000000,0.000000,10799.070925
1541.098937,-306.356622,-153.178311,10799.070925
1541.099241,-153.178311,0.000000,10952.249236
1541.099551,0.000000,-153.178311,11258.605858
1541.099854,229.767466,76.589155,10799.070925
1541.100156,-153.178311,76.589155,10952.249236
1541.100459,0.000000,76.589155,10799.070925
1541.100761,0.000000,76.589155,10799.070925
1541.101064,-153.178311,229.767466,11105.427547
1541.101367,-153.178311,229.767466,10722.481770
1541.101669,-153.178311,-153.178311,10799.070925
1541.101972,-153.178311,-153.178311,10952.249236
1541.102276,76.589155,76.589155,10952.249236
1541.102579,0.000000,76.589155,10952.249236
1541.102883,-153.178311,229.767466,10722.481770
1541.103186,-153.178311,382.945777,10799.070925
1541.103490,76.589155,76.589155,10952.249236
1541.103793,0.000000,382.945777,10722.481770
1541.104097,-306.356622,-153.178311,10799.070925
1541.104404,-153.178311,-153.178311,10799.070925
1541.104707,229.767466,-153.178311,10952.249236
1541.105010,-306.356622,0.000000,10952.249236
1541.105313,-306.356622,229.767466,10952.249236
1541.105616,0.000000,0.000000,10799.070925
1541.105919,76.589155,76.589155,10952.249236
1541.106222,-306.356622,76.589155,10799.070925
1541.106525,76.589155,76.589155,10952.249236
1541.106836,76.589155,-306.356622,11105.427547
1541.107138,76.589155,-153.178311,10952.249236
1541.107441,-306.356622,0.000000,11105.427547
1541.107743,0.000000,382.945777,10722.481770
1541.108045,-153.178311,76.589155,10799.070925
1541.108348,-153.178311,0.000000,10952.249236
1541.108650,-153.178311,382.945777,10569.303459
1541.108953,76.589155,0.000000,10799.070925
1541.109271,76.589155,76.589155,10952.249236
1541.109573,0.000000,-153.178311,11105.427547
1541.109874,0.000000,-306.356622,10952.249236
1541.110175,76.589155,-153.178311,10799.070925
1541.110476,0.000000,76.589155,10799.070925
1541.110777,-306.356622,76.589155,10799.070925
1541.111079,0.000000,229.767466,10799.070925
1541.111380,229.767466,76.589155,10952.249236
1541.111692,76.589155,0.000000,10952.249236
1541.111995,-306.356622,-306.356622,11105.427547
1541.112297,-306.356622,0.000000,10952.249236
1541.112599,76.589155,76.589155,10952.249236
1541.112901,76.589155,382.945777,10952.249236
1541.113204,-459.534933,76.589155,10952.249236
1541.113506,76.589155,382.945777,11105.427547
1541.113808,229.767466,0.000000,10952.249236
1541.114111,-153.178311,76.589155,10952.249236
1541.114415,-153.178311,-153.178311,11258.605858
1541.114718,76.589155,0.000000,11105.427547
1541.115022,-153.178311,76.589155,10952.249236
1541.115325,-612.713244,76.589155,10799.070925
1541.115629,-153.178311,229.767466,10722.481770
1541.115933,382.945777,382.945777,10952.249236
1541.116236,229.767466,0.000000,11105.427547
1541.116541,0.000000,0.000000,10799.070925
1541.116844,-153.178311,-153.178311,10952.249236
1541.117148,0.000000,-153.178311,11105.427547
1541.117451,-306.356622,-153.178311,10952.249236
1541.117754,-153.178311,229.767466,10722.481770
1541.118057,-153.178311,0.000000,10799.070925
1541.118361,0.000000,229.767466,10799.070925
1541.118664,0.000000,229.767466,10952.249236
1541.118967,0.000000,0.000000,10952.249236
1541.119270,76.589155,76.589155,10799.070925
1541.119574,0.000000,-459.534933,10799.070925
1541.119878,-153.178311,229.767466,10799.070925
1541.120181,-153.178311,0.000000,10722.481770
1541.120485,0.000000,229.767466,10722.481770
1541.120788,76.589155,76.589155,10722.481770
1541.121092,0.000000,0.000000,10569.303459
1541.121398,-153.178311,76.589155,10952.249236
1541.121701,-153.178311,0.000000,10952.249236
1541.122004,382.945777,0.000000,10799.070925
1541.122307,0.000000,-153.178311,10799.070925
1541.122610,0.000000,-153.178311,10722.481770
1541.122914,-153.178311,229.767466,10722.481770
1541.123217,0.000000,0.000000,10799.070925
1541.123520,76.589155,76.589155,10952.249236
1541.123842,-153.178311,0.000000,10952.249236
1541.124143,76.589155,76.589155,10952.249236
1541.124444,-153.178311,-153.178311,10952.249236
1541.124744,-153.178311,229.767466,10952.249236
1541.125045,-153.178311,-306.356622,11105.427547
1541.125346,0.000000,76.589155,10799.070925
1541.125647,-306.356622,-153.178311,10799.070925
1541.125948,-153.178311,76.589155,11105.427547
1541.126251,0.000000,0.000000,10952.249236
1541.126554,0.000000,76.589155,10952.249236
1541.126858,-153.178311,76.589155,10952.249236
1541.127161,-153.178311,76.589155,10952.249236
1541.127465,-153.178311,76.589155,10799.070925
1541.127768,-153.178311,76.589155,10722.481770
1541.128072,-153.178311,229.767466,10799.070925
1541.128375,229.767466,229.767466,10799.070925
1541.128691,76.589155,76.589155,10952.249236
1541.128992,0.000000,0.000000,10952.249236
1541.129294,76.589155,76.589155,11105.427547
1541.129596,0.000000,229.767466,10799.070925
1541.129898,-153.178311,229.767466,11105.427547
1541.130200,-153.178311,76.589155,10952.249236
1541.130501,0.000000,229.767466,10569.303459
1541.130803,76.589155,76.589155,10799.070925
1541.131106,-306.356622,76.589155,10799.070925
1541.131410,0.000000,0.000000,10799.070925
1541.131713,0.000000,76.589155,10799.070925
1541.132017,-153.178311,0.000000,11258.605858
1541.132320,0.000000,76.589155,11105.427547
1541.132624,-153.178311,0.000000,10952.249236
1541.132928,-153.178311,229.767466,10952.249236
1541.133231,-153.178311,229.767466,10722.481770
1541.133542,76.589155,229.767466,11105.427547
1541.133844,0.000000,76.589155,11105.427547
1541.134147,-153.178311,76.589155,10952.249236
1541.134449,0.000000,76.589155,10799.070925
1541.134752,0.000000,0.000000,10799.070925
1541.135054,-153.178311,-153.178311,10799.070925
1541.135356,-153.178311,0.000000,10799.070925
1541.135659,-153.178311,76.589155,11105.427547
1541.135962,229.767466,229.767466,10799.070925
1541.136266,0.000000,76.589155,10952.249236
1541.136569,229.767466,76.589155,10952.249236
1541.136873,-153.178311,-153.178311,10799.070925
1541.137176,76.589155,229.767466,10722.481770
1541.137480,0.000000,0.000000,10799.070925
1541.137783,-306.356622,-153.178311,10799.070925
1541.138087,0.000000,0.000000,10799.070925
1541.138393,-153.178311,-153.178311,10952.249236
1541.138696,-306.356622,0.000000,10799.070925
1541.138999,76.589155,76.589155,10799.070925
1541.139302,0.000000,229.767466,10722.481770
1541.139605,-153.178311,229.767466,10722.481770
1541.139908,0.000000,229.767466,10722.481770
1541.140211,76.589155,0.000000,10799.070925
1541.140514,0.000000,76.589155,10799.070925
1541.140837,0.000000,0.000000,10799.070925
1541.141138,76.589155,0.000000,10799.070925
1541.141438,0.000000,0.000000,10722.481770
1541.141739,76.589155,76.589155,11258.605858
1541.142040,76.589155,76.589155,10952.249236
1541.142341,0.000000,229.767466,10952.249236
1541.142642,-153.178311,0.000000,10799.070925
1541.142942,-153.178311,229.767466,10952.249236
1541.143256,-153.178311,-153.178311,10799.070925
1541.143558,0.000000,0.000000,10952.249236
1541.143860,-153.178311,76.589155,10952.249236
1541.144162,-153.178311,0.000000,11258.605858
1541.144464,-153.178311,229.767466,10799.070925
1541.144766,0.000000,0.000000,10952.249236
1541.145068,0.000000,0.000000,10952.249236
1541.145370,0.000000,0.000000,10722.481770
1541.145680,-306.356622,76.589155,11105.427547
1541.145982,0.000000,229.767466,10952.249236
1541.146285,76.589155,229.767466,10722.481770
1541.146588,-153.178311,0.000000,10952.249236
1541.146890,0.000000,76.589155,10952.249236
1541.147193,229.767466,76.589155,10799.070925
1541.147496,-306.356622,-153.178311,11105.427547
1541.147798,-153.178311,76.589155,10952.249236
1541.148101,0.000000,0.000000,10722.481770
1541.148404,-153.178311,76.589155,10722.481770
1541.148708,76.589155,229.767466,10799.070925
1541.149012,-306.356622,76.589155,10799.070925
1541.149315,0.000000,229.767466,10799.070925
1541.149619,-153.178311,0.000000,10799.070925
1541.149922,0.000000,76.589155,10952.249236
1541.150226,-153.178311,0.000000,10799.070925
1541.150537,-306.356622,0.000000,10952.249236
1541.150839,-153.178311,-153.178311,11105.427547
1541.151142,76.589155,76.589155,10952.249236
1541.151444,0.000000,0.000000,10799.070925
1541.151746,-153.178311,76.589155,10722.481770
1541.152049,-153.178311,76.589155,10952.249236
1541.152351,76.589155,0.000000,10952.249236
1541.152654,-153.178311,0.000000,10952.249236
1541.152957,76.589155,0.000000,10952.249236
1541.153260,0.000000,76.589155,10799.070925
1541.153564,76.589155,229.767466,10799.070925
1541.153867,-153.178311,0.000000,10799.070925
1541.154171,-153.178311,229.767466,10722.481770
1541.154474,229.767466,0.000000,10952.249236
1541.154778,229.767466,229.767466,10799.070925
1541.155082,-153.178311,76.589155,10952.249236
1541.155384,-153.178311,0.000000,10952.249236
1541.155688,229.767466,-153.178311,11105.427547
1541.155992,0.000000,0.000000,10799.070925
1541.156295,-612.713244,76.589155,10799.070925
1541.156599,76.589155,76.589155,11105.427547
1541.156902,-153.178311,0.000000,10952.249236
1541.157206,-153.178311,76.589155,10952.249236
1541.157510,0.000000,0.000000,10799.070925
1541.157831,0.000000,0.000000,11105.427547
1541.158132,76.589155,0.000000,11105.427547
1541.158433,0.000000,0.000000,10799.070925
1541.158734,-153.178311,76.589155,10952.249236
1541.159035,-153.178311,0.000000,10952.249236
1541.159335,0.000000,229.767466,10952.249236
1541.159636,-153.178311,229.767466,10799.070925
1541.159937,0.000000,229.767466,10799.070925
1541.160245,229.767466,0.000000,11105.427547
1541.160548,76.589155,0.000000,11105.427547
1541.160851,0.000000,0.000000,10952.249236
1541.161154,-306.356622,0.000000,10952.249236
1541.161456,76.589155,0.000000,10722.481770
1541.161759,0.000000,-153.178311,10952.249236
1541.162062,-153.178311,76.589155,11105.427547
1541.162365,-153.178311,229.767466,10799.070925
1541.162674,-153.178311,76.589155,10799.070925
1541.162977,229.767466,229.767466,10799.070925
1541.163279,-306.356622,76.589155,10952.249236
1541.163582,0.000000,0.000000,10799.070925
1541.163885,-153.178311,0.000000,10799.070925
1541.164187,0.000000,-153.178311,11105.427547
1541.164490,0.000000,76.589155,11105.427547
1541.164792,-306.356622,0.000000,10799.070925
1541.165095,-153.178311,229.767466,11105.427547
1541.165399,76.589155,76.589155,10722.481770
1541.165702,-153.178311,76.589155,10952.249236
1541.166006,0.000000,-153.178311,10952.249236
1541.166310,0.000000,229.767466,10799.070925
1541.166613,-153.178311,0.000000,10952.249236
1541.166917,0.000000,0.000000,10722.481770
1541.167220,-306.356622,-153.178311,10952.249236
1541.167531,0.000000,229.767466,11105.427547
1541.167834,0.000000,0.000000,11105.427547
1541.168136,-153.178311,-153.178311,10952.249236
1541.168439,0.000000,0.000000,10799.070925
1541.168741,0.000000,229.767466,10952.249236
1541.169043,-153.178311,229.767466,10952.249236
1541.169346,-153.178311,0.000000,10799.070925
1541.169648,0.000000,0.000000,11105.427547
1541.169951,0.000000,0.000000,10799.070925
1541.170255,-153.178311,76.589155,10722.481770
1541.170558,-153.178311,76.589155,10722.481770
1541.170862,0.000000,76.589155,10952.249236
1541.171166,-153.178311,76.589155,10952.249236
1541.171469,76.589155,76.589155,10722.481770
1541.171773,76.589155,0.000000,10799.070925
1541.172076,0.000000,0.000000,10952.249236
1541.172379,-306.356622,76.589155,10722.481770
1541.172683,229.767466,382.945777,10569.303459
1541.172986,0.000000,0.000000,10952.249236
1541.173290,-153.178311,0.000000,10799.070925
1541.173593,0.000000,0.000000,10799.070925
1541.173897,76.589155,0.000000,11105.427547
1541.174201,-306.356622,-153.178311,10952.249236
1541.174504,0.000000,76.589155,10952.249236
1541.174807,-153.178311,-306.356622,11105.427547
1541.175110,0.000000,229.767466,10722.481770
1541.175414,-153.178311,0.000000,10952.249236
1541.175718,0.000000,0.000000,10952.249236
1541.176021,-153.178311,0.000000,10799.070925
1541.176325,-153.178311,0.000000,10952.249236
1541.176628,0.000000,0.000000,11105.427547
1541.176932,0.000000,76.589155,10952.249236
1541.177240,-153.178311,-153.178311,10952.249236
1541.177543,-153.178311,76.589155,10799.070925
1541.177846,0.000000,229.767466,10799.070925
1541.178148,0.000000,0.000000,10799.070925
1541.178451,0.000000,76.589155,10799.070925
1541.178754,0.000000,0.000000,10952.249236
1541.179057,229.767466,229.767466,10799.070925
1541.179360,76.589155,0.000000,10722.481770
1541.179669,0.000000,229.767466,10799.070925
1541.179972,0.000000,76.589155,10952.249236
1541.180274,0.000000,229.767466,11105.427547
1541.180577,0.000000,76.589155,10722.481770
1541.180880,0.000000,76.589155,10799.070925
1541.181182,-153.178311,0.000000,10799.070925
1541.181485,229.767466,76.589155,10722.481770
1541.181788,-153.178311,-459.534933,10799.070925
1541.182090,0.000000,0.000000,10799.070925
1541.182394,-153.178311,0.000000,10952.249236
1541.182697,76.589155,76.589155,10799.070925
1541.183001,76.589155,76.589155,10952.249236
1541.183304,0.000000,229.767466,10952.249236
1541.183608,76.589155,0.000000,11105.427547
1541.183911,0.000000,0.000000,10952.249236
1541.184215,-306.356622,-153.178311,10952.249236
1541.184528,0.000000,0.000000,10952.249236
1541.184830,-153.178311,76.589155,10952.249236
1541.185132,-153.178311,0.000000,10799.070925
1541.185434,-153.178311,76.589155,10799.070925
1541.185736,0.000000,0.000000,10952.249236
1541.186038,0.000000,76.589155,10952.249236
1541.186340,-306.356622,76.589155,10799.070925
1541.186643,76.589155,76.589155,11258.605858
1541.186958,-306.356622,76.589155,10722.481770
1541.187260,0.000000,76.589155,10952.249236
1541.187561,0.000000,229.767466,10722.481770
1541.187863,76.589155,76.589155,10799.070925
1541.188165,0.000000,-153.178311,10952.249236
1541.188467,0.000000,76.589155,10952.249236
1541.188769,0.000000,0.000000,10722.481770
1541.189071,0.000000,229.767466,10722.481770
1541.189374,0.000000,0.000000,10952.249236
1541.189677,0.000000,76.589155,10722.481770
1541.189981,0.000000,0.000000,10799.070925
1541.190285,0.000000,0.000000,11105.427547
1541.190588,76.589155,0.000000,10799.070925
1541.190892,-306.356622,0.000000,10799.070925
1541.191195,-153.178311,229.767466,10799.070925
1541.191499,76.589155,229.767466,10799.070925
1541.191802,-306.356622,0.000000,10799.070925
1541.192105,-153.178311,0.000000,10952.249236
1541.192409,-306.356622,76.589155,10952.249236
1541.192712,229.767466,76.589155,10799.070925
1541.193016,-153.178311,-306.356622,10952.249236
1541.193319,-153.178311,0.000000,10952.249236
1541.193623,-153.178311,76.589155,10952.249236
1541.193927,0.000000,229.767466,10952.249236
1541.194230,-153.178311,76.589155,10952.249236
1541.194533,-153.178311,229.767466,10952.249236
1541.194837,76.589155,76.589155,10799.070925
1541.195140,0.000000,0.000000,10952.249236
1541.195444,-153.178311,76.589155,10952.249236
1541.195747,-153.178311,0.000000,10799.070925
1541.196050,-153.178311,76.589155,10952.249236
1541.196354,0.000000,76.589155,10952.249236
1541.196670,-153.178311,-153.178311,10799.070925
1541.196972,-153.178311,76.589155,10722.481770
1541.197274,0.000000,76.589155,10722.481770
1541.197575,76.589155,229.767466,10952.249236
1541.197877,-153.178311,76.589155,10952.249236
1541.198179,-306.356622,0.000000,10952.249236
1541.198481,0.000000,0.000000,10799.070925
1541.198782,76.589155,382.945777,10799.070925
1541.199086,0.000000,76.589155,10952.249236
1541.199389,-153.178311,229.767466,10722.481770
1541.199693,76.589155,0.000000,10799.070925
1541.199996,229.767466,0.000000,10799.070925
1541.200300,-459.534933,0.000000,10952.249236
1541.200603,0.000000,-153.178311,11105.427547
1541.200907,-153.178311,0.000000,10799.070925
1541.201210,0.000000,0.000000,10952.249236
1541.201516,-153.178311,0.000000,10952.249236
1541.201819,-306.356622,0.000000,10799.070925
1541.202122,76.589155,76.589155,11258.605858
1541.202425,-153.178311,-153.178311,10952.249236
1541.202728,-153.178311,229.767466,10799.070925
1541.203031,0.000000,0.000000,10952.249236
1541.203334,0.000000,229.767466,10952.249236
1541.203638,0.000000,0.000000,10952.249236
1541.203953,-153.178311,229.767466,10799.070925
1541.204255,229.767466,382.945777,10722.481770
1541.204557,-153.178311,76.589155,10952.249236
1541.204858,-306.356622,76.589155,10952.249236
1541.205160,76.589155,76.589155,10952.249236
1541.205462,0.000000,-153.178311,11105.427547
1541.205764,76.589155,76.589155,10799.070925
1541.206066,-153.178311,-153.178311,10952.249236
1541.206369,76.589155,229.767466,10799.070925
1541.206673,76.589155,229.767466,10799.070925
1541.206976,-153.178311,229.767466,10799.070925
1541.207280,-153.178311,0.000000,10799.070925
1541.207583,229.767466,0.000000,10799.070925
1541.207887,0.000000,-153.178311,10799.070925
1541.208190,-459.534933,0.000000,10799.070925
1541.208494,0.000000,0.000000,10799.070925
1541.208810,-153.178311,-153.178311,10799.070925
1541.209112,76.589155,76.589155,10722.481770
1541.209413,-153.178311,0.000000,10952.249236
1541.209715,-153.178311,0.000000,10799.070925
1541.210017,0.000000,0.000000,10952.249236
1541.210318,76.589155,0.000000,10952.249236
1541.210620,-306.356622,0.000000,11105.427547
1541.210922,-153.178311,229.767466,10952.249236
1541.211225,0.000000,76.589155,10952.249236
1541.211529,76.589155,229.767466,10799.070925
1541.211832,-306.356622,0.000000,10799.070925
1541.212136,0.000000,0.000000,10799.070925
1541.212439,229.767466,0.000000,11258.605858
1541.212743,76.589155,229.767466,10952.249236
1541.213046,-153.178311,0.000000,11105.427547
1541.213350,-153.178311,76.589155,10952.249236
1541.213660,76.589155,76.589155,10722.481770
1541.213963,0.000000,0.000000,10952.249236
1541.214265,-306.356622,-153.178311,10952.249236
1541.214568,76.589155,76.589155,10952.249236
1541.214870,76.589155,-306.356622,11105.427547
1541.215172,-153.178311,0.000000,11105.427547
1541.215475,-459.534933,-306.356622,11105.427547
1541.215777,-153.178311,-153.178311,11105.427547
1541.216080,-306.356622,76.589155,10799.070925
1541.216384,-153.178311,76.589155,10952.249236
1541.216688,-153.178311,382.945777,10799.070925
1541.216991,-153.178311,382.945777,10952.249236
1541.217295,229.767466,76.589155,11105.427547
1541.217598,-306.356622,689.302399,10799.070925
1541.217902,76.589155,536.124088,10952.249236
1541.218205,-153.178311,229.767466,11105.427547
1541.218508,229.767466,536.124088,11105.427547
1541.218812,229.767466,0.000000,10799.070925
1541.219115,0.000000,382.945777,10799.070925
1541.219419,229.767466,-153.178311,10952.249236
1541.219722,-153.178311,0.000000,11105.427547
1541.220026,-306.356622,76.589155,11105.427547
1541.220329,76.589155,-153.178311,10799.070925
1541.220633,-153.178311,-306.356622,10952.249236
1541.220952,0.000000,76.589155,10722.481770
1541.221253,-153.178311,-153.178311,10799.070925
1541.221555,0.000000,0.000000,10722.481770
1541.221856,0.000000,76.589155,10722.481770
1541.222157,0.000000,0.000000,10952.249236
1541.222459,-153.178311,229.767466,10799.070925
1541.222760,0.000000,76.589155,10799.070925
1541.223061,-153.178311,76.589155,10799.070925
1541.223364,-306.356622,0.000000,10799.070925
1541.223668,-153.178311,0.000000,10722.481770
1541.223971,76.589155,0.000000,10799.070925
1541.224275,-459.534933,-459.534933,10799.070925
1541.224578,0.000000,0.000000,10799.070925
1541.224882,-153.178311,-306.356622,10722.481770
1541.225185,0.000000,76.589155,10799.070925
1541.225489,76.589155,-153.178311,10722.481770
1541.225792,76.589155,229.767466,10799.070925
1541.226095,0.000000,382.945777,10722.481770
1541.226399,76.589155,0.000000,10722.481770
1541.226703,0.000000,0.000000,10799.070925
1541.227006,-153.178311,229.767466,10952.249236
1541.227310,0.000000,229.767466,10722.481770
1541.227613,0.000000,0.000000,10952.249236
1541.227917,-306.356622,76.589155,10722.481770
1541.228220,-459.534933,0.000000,10799.070925
1541.228523,0.000000,0.000000,10952.249236
1541.228827,-306.356622,-306.356622,10799.070925
1541.229130,76.589155,76.589155,10722.481770
1541.229434,0.000000,-306.356622,10952.249236
1541.229737,0.000000,-153.178311,10799.070925
1541.230041,-153.178311,-459.534933,10952.249236
1541.230344,76.589155,0.000000,10952.249236
1541.230655,76.589155,0.000000,10952.249236
1541.230957,76.589155,0.000000,11105.427547
1541.231260,-153.178311,0.000000,11105.427547
1541.231562,76.589155,76.589155,10952.249236
1541.231865,0.000000,229.767466,10799.070925
1541.232168,76.589155,382.945777,10799.070925
1541.232470,-153.178311,229.767466,10952.249236
1541.232773,0.000000,536.124088,11105.427547
1541.233076,0.000000,229.767466,10799.070925
1541.233379,-153.178311,382.945777,10952.249236
1541.233683,-306.356622,229.767466,10952.249236
1541.233986,-153.178311,76.589155,10952.249236
1541.234290,0.000000,0.000000,10952.249236
1541.234593,0.000000,-306.356622,11105.427547
1541.234897,-153.178311,-459.534933,10952.249236
1541.235200,0.000000,76.589155,10799.070925
1541.235510,-153.178311,-612.713244,10952.249236
1541.235813,0.000000,-153.178311,10799.070925
1541.236115,-306.356622,-153.178311,10952.249236
1541.236418,76.589155,-306.356622,10952.249236
1541.236720,0.000000,0.000000,10799.070925
1541.237023,0.000000,229.767466,10799.070925
1541.237325,76.589155,536.124088,10799.070925
1541.237628,0.000000,382.945777,10722.481770
1541.237934,0.000000,689.302399,10799.070925
1541.238237,229.767466,382.945777,10799.070925
1541.238540,0.000000,536.124088,10569.303459
1541.238844,-153.178311,76.589155,10569.303459
1541.239147,0.000000,0.000000,10952.249236
1541.239450,-306.356622,0.000000,10722.481770
1541.239753,0.000000,0.000000,10722.481770
1541.240057,-459.534933,-612.713244,10952.249236
1541.240359,76.589155,-612.713244,11105.427547
1541.240663,0.000000,-765.891555,11105.427547
1541.240967,-306.356622,-306.356622,11105.427547
1541.241270,-153.178311,-153.178311,10799.070925
1541.241574,0.000000,76.589155,11258.605858
1541.241877,0.000000,382.945777,10799.070925
1541.242181,0.000000,536.124088,10722.481770
1541.242484,0.000000,382.945777,10799.070925
1541.242787,536.124088,536.124088,10722.481770
1541.243091,229.767466,76.589155,10722.481770
1541.243394,0.000000,382.945777,10952.249236
1541.243698,-306.356622,-306.356622,10722.481770
1541.244002,76.589155,0.000000,10799.070925
1541.244305,-459.534933,-612.713244,11105.427547
1541.244609,-459.534933,-306.356622,10952.249236
1541.244912,-306.356622,-459.534933,10722.481770
1541.245216,-459.534933,-153.178311,10799.070925
1541.245519,-459.534933,-459.534933,10799.070925
1541.245822,-612.713244,-153.178311,10952.249236
1541.246126,-153.178311,-306.356622,10799.070925
1541.246429,229.767466,229.767466,10722.481770
1541.246733,-153.178311,0.000000,10799.070925
1541.247036,76.589155,382.945777,10952.249236
1541.247340,0.000000,382.945777,10722.481770
1541.247648,229.767466,689.302399,10952.249236
1541.247951,0.000000,536.124088,10722.481770
1541.248253,76.589155,76.589155,10799.070925
1541.248556,229.767466,229.767466,11105.427547
1541.248859,229.767466,229.767466,10952.249236
1541.249162,382.945777,0.000000,11105.427547
1541.249465,-153.178311,-153.178311,10952.249236
1541.249768,0.000000,-459.534933,11105.427547
1541.250071,0.000000,-612.713244,11258.605858
1541.250374,-153.178311,0.000000,10952.249236
1541.250678,-153.178311,-459.534933,11258.605858
1541.250982,0.000000,0.000000,11105.427547
1541.251285,-153.178311,229.767466,10799.070925
1541.251589,-612.713244,76.589155,10952.249236
1541.251892,-612.713244,536.124088,10952.249236
1541.252196,229.767466,536.124088,10952.249236
1541.252500,0.000000,0.000000,11258.605858
1541.252803,-153.178311,382.945777,10952.249236
1541.253106,76.589155,76.589155,10952.249236
1541.253410,76.589155,229.767466,10952.249236
1541.253713,-153.178311,229.767466,10952.249236
1541.254016,-153.178311,382.945777,11258.605858
1541.254320,76.589155,229.767466,10799.070925
1541.254623,382.945777,382.945777,10722.481770
1541.254935,0.000000,-153.178311,10952.249236
1541.255237,-153.178311,0.000000,10799.070925
1541.255539,-306.356622,-765.891555,11105.427547
1541.255842,-153.178311,-459.534933,11105.427547
1541.256144,-306.356622,-459.534933,10799.070925
1541.256447,-306.356622,-459.534933,10952.249236
1541.256749,-153.178311,76.589155,10799.070925
1541.257051,0.000000,689.302399,10416.125148
1541.257366,-153.178311,689.302399,10569.303459
1541.257711,0.000000,689.302399,10416.125148
1541.258057,0.000000,76.589155,10799.070925
1541.258402,229.767466,76.589155,10722.481770
1541.258747,0.000000,-459.534933,10799.070925
1541.259092,0.000000,-306.356622,10952.249236
1541.259437,0.000000,-153.178311,10722.481770
1541.259783,-153.178311,-459.534933,10952.249236
1541.260085,0.000000,-153.178311,10799.070925
1541.260389,76.589155,0.000000,10952.249236
1541.260692,76.589155,0.000000,10722.481770
1541.260996,-306.356622,-153.178311,10799.070925
1541.261299,-612.713244,-612.713244,10952.249236
1541.261603,-153.178311,0.000000,10952.249236
1541.261906,76.589155,-153.178311,10952.249236
1541.262210,-306.356622,0.000000,10952.249236
1541.262517,76.589155,1148.837332,10569.303459
1541.262820,382.945777,842.480710,11105.427547
1541.263123,0.000000,536.124088,10722.481770
1541.263426,-153.178311,689.302399,11105.427547
1541.263729,76.589155,0.000000,11105.427547
1541.264032,382.945777,536.124088,10799.070925
1541.264335,-153.178311,-153.178311,10952.249236
1541.264638,-306.356622,-306.356622,11258.605858
1541.264944,-153.178311,0.000000,10799.070925
1541.265247,-153.178311,-459.534933,11258.605858
1541.265550,-459.534933,-459.534933,11105.427547
1541.265853,-153.178311,-306.356622,10952.249236
1541.266156,-153.178311,-306.356622,10952.249236
1541.266460,-153.178311,229.767466,10722.481770
1541.266763,-765.891555,-612.713244,11258.605858
1541.267066,-612.713244,-153.178311,11258.605858
1541.267369,-306.356622,382.945777,10799.070925
1541.267673,0.000000,382.945777,11105.427547
1541.267976,0.000000,842.480710,10799.070925
1541.268280,229.767466,1148.837332,10799.070925
1541.268583,76.589155,382.945777,11105.427547
1541.268887,0.000000,842.480710,10952.249236
1541.269190,382.945777,536.124088,10799.070925
1541.269494,382.945777,229.767466,11258.605858
1541.269797,382.945777,76.589155,10799.070925
1541.270100,0.000000,-153.178311,11258.605858
1541.270404,229.767466,0.000000,11105.427547
1541.270708,-153.178311,-459.534933,11258.605858
1541.271011,0.000000,-765.891555,11105.427547
1541.271315,-153.178311,-306.356622,11105.427547
1541.271618,76.589155,-153.178311,11105.427547
1541.271922,-306.356622,-459.534933,11258.605858
1541.272225,-765.891555,-153.178311,10722.481770
1541.272529,-919.069866,-459.534933,10952.249236
1541.272832,-612.713244,0.000000,10952.249236
1541.273136,-612.713244,536.124088,10416.125148
1541.273439,229.767466,842.480710,10722.481770
1541.273742,-306.356622,689.302399,10722.481770
1541.274046,76.589155,1148.837332,10569.303459
1541.274349,76.589155,229.767466,10799.070925
1541.274655,229.767466,382.945777,10722.481770
1541.274958,76.589155,0.000000,10799.070925
1541.275261,76.589155,76.589155,10952.249236
1541.275564,536.124088,382.945777,10952.249236
1541.275868,76.589155,0.000000,10799.070925
1541.276171,0.000000,-612.713244,10952.249236
1541.276474,0.000000,-306.356622,10952.249236
1541.276777,382.945777,-306.356622,10722.481770
1541.277080,-153.178311,-306.356622,10952.249236
1541.277384,-153.178311,-612.713244,10952.249236
1541.277688,-612.713244,-1225.426488,11258.605858
1541.277991,-612.713244,-306.356622,10952.249236
1541.278295,-612.713244,0.000000,10722.481770
1541.278598,-459.534933,382.945777,10722.481770
1541.278902,-153.178311,536.124088,10952.249236
1541.279205,0.000000,536.124088,10722.481770
1541.279508,-306.356622,689.302399,10722.481770
1541.279812,-153.178311,382.945777,10569.303459
1541.280115,76.589155,76.589155,10952.249236
1541.280419,76.589155,229.767466,10952.249236
1541.280722,229.767466,382.945777,10952.249236
1541.281026,0.000000,382.945777,10799.070925
1541.281329,76.589155,-153.178311,10952.249236
1541.281633,229.767466,0.000000,11258.605858
1541.281938,229.767466,76.589155,11105.427547
1541.282242,382.945777,229.767466,10722.481770
1541.282545,-153.178311,-306.356622,10952.249236
1541.282848,76.589155,-306.356622,11258.605858
1541.283151,-459.534933,-919.069866,11105.427547
1541.283455,-306.356622,-153.178311,10799.070925
1541.283758,-306.356622,382.945777,10722.481770
1541.284061,229.767466,536.124088,10952.249236
1541.284364,-306.356622,382.945777,10952.249236
1541.284668,-153.178311,689.302399,10799.070925
1541.284971,0.000000,229.767466,10799.070925
1541.285275,-459.534933,382.945777,10952.249236
1541.285578,-306.356622,229.767466,10799.070925
1541.285882,-612.713244,229.767466,10799.070925
1541.286185,76.589155,536.124088,10799.070925
1541.286489,0.000000,382.945777,10952.249236
1541.286792,-306.356622,-306.356622,11258.605858
1541.287095,0.000000,-153.178311,10799.070925
1541.287399,382.945777,76.589155,11105.427547
1541.287702,382.945777,-306.356622,11105.427547
1541.288006,0.000000,-765.891555,10952.249236
1541.288310,-153.178311,-919.069866,11411.784169
1541.288613,0.000000,-306.356622,10799.070925
1541.288917,-153.178311,-306.356622,10952.249236
1541.289220,229.767466,382.945777,10799.070925
1541.289524,229.767466,536.124088,10799.070925
1541.289827,76.589155,382.945777,10799.070925
1541.290131,0.000000,536.124088,10799.070925
1541.290434,-612.713244,382.945777,10952.249236
1541.290738,0.000000,382.945777,10722.481770
1541.291041,-153.178311,382.945777,10722.481770
1541.291344,-306.356622,76.589155,10799.070925
1541.291647,76.589155,689.302399,10569.303459
1541.291951,-306.356622,76.589155,10722.481770
1541.292254,-306.356622,0.000000,10799.070925
1541.292558,229.767466,76.589155,10799.070925
1541.292862,76.589155,-459.534933,11105.427547
1541.293165,0.000000,0.000000,10569.303459
1541.293469,0.000000,-459.534933,10799.070925
1541.293772,-459.534933,-1378.604799,11258.605858
1541.294075,-306.356622,-612.713244,10799.070925
1541.294379,76.589155,-306.356622,10799.070925
1541.294682,76.589155,382.945777,10722.481770
1541.294986,382.945777,229.767466,10799.070925
1541.295289,229.767466,76.589155,10952.249236
1541.295593,-153.178311,689.302399,10722.481770
1541.295896,-306.356622,382.945777,10416.125148
1541.296200,76.589155,76.589155,10799.070925
1541.296504,76.589155,76.589155,10952.249236
1541.296807,-153.178311,689.302399,10799.070925
1541.297110,-153.178311,382.945777,10722.481770
1541.297414,-153.178311,229.767466,10722.481770
1541.297717,-306.356622,-306.356622,11258.605858
1541.298021,-153.178311,76.589155,11258.605858
1541.298324,0.000000,0.000000,10952.249236
1541.298627,-306.356622,-153.178311,10722.481770
1541.298938,-306.356622,-765.891555,11105.427547
1541.299241,-459.534933,-1072.248177,11258.605858
1541.299543,0.000000,-459.534933,10799.070925
1541.299846,382.945777,0.000000,10722.481770
1541.300148,382.945777,76.589155,10952.249236
1541.300451,76.589155,382.945777,10952.249236
1541.300753,0.000000,76.589155,10799.070925
1541.301056,76.589155,842.480710,10799.070925
1541.301370,229.767466,536.124088,10722.481770
1541.301672,-153.178311,382.945777,10799.070925
1541.301974,-306.356622,536.124088,10722.481770
1541.302276,229.767466,689.302399,10799.070925
1541.302578,0.000000,536.124088,10722.481770
1541.302880,-612.713244,229.767466,10799.070925
1541.303182,-153.178311,-153.178311,11105.427547
1541.303483,229.767466,-153.178311,11411.784169
1541.303793,-153.178311,-306.356622,10952.249236
1541.304095,-306.356622,-612.713244,10952.249236
1541.304398,-612.713244,-1072.248177,11258.605858
1541.304701,0.000000,-459.534933,10952.249236
1541.305003,76.589155,-306.356622,10952.249236
1541.305306,0.000000,0.000000,10952.249236
1541.305609,536.124088,229.767466,10952.249236
1541.305911,229.767466,0.000000,11105.427547
1541.306214,0.000000,76.589155,10799.070925
1541.306518,-153.178311,76.589155,10722.481770
1541.306821,76.589155,229.767466,10799.070925
1541.307125,76.589155,229.767466,10722.481770
1541.307428,-153.178311,382.945777,10722.481770
1541.307732,-306.356622,689.302399,10722.481770
1541.308035,0.000000,689.302399,10569.303459
1541.308339,-306.356622,76.589155,11105.427547
1541.308643,0.000000,0.000000,10952.249236
1541.308947,0.000000,-153.178311,10952.249236
1541.309250,-153.178311,-153.178311,10799.070925
1541.309553,-306.356622,-459.534933,10799.070925
1541.309857,-459.534933,-765.891555,11105.427547
1541.310160,0.000000,-153.178311,10952.249236
1541.310464,382.945777,-153.178311,11105.427547
1541.310767,76.589155,0.000000,10799.070925
1541.311071,76.589155,76.589155,10952.249236
1541.311374,382.945777,76.589155,10952.249236
1541.311677,0.000000,76.589155,10952.249236
1541.311981,76.589155,382.945777,10722.481770
1541.312284,0.000000,382.945777,10722.481770
1541.312588,229.767466,229.767466,10569.303459
1541.312891,0.000000,229.767466,10722.481770
1541.313194,76.589155,536.124088,10799.070925
1541.313501,-765.891555,76.589155,10952.249236
1541.313804,-612.713244,229.767466,10952.249236
1541.314107,-459.534933,-306.356622,11258.605858
1541.314410,-153.178311,229.767466,11105.427547
1541.314713,-306.356622,-153.178311,10722.481770
1541.315016,-612.713244,-459.534933,11105.427547
1541.315319,-306.356622,-459.534933,11105.427547
1541.315622,229.767466,76.589155,10799.070925
1541.315940,229.767466,76.589155,10952.249236
1541.316242,536.124088,0.000000,10952.249236
1541.316543,689.302399,76.589155,10799.070925
1541.316845,0.000000,0.000000,11105.427547
1541.317146,229.767466,536.124088,10722.481770
1541.317448,76.589155,382.945777,10569.303459
1541.317749,229.767466,-153.178311,10722.481770
1541.318051,-153.178311,76.589155,10569.303459
1541.318377,76.589155,536.124088,10722.481770
1541.318677,-153.178311,76.589155,11105.427547
1541.318977,-765.891555,0.000000,10952.249236
1541.319277,-306.356622,-306.356622,11258.605858
1541.319578,-306.356622,-153.178311,11105.427547
1541.319878,-612.713244,0.000000,10952.249236
1541.320178,-612.713244,-459.534933,10952.249236
1541.320478,-306.356622,-459.534933,11258.605858
1541.320782,-153.178311,0.000000,11258.605858
1541.321085,229.767466,0.000000,10952.249236
1541.321389,76.589155,536.124088,10799.070925
1541.321692,229.767466,76.589155,10952.249236
1541.321996,536.124088,0.000000,11105.427547
1541.322299,229.767466,229.767466,10952.249236
1541.322603,382.945777,536.124088,10722.481770
1541.322906,76.589155,229.767466,10799.070925
1541.323209,229.767466,0.000000,10722.481770
1541.323513,0.000000,76.589155,10952.249236
1541.323816,-153.178311,229.767466,11105.427547
1541.324120,-612.713244,-153.178311,10952.249236
1541.324423,-306.356622,0.000000,10952.249236
1541.324726,-919.069866,-459.534933,10952.249236
1541.325030,-765.891555,0.000000,10952.249236
1541.325333,-612.713244,-459.534933,10952.249236
1541.325637,-612.713244,-459.534933,11105.427547
1541.325941,-612.713244,0.000000,10952.249236
1541.326244,76.589155,229.767466,10722.481770
1541.326548,0.000000,229.767466,10722.481770
1541.326851,229.767466,229.767466,11105.427547
1541.327155,229.767466,229.767466,11105.427547
1541.327458,536.124088,536.124088,10799.070925
1541.327762,536.124088,229.767466,10722.481770
1541.328065,229.767466,0.000000,10722.481770
1541.328368,382.945777,0.000000,10952.249236
1541.328672,229.767466,0.000000,10799.070925
1541.328975,-153.178311,76.589155,10722.481770
1541.329279,-153.178311,-612.713244,11105.427547
1541.329582,-153.178311,0.000000,10952.249236
1541.329886,-612.713244,-153.178311,10799.070925
1541.330189,-153.178311,-153.178311,10952.249236
1541.330492,-1072.248177,-459.534933,10952.249236
1541.330796,-919.069866,0.000000,11258.605858
1541.331099,-919.069866,-306.356622,10952.249236
1541.331403,0.000000,536.124088,10952.249236
1541.331707,-459.534933,76.589155,10952.249236
1541.332010,76.589155,382.945777,10952.249236
1541.332314,536.124088,536.124088,10799.070925
1541.332617,536.124088,689.302399,10952.249236
1541.332934,536.124088,382.945777,10722.481770
1541.333236,536.124088,229.767466,10799.070925
1541.333537,382.945777,382.945777,10722.481770
1541.333839,382.945777,76.589155,10722.481770
1541.334140,229.767466,-153.178311,10799.070925
1541.334442,229.767466,-306.356622,10799.070925
1541.334744,-153.178311,-612.713244,10952.249236
1541.335045,-765.891555,-306.356622,10799.070925
1541.335364,-306.356622,-306.356622,10722.481770
1541.335665,-919.069866,-612.713244,11105.427547
1541.335967,-1225.426488,-306.356622,10952.249236
1541.336268,-919.069866,-153.178311,10952.249236
1541.336569,-612.713244,0.000000,10799.070925
1541.336871,-612.713244,229.767466,10569.303459
1541.337172,-153.178311,382.945777,11105.427547
1541.337473,-306.356622,382.945777,10952.249236
1541.337782,689.302399,842.480710,10722.481770
1541.338085,229.767466,76.589155,11105.427547
1541.338388,382.945777,382.945777,10799.070925
1541.338690,229.767466,76.589155,10799.070925
1541.338993,689.302399,382.945777,11258.605858
1541.339296,536.124088,229.767466,10722.481770
1541.339598,382.945777,-306.356622,11258.605858
1541.339901,76.589155,-459.534933,10952.249236
1541.340204,536.124088,0.000000,10799.070925
1541.340507,-306.356622,-612.713244,11105.427547
1541.340811,-612.713244,-153.178311,11105.427547
1541.341114,-919.069866,-612.713244,10952.249236
1541.341418,-919.069866,-765.891555,11258.605858
1541.341721,-1072.248177,229.767466,10799.070925
1541.342025,-765.891555,76.589155,10722.481770
1541.342328,-765.891555,689.302399,10952.249236
1541.342639,-612.713244,995.659021,10569.303459
1541.342941,76.589155,536.124088,10799.070925
1541.343244,0.000000,536.124088,10952.249236
1541.343546,229.767466,689.302399,10722.481770
1541.343849,382.945777,229.767466,10799.070925
1541.344151,382.945777,382.945777,10722.481770
1541.344454,382.945777,382.945777,10722.481770
1541.344757,229.767466,229.767466,10722.481770
1541.345060,382.945777,-153.178311,10799.070925
1541.345363,536.124088,-459.534933,10799.070925
1541.345667,-153.178311,-612.713244,11105.427547
1541.345970,229.767466,-153.178311,10799.070925
1541.346274,-612.713244,-612.713244,11105.427547
1541.346577,-765.891555,-459.534933,10952.249236
1541.346881,-765.891555,-459.534933,11105.427547
1541.347184,-612.713244,76.589155,10952.249236
1541.347489,-765.891555,76.589155,10722.481770
1541.347793,-306.356622,536.124088,10952.249236
1541.348096,-153.178311,382.945777,10952.249236
1541.348399,76.589155,536.124088,10952.249236
1541.348702,76.589155,382.945777,10799.070925
1541.349006,229.767466,689.302399,10799.070925
1541.349309,229.767466,382.945777,10799.070925
1541.349612,229.767466,382.945777,10799.070925
1541.349918,229.767466,0.000000,10569.303459
1541.350221,229.767466,76.589155,10799.070925
1541.350524,76.589155,-459.534933,10952.249236
1541.350828,76.589155,-612.713244,11105.427547
1541.351131,-153.178311,-612.713244,11105.427547
1541.351434,-306.356622,-459.534933,11105.427547
1541.351737,-306.356622,-612.713244,10952.249236
1541.352040,-612.713244,-612.713244,11105.427547
1541.352359,-612.713244,-153.178311,10799.070925
1541.352660,-919.069866,382.945777,10569.303459
1541.352962,-153.178311,536.124088,10722.481770
1541.353263,0.000000,842.480710,10799.070925
1541.353564,-153.178311,995.659021,10722.481770
1541.353866,-153.178311,689.302399,10952.249236
1541.354167,229.767466,689.302399,10799.070925
1541.354468,229.767466,382.945777,10799.070925
1541.354777,0.000000,382.945777,10799.070925
1541.355080,76.589155,76.589155,10722.481770
1541.355383,536.124088,229.767466,10952.249236
1541.355685,229.767466,-306.356622,10799.070925
1541.355988,76.589155,-306.356622,10952.249236
1541.356291,-153.178311,-459.534933,11105.427547
1541.356593,0.000000,-612.713244,10952.249236
1541.356896,-459.534933,-765.891555,11258.605858
1541.357199,-919.069866,-919.069866,11258.605858
1541.357503,-1072.248177,-919.069866,11105.427547
1541.357806,-765.891555,-306.356622,11105.427547
1541.358110,-306.356622,-153.178311,10952.249236
1541.358413,-306.356622,689.302399,10799.070925
1541.358717,229.767466,689.302399,10952.249236
1541.359020,0.000000,536.124088,10952.249236
1541.359324,76.589155,1148.837332,10799.070925
1541.359627,229.767466,1148.837332,10952.249236
1541.359930,382.945777,842.480710,10722.481770
1541.360234,536.124088,689.302399,10722.481770
1541.360537,76.589155,76.589155,10799.070925
1541.360841,229.767466,0.000000,10799.070925
1541.361144,382.945777,0.000000,10569.303459
1541.361448,76.589155,-919.069866,10952.249236
1541.361752,-459.534933,-459.534933,10952.249236
1541.362054,-153.178311,-765.891555,10799.070925
1541.362358,-306.356622,-919.069866,11105.427547
1541.362662,-919.069866,-765.891555,10952.249236
1541.362965,-765.891555,-1225.426488,11105.427547
1541.363269,-919.069866,-306.356622,10799.070925
1541.363572,-306.356622,76.589155,10952.249236
1541.363876,0.000000,382.945777,10952.249236
1541.364179,0.000000,1148.837332,10799.070925
1541.364485,-306.356622,842.480710,10799.070925
1541.364788,536.124088,1148.837332,10952.249236
1541.365091,382.945777,842.480710,10799.070925
1541.365394,229.767466,1302.015643,10799.070925
1541.365698,229.767466,382.945777,10799.070925
1541.366001,842.480710,536.124088,10799.070925
1541.366304,536.124088,76.589155,10799.070925
1541.366607,0.000000,0.000000,10799.070925
1541.366918,-306.356622,-612.713244,11105.427547
1541.367221,229.767466,-306.356622,10952.249236
1541.367523,-306.356622,-765.891555,10952.249236
1541.367825,-1072.248177,-919.069866,10799.070925
1541.368128,-1225.426488,-612.713244,10799.070925
1541.368430,-765.891555,-765.891555,11258.605858
1541.368733,-612.713244,-459.534933,10952.249236
1541.369035,-612.713244,382.945777,10799.070925
1541.369354,0.000000,536.124088,10799.070925
1541.369655,76.589155,1148.837332,10799.070925
1541.369956,0.000000,689.302399,10799.070925
1541.370258,0.000000,689.302399,10952.249236
1541.370559,382.945777,1455.193954,10569.303459
1541.370860,842.480710,689.302399,10799.070925
1541.371161,382.945777,382.945777,10952.249236
1541.371463,229.767466,76.589155,10799.070925
1541.371772,689.302399,536.124088,10799.070925
1541.372075,229.767466,-153.178311,11105.427547
1541.372378,-153.178311,-612.713244,11105.427547
1541.372680,-153.178311,-765.891555,11258.605858
1541.372983,76.589155,-919.069866,11411.784169
1541.373285,-306.356622,-919.069866,10952.249236
1541.373588,-1225.426488,-1072.248177,11105.427547
1541.373891,-765.891555,-612.713244,10799.070925
1541.374193,-306.356622,0.000000,10952.249236
1541.374497,-153.178311,229.767466,10799.070925
1541.374800,-153.178311,689.302399,10722.481770
1541.375104,-153.178311,689.302399,10952.249236
1541.375408,382.945777,1302.015643,10799.070925
1541.375711,76.589155,842.480710,10722.481770
1541.376015,229.767466,1148.837332,10799.070925
1541.376318,229.767466,536.124088,10722.481770
1541.376621,995.659021,536.124088,10799.070925
1541.376925,76.589155,229.767466,10722.481770
1541.377228,76.589155,76.589155,10722.481770
1541.377532,-153.178311,-153.178311,10952.249236
1541.377835,536.124088,-612.713244,10952.249236
1541.378139,0.000000,-459.534933,11105.427547
1541.378442,-612.713244,-612.713244,10952.249236
1541.378746,-306.356622,-919.069866,11105.427547
1541.379049,-459.534933,-1072.248177,11105.427547
1541.379353,-919.069866,-459.534933,10952.249236
1541.379656,-612.713244,-306.356622,10799.070925
1541.379960,229.767466,229.767466,10722.481770
1541.380263,-153.178311,536.124088,10799.070925
1541.380567,-306.356622,842.480710,10799.070925
1541.380871,-306.356622,536.124088,10722.481770
1541.381174,229.767466,1455.193954,10569.303459
1541.381477,382.945777,689.302399,10799.070925
1541.381781,76.589155,536.124088,10799.070925
1541.382084,229.767466,536.124088,10722.481770
1541.382388,229.767466,689.302399,10799.070925
1541.382691,76.589155,-153.178311,10722.481770
1541.382995,229.767466,-612.713244,11258.605858
1541.383298,0.000000,-765.891555,10952.249236
1541.383602,0.000000,-919.069866,10952.249236
1541.383913,-612.713244,-1225.426488,10952.249236
1541.384215,-459.534933,-765.891555,10799.070925
1541.384518,-459.534933,-765.891555,10799.070925
1541.384820,-459.534933,-153.178311,11105.427547
1541.385123,-306.356622,76.589155,10799.070925
1541.385425,76.589155,536.124088,10799.070925
1541.385727,-153.178311,689.302399,10799.070925
1541.386030,-153.178311,689.302399,11105.427547
1541.386348,-153.178311,536.124088,10722.481770
1541.386650,229.767466,1148.837332,10722.481770
1541.386951,536.124088,536.124088,10722.481770
1541.387252,0.000000,536.124088,10722.481770
1541.387553,382.945777,842.480710,10722.481770
1541.387854,382.945777,229.767466,10952.249236
1541.388156,-153.178311,76.589155,11105.427547
1541.388457,-153.178311,-919.069866,11105.427547
1541.388767,229.767466,-1072.248177,11564.962480
1541.389069,0.000000,-765.891555,11105.427547
1541.389372,-459.534933,-919.069866,11105.427547
1541.389674,-765.891555,-919.069866,10952.249236
1541.389977,-306.356622,-612.713244,11105.427547
1541.390280,-153.178311,-459.534933,11105.427547
1541.390582,0.000000,382.945777,10952.249236
1541.390885,-306.356622,76.589155,10799.070925
1541.391188,-153.178311,842.480710,11105.427547
1541.391492,-153.178311,536.124088,10722.481770
1541.391795,0.000000,1148.837332,10799.070925
1541.392099,229.767466,689.302399,10799.070925
1541.392402,76.589155,995.659021,10799.070925
1541.392706,0.000000,536.124088,10799.070925
1541.393009,229.767466,1148.837332,10952.249236
1541.393313,229.767466,229.767466,10799.070925
1541.393618,382.945777,0.000000,11105.427547
1541.393921,-459.534933,-1072.248177,10952.249236
1541.394224,76.589155,-306.356622,10952.249236
1541.394528,76.589155,-919.069866,10799.070925
1541.394831,0.000000,-1072.248177,10952.249236
1541.395134,-765.891555,-1072.248177,10799.070925
1541.395438,-612.713244,-765.891555,10799.070925
1541.395741,-306.356622,-306.356622,10799.070925
1541.396044,0.000000,76.589155,10952.249236
1541.396347,-153.178311,229.767466,10952.249236
1541.396651,-306.356622,382.945777,10799.070925
1541.396955,76.589155,995.659021,10722.481770
1541.397258,-153.178311,689.302399,10569.303459
1541.397562,382.945777,1302.015643,10569.303459
1541.397865,229.767466,842.480710,10722.481770
1541.398169,229.767466,1148.837332,10722.481770
1541.398475,229.767466,995.659021,10722.481770
1541.398778,229.767466,76.589155,10722.481770
1541.399081,-153.178311,-153.178311,11105.427547
1541.399384,76.589155,-459.534933,11105.427547
1541.399687,0.000000,-1072.248177,11105.427547
1541.399990,-153.178311,-919.069866,10799.070925
1541.400293,-612.713244,-1072.248177,10952.249236
1541.400597,-153.178311,-1072.248177,11105.427547
1541.400919,-919.069866,-612.713244,10799.070925
1541.401220,-459.534933,0.000000,10952.249236
1541.401520,-612.713244,-153.178311,10952.249236
1541.401821,229.767466,536.124088,10799.070925
1541.402122,-153.178311,536.124088,10722.481770
1541.402423,-306.356622,842.480710,10569.303459
1541.402724,229.767466,1148.837332,10722.481770
1541.403024,382.945777,689.302399,10952.249236
1541.403327,382.945777,1302.015643,10569.303459
1541.403631,76.589155,995.659021,10569.303459
1541.403935,382.945777,842.480710,10416.125148
1541.404238,229.767466,76.589155,10722.481770
1541.404542,-153.178311,-153.178311,10799.070925
1541.404845,-153.178311,-612.713244,11105.427547
1541.405149,229.767466,-919.069866,11105.427547
1541.405452,-459.534933,-1378.604799,10952.249236
1541.405767,-765.891555,-919.069866,11105.427547
1541.406069,-765.891555,-1225.426488,11105.427547
1541.406371,76.589155,-306.356622,11105.427547
1541.406673,-306.356622,-459.534933,11105.427547
1541.406975,0.000000,76.589155,11105.427547
1541.407277,0.000000,382.945777,10952.249236
1541.407579,-153.178311,536.124088,10952.249236
1541.407880,76.589155,536.124088,10799.070925
1541.408183,0.000000,995.659021,10722.481770
1541.408487,382.945777,1302.015643,10799.070925
1541.408790,382.945777,1148.837332,10799.070925
1541.409094,76.589155,995.659021,10799.070925
1541.409398,229.767466,689.302399,10799.070925
1541.409701,229.767466,382.945777,10952.249236
1541.410005,0.000000,-306.356622,10799.070925
1541.410308,76.589155,-306.356622,10952.249236
1541.410619,-306.356622,-612.713244,11105.427547
1541.410922,-612.713244,-612.713244,10952.249236
1541.411224,-306.356622,-765.891555,11105.427547
1541.411526,-153.178311,-1072.248177,11105.427547
1541.411829,76.589155,-612.713244,10952.249236
1541.412131,0.000000,-306.356622,10799.070925
1541.412434,-306.356622,-153.178311,11105.427547
1541.412736,0.000000,382.945777,10799.070925
1541.413040,-306.356622,382.945777,10722.481770
1541.413343,-153.178311,1302.015643,10722.481770
1541.413646,-153.178311,689.302399,10569.303459
1541.413950,76.589155,1302.015643,10799.070925
1541.414253,0.000000,689.302399,10569.303459
1541.414557,382.945777,995.659021,10799.070925
1541.414860,0.000000,229.767466,10799.070925
1541.415164,229.767466,229.767466,10952.249236
1541.415470,0.000000,-306.356622,11105.427547
1541.415773,76.589155,-612.713244,11105.427547
1541.416076,76.589155,-612.713244,10799.070925
1541.416379,-306.356622,-919.069866,10799.070925
1541.416682,0.000000,-1072.248177,10952.249236
1541.416985,-153.178311,-765.891555,10722.481770
1541.417289,76.589155,-459.534933,10799.070925
1541.417592,0.000000,-459.534933,10799.070925
1541.417914,76.589155,76.589155,11105.427547
1541.418215,-306.356622,229.767466,10952.249236
1541.418516,-306.356622,536.124088,10569.303459
1541.418816,-612.713244,536.124088,10416.125148
1541.419117,382.945777,995.659021,10722.481770
1541.419418,-153.178311,842.480710,10722.481770
1541.419719,0.000000,1148.837332,10722.481770
1541.420020,0.000000,842.480710,10569.303459
1541.420333,229.767466,689.302399,10952.249236
1541.420635,0.000000,0.000000,10799.070925
1541.420937,-153.178311,0.000000,11105.427547
1541.421239,-612.713244,-612.713244,10799.070925
1541.421541,-153.178311,-306.356622,10722.481770
1541.421843,-612.713244,-1225.426488,11105.427547
1541.422145,-153.178311,-765.891555,10952.249236
1541.422447,76.589155,-612.713244,11258.605858
1541.422757,382.945777,0.000000,11258.605858
1541.423059,76.589155,-153.178311,11105.427547
1541.423362,0.000000,536.124088,10722.481770
1541.423665,0.000000,536.124088,10952.249236
1541.423967,-153.178311,689.302399,10799.070925
1541.424270,0.000000,689.302399,10952.249236
1541.424573,0.000000,689.302399,10722.481770
1541.424875,229.767466,1302.015643,10722.481770
1541.425178,0.000000,995.659021,10799.070925
1541.425482,-306.356622,382.945777,10952.249236
1541.425785,-306.356622,229.767466,10799.070925
1541.426089,-153.178311,0.000000,10799.070925
1541.426392,-306.356622,-153.178311,10569.303459
1541.426696,-612.713244,-765.891555,10952.249236
1541.426999,-459.534933,-1225.426488,10952.249236
1541.427303,-306.356622,-1072.248177,10952.249236
1541.427614,76.589155,-919.069866,10952.249236
1541.427916,76.589155,-612.713244,10952.249236
1541.428219,229.767466,0.000000,10799.070925
1541.428521,689.302399,76.589155,11105.427547
1541.428824,382.945777,229.767466,10722.481770
1541.429126,-306.356622,842.480710,10722.481770
1541.429428,76.589155,689.302399,10799.070925
1541.429731,229.767466,536.124088,10952.249236
1541.430034,76.589155,995.659021,10569.303459
1541.430337,-153.178311,842.480710,10799.070925
1541.430641,76.589155,1302.015643,10569.303459
1541.430944,0.000000,689.302399,10722.481770
1541.431248,-306.356622,76.589155,10952.249236
1541.431551,-153.178311,229.767466,11105.427547
1541.431855,-153.178311,-612.713244,10952.249236
1541.432159,-612.713244,-612.713244,11105.427547
1541.432462,-765.891555,-1072.248177,10799.070925
1541.432765,-306.356622,-919.069866,11258.605858
1541.433069,0.000000,-919.069866,11105.427547
1541.433372,76.589155,-612.713244,10799.070925
1541.433676,229.767466,-459.534933,11105.427547
1541.433979,76.589155,382.945777,10799.070925
1541.434283,-153.178311,229.767466,10799.070925
1541.434586,0.000000,382.945777,10799.070925
1541.434909,76.589155,689.302399,10722.481770
1541.435210,382.945777,382.945777,10722.481770
1541.435510,229.767466,536.124088,10569.303459
1541.435811,229.767466,842.480710,10722.481770
1541.436112,-153.178311,536.124088,10799.070925
1541.436413,229.767466,995.659021,10569.303459
1541.436713,-153.178311,-153.178311,10952.249236
1541.437014,-306.356622,-153.178311,10952.249236
1541.437327,-306.356622,-306.356622,10799.070925
1541.437630,-306.356622,-612.713244,10952.249236
1541.437932,-612.713244,-1072.248177,10799.070925
1541.438234,-459.534933,-1072.248177,10952.249236
1541.438536,76.589155,-919.069866,11105.427547
1541.438838,76.589155,-459.534933,11105.427547
1541.439140,229.767466,0.000000,10952.249236
1541.439442,0.000000,-153.178311,11105.427547
1541.439758,-306.356622,536.124088,10952.249236
1541.440059,0.000000,382.945777,10722.481770
1541.440361,229.767466,536.124088,10722.481770
1541.440663,0.000000,382.945777,11105.427547
1541.440965,229.767466,382.945777,10799.070925
1541.441266,76.589155,1148.837332,10799.070925
1541.441568,0.000000,995.659021,10722.481770
1541.441870,-612.713244,229.767466,11258.605858
1541.442174,229.767466,76.589155,11105.427547
1541.442477,-153.178311,-153.178311,11105.427547
1541.442780,-306.356622,76.589155,10722.481770
1541.443084,-765.891555,-459.534933,10799.070925
1541.443387,-306.356622,-306.356622,11258.605858
1541.443691,76.589155,-919.069866,11105.427547
1541.443994,229.767466,-153.178311,11105.427547
1541.444298,0.000000,0.000000,10799.070925
1541.444609,0.000000,-612.713244,10952.249236
1541.444911,229.767466,-153.178311,11105.427547
1541.445214,-153.178311,382.945777,10799.070925
1541.445516,0.000000,382.945777,10569.303459
1541.445819,76.589155,689.302399,10569.303459
1541.446121,229.767466,229.767466,10569.303459
1541.446423,0.000000,382.945777,11105.427547
1541.446726,-306.356622,1148.837332,10569.303459
1541.447029,76.589155,536.124088,10722.481770
1541.447332,-306.356622,-153.178311,11105.427547
1541.447636,0.000000,0.000000,10722.481770
1541.447939,-459.534933,-153.178311,10799.070925
1541.448243,-612.713244,0.000000,10799.070925
1541.448546,-306.356622,-612.713244,10799.070925
1541.448850,-306.356622,-459.534933,11411.784169
1541.449154,76.589155,-153.178311,11105.427547
1541.449460,382.945777,-153.178311,11105.427547
1541.449763,229.767466,0.000000,10799.070925
1541.450066,-153.178311,-306.356622,10952.249236
1541.450369,-306.356622,76.589155,10952.249236
1541.450672,382.945777,76.589155,10569.303459
1541.450975,689.302399,536.124088,10799.070925
1541.451278,76.589155,382.945777,10799.070925
1541.451581,76.589155,382.945777,10952.249236
1541.451893,-153.178311,76.589155,10799.070925
1541.452195,-459.534933,689.302399,10722.481770
1541.452497,-306.356622,76.589155,10722.481770
1541.452800,-306.356622,-306.356622,11105.427547
1541.453102,-612.713244,-306.356622,10952.249236
1541.453404,-153.178311,0.000000,10952.249236
1541.453707,-612.713244,-153.178311,10722.481770
1541.454009,-612.713244,-153.178311,10952.249236
1541.454318,-153.178311,-459.534933,11105.427547
1541.454620,382.945777,229.767466,10799.070925
1541.454923,382.945777,229.767466,10569.303459
1541.455226,76.589155,76.589155,10799.070925
1541.455529,76.589155,-153.178311,10799.070925
1541.455832,536.124088,0.000000,11411.784169
1541.456134,0.000000,229.767466,10722.481770
1541.456437,76.589155,76.589155,10569.303459
1541.456752,76.589155,76.589155,10799.070925
1541.457054,-153.178311,382.945777,10799.070925
1541.457356,-612.713244,-153.178311,10952.249236
1541.457658,-306.356622,536.124088,10722.481770
1541.457959,-612.713244,76.589155,10722.481770
1541.458261,-765.891555,-459.534933,11258.605858
1541.458563,-306.356622,-306.356622,11105.427547
1541.458864,-153.178311,-306.356622,10952.249236
1541.459168,-765.891555,76.589155,10722.481770
1541.459471,-153.178311,0.000000,10569.303459
1541.459775,-153.178311,0.000000,11258.605858
1541.460079,229.767466,536.124088,10799.070925
1541.460382,689.302399,229.767466,10799.070925
1541.460686,229.767466,-306.356622,10799.070925
1541.460989,229.767466,0.000000,10799.070925
1541.461293,382.945777,-306.356622,10799.070925
1541.461604,382.945777,382.945777,10799.070925
1541.461906,229.767466,76.589155,10722.481770
1541.462209,76.589155,-153.178311,10952.249236
1541.462511,229.767466,229.767466,10722.481770
1541.462814,-306.356622,536.124088,10799.070925
1541.463116,-459.534933,229.767466,10722.481770
1541.463418,-612.713244,0.000000,10799.070925
1541.463721,-612.713244,-459.534933,11105.427547
1541.464024,-612.713244,76.589155,11258.605858
1541.464327,-612.713244,76.589155,10722.481770
1541.464631,-765.891555,0.000000,10952.249236
1541.464934,-765.891555,-153.178311,11105.427547
1541.465238,229.767466,536.124088,10722.481770
1541.465542,76.589155,229.767466,11105.427547
1541.465845,229.767466,229.767466,10799.070925
1541.466149,76.589155,-153.178311,10799.070925
1541.466452,382.945777,229.767466,10952.249236
1541.466755,229.767466,76.589155,10799.070925
1541.467059,229.767466,536.124088,10722.481770
1541.467362,536.124088,0.000000,10952.249236
1541.467666,229.767466,-306.356622,10952.249236
1541.467969,0.000000,0.000000,11105.427547
1541.468273,0.000000,229.767466,11105.427547
1541.468577,-459.534933,-153.178311,10952.249236
1541.468893,-612.713244,0.000000,11105.427547
1541.469194,-765.891555,-153.178311,11105.427547
1541.469496,-765.891555,76.589155,10799.070925
1541.469798,-612.713244,76.589155,10799.070925
1541.470099,-919.069866,-153.178311,11105.427547
1541.470401,-306.356622,229.767466,10952.249236
1541.470703,-459.534933,0.000000,10799.070925
1541.471005,229.767466,536.124088,10799.070925
1541.471313,76.589155,76.589155,10952.249236
1541.471616,76.589155,229.767466,10799.070925
1541.471918,229.767466,382.945777,10569.303459
1541.472221,229.767466,229.767466,10952.249236
1541.472524,689.302399,229.767466,10799.070925
1541.472826,229.767466,229.767466,10416.125148
1541.473129,0.000000,-153.178311,10952.249236
1541.473432,76.589155,-153.178311,10952.249236
1541.473747,76.589155,76.589155,10722.481770
1541.474049,-153.178311,-153.178311,10952.249236
1541.474351,-612.713244,-153.178311,10952.249236
1541.474653,-306.356622,-153.178311,11105.427547
1541.474955,-765.891555,-459.534933,11105.427547
1541.475256,-459.534933,536.124088,10722.481770
1541.475558,-919.069866,-459.534933,10952.249236
1541.475860,-306.356622,536.124088,10952.249236
1541.476163,-153.178311,229.767466,10722.481770
1541.476467,229.767466,229.767466,10952.249236
1541.476770,0.000000,382.945777,10799.070925
1541.477073,229.767466,0.000000,10799.070925
1541.477377,536.124088,0.000000,11105.427547
1541.477680,382.945777,689.302399,10799.070925
1541.477984,229.767466,0.000000,10952.249236
1541.478287,536.124088,-153.178311,10799.070925
1541.478592,382.945777,76.589155,10952.249236
1541.478895,229.767466,-153.178311,11105.427547
1541.479199,-306.356622,0.000000,10722.481770
1541.479502,-153.178311,0.000000,10952.249236
1541.479805,-612.713244,-612.713244,11105.427547
1541.480109,-1072.248177,-153.178311,10799.070925
1541.480412,-765.891555,-306.356622,10952.249236
1541.480715,-306.356622,76.589155,10722.481770
1541.481030,-765.891555,536.124088,10799.070925
1541.481332,-612.713244,76.589155,10952.249236
1541.481634,0.000000,689.302399,10952.249236
1541.481936,229.767466,689.302399,10569.303459
1541.482238,76.589155,536.124088,10799.070925
1541.482540,0.000000,382.945777,10799.070925
1541.482842,689.302399,382.945777,10569.303459
1541.483144,689.302399,76.589155,11105.427547
1541.483447,76.589155,229.767466,10722.481770
1541.483750,76.589155,-459.534933,11105.427547
1541.484054,229.767466,-459.534933,11105.427547
1541.484357,76.589155,-612.713244,11105.427547
1541.484661,-153.178311,-153.178311,11105.427547
1541.484965,-612.713244,-459.534933,10799.070925
1541.485268,-306.356622,-459.534933,10952.249236
1541.485572,-765.891555,-459.534933,10952.249236
1541.485888,-459.534933,76.589155,10952.249236
1541.486189,-612.713244,76.589155,10799.070925
1541.486491,-153.178311,689.302399,10799.070925
1541.486793,-153.178311,229.767466,10722.481770
1541.487094,-153.178311,536.124088,10952.249236
1541.487396,0.000000,995.659021,10722.481770
1541.487698,229.767466,689.302399,10416.125148
1541.488000,382.945777,382.945777,10799.070925
1541.488303,76.589155,229.767466,10799.070925
1541.488606,382.945777,0.000000,10799.070925
1541.488910,229.767466,0.000000,10799.070925
1541.489213,382.945777,-459.534933,10799.070925
1541.489516,0.000000,-612.713244,11105.427547
1541.489820,0.000000,-306.356622,11105.427547
1541.490123,-153.178311,-612.713244,10952.249236
1541.490427,-612.713244,0.000000,11105.427547
1541.490746,-612.713244,-612.713244,10952.249236
1541.491047,-612.713244,-306.356622,10952.249236
1541.491349,-306.356622,-306.356622,10799.070925
1541.491650,-306.356622,229.767466,10952.249236
1541.491951,-306.356622,536.124088,10569.303459
1541.492252,0.000000,536.124088,10952.249236
1541.492554,0.000000,382.945777,10799.070925
1541.492855,536.124088,842.480710,10722.481770
1541.493158,76.589155,382.945777,10722.481770
1541.493462,382.945777,382.945777,10952.249236
1541.493765,382.945777,-153.178311,10799.070925
1541.494069,689.302399,0.000000,10952.249236
